time,seconds_elapsed,acc_x,acc_y,acc_z,gyr_x,gyr_y,gyr_z,grav_x,grav_y,grav_z,fs_hz,activity
1783087531221176800,0.0,-1.818486031129211,0.295308641976118,0.3897334770798683,0.9951963424682616,-1.1498831510543823,-0.077378012239933,-0.9077614717699588,-6.33393414170146,-7.431529472410679,100,jumping
1783087531231139800,0.009963,-1.60469758836776,-0.1102671318799257,1.0601724857658148,0.971863865852356,-1.123592972755432,-0.1474718749523162,-0.983733827599138,-6.407348337480426,-7.35856886561811,100,jumping
1783087531241101800,0.019925,-1.1926322332967072,0.0021294132441282,0.6872527808427811,0.9475257992744446,-1.313433051109314,-0.2859959602355957,-1.057767689646408,-6.479642004796863,-7.284624508485198,100,jumping
1783087531251064800,0.029888,-0.9791831785574556,0.3229185334354639,0.421810284820199,0.839607298374176,-1.8568843603134155,-0.4306418299674988,-1.1495614455942065,-6.548142125049233,-7.209072716155648,100,jumping
1783087531261027800,0.039851,-1.722197009588778,0.954815922281146,-0.4119692742854356,0.8439855575561523,-1.8210251331329343,-0.52925044298172,-1.252299277947843,-6.613361908456683,-7.132010519263148,100,jumping
1783087531270990800,0.049814,-1.0422519214108583,1.100064935693145,0.762546799018979,0.8813888430595398,-1.7410386800765991,-0.6120622158050537,-1.33997873044461,-6.682295743951201,-7.051366372230649,100,jumping
1783087531280953900,0.0597771,-1.5695876965418456,1.247494800275564,1.9283873984366653,0.826034426689148,-1.8754249811172483,-0.7686511874198914,-1.4191240172214803,-6.751763832452893,-6.96922935629189,100,jumping
1783087531290916600,0.0697398,-1.6241420012891292,1.625766972142458,1.5218962633013724,0.7358619570732117,-2.153923273086548,-0.9882466793060304,-1.499243848118931,-6.8183414602100845,-6.887152546107768,100,jumping
1783087531300880100,0.0797033,-0.5457293638251721,1.6498329073846338,0.8146259458243846,0.680178701877594,-2.1532931327819824,-1.1230475902557373,-1.575533307073265,-6.882510273259878,-6.80581632515788,100,jumping
1783087531310842000,0.0896652,0.4047342084653675,1.4370254384845491,0.9510311430454254,0.6903697848320007,-2.055112838745117,-1.0815051794052124,-1.6392444394834338,-6.946532371315359,-6.725246996927261,100,jumping
1783087531320805000,0.0996282,1.1304020601592957,0.9436492161005736,0.9130588475257158,0.6837117671966553,-2.088393449783325,-0.925664722919464,-1.7077039354644714,-7.009059846898913,-6.642832333090901,100,jumping
1783087531330768100,0.1095913,0.6961009809479117,0.7009510513275862,1.173827506518364,0.6766759753227234,-2.0156311988830566,-0.7606641054153442,-1.7841159978851675,-7.068180728909373,-6.559584141039848,100,jumping
1783087531340731100,0.1195543,0.6886437968097626,0.966658920288086,1.8096996442139148,0.6606855392456055,-1.911142349243164,-0.6090561151504517,-1.863149348720163,-7.124096677398681,-6.476597230273485,100,jumping
1783087531350694100,0.1295173,1.1130836994811892,1.1080991890668868,1.821409371230006,0.6473220586776733,-1.8648065328598025,-0.4569592475891113,-1.946116093481332,-7.175903437003493,-6.394483595210313,100,jumping
1783087531360657000,0.1394802,1.2773152073912322,1.017222986355424,1.7177105118244886,0.7059220671653748,-1.7441530227661133,-0.2717826664447784,-2.034481336285174,-7.2255369442224495,-6.310536899501085,100,jumping
1783087531370619100,0.1494423,1.4759092958912252,1.0154629909455777,1.9103414541363717,0.8376138210296631,-1.572864651679993,-0.0304555408656597,-2.126683234642446,-7.27674924506545,-6.22065263043642,100,jumping
1783087531380582100,0.1594053,1.7276058828949927,1.1002186649501322,2.0838298890829083,0.9933926463127136,-1.4850590229034424,0.2889139652252197,-2.2290414930939675,-7.330380297487974,-6.121052438521385,100,jumping
1783087531390545200,0.1693684,1.57637779507339,1.1049018543303013,1.8274737858355043,1.1633363962173462,-1.833876729011536,0.60307377576828,-2.3598801422290503,-7.385042446523904,-6.005205460682511,100,jumping
1783087531400508200,0.1793314,0.8065370396539568,1.175652383857965,1.164778523144126,1.2673770189285278,-2.085272789001465,0.6640442609786987,-2.52527426417768,-7.441576819172501,-5.866541670879721,100,jumping
1783087531410471000,0.1892942,0.5395972908109427,2.1970412577211857,1.441597568705678,1.2116899490356443,-2.130385637283325,0.5194553732872009,-2.6918346534267066,-7.497952786388993,-5.7188382500529285,100,jumping
1783087531420434000,0.1992572,0.089514558969438,3.1773779902279373,1.783245937052369,1.1794167757034302,-2.1407339572906494,0.3782781958580017,-2.8453903074130413,-7.552781524163484,-5.570424050608277,100,jumping
1783087531430397000,0.2092202,-0.9347788041636348,3.706484282162785,1.9044921435862776,1.206702470779419,-2.183052062988281,0.236873909831047,-2.986923222911358,-7.609032403695583,-5.4176832201361655,100,jumping
1783087531440359200,0.2191824,-1.6567007473275064,4.732095157635212,1.9754630378663536,1.2734657526016235,-2.2419121265411377,0.039503738284111,-3.115541711778939,-7.670528782665729,-5.256118447217345,100,jumping
1783087531450322200,0.2291454,-1.9338719673275944,5.469653645870089,1.951795746552944,1.341030478477478,-2.281181812286377,-0.2463104426860809,-3.224435509479046,-7.741302108547091,-5.083860430848598,100,jumping
1783087531460285200,0.2391084,-1.7983958676502108,5.408690935385227,1.9050825106948608,1.320043683052063,-2.263434410095215,-0.5579489469528198,-3.306491276875138,-7.820999914640188,-4.906065238618851,100,jumping
1783087531470248000,0.2490712,-1.414536251039803,4.886065822163224,1.8809435102164744,1.2355284690856934,-2.2532155513763428,-0.8368282914161682,-3.35950185931176,-7.905752666035294,-4.731090656767785,100,jumping
1783087531480211000,0.2590342,-0.9937909651026128,4.166694148004055,1.801478928357363,1.124230146408081,-2.5108838081359863,-1.0549129247665403,-3.393433939529955,-7.992329125726222,-4.55825279468447,100,jumping
1783087531490174000,0.2689972,-0.3673109251305461,3.5642081470817324,1.2113812843650578,0.9949241280555724,-2.977891445159912,-1.1947901248931885,-3.424955159214139,-8.077877995935083,-4.380406749050319,100,jumping
1783087531500136200,0.2789594,0.8623442670717835,2.895257331126928,0.7756482726544142,0.8540494441986084,-3.320692777633667,-1.2110991477966309,-3.461848135064542,-8.159058149540424,-4.197111498099566,100,jumping
1783087531510099200,0.2889224,2.2490172364130614,2.1973861256361005,1.005309261199832,0.7326679229736328,-3.3058111667633057,-0.9867365956306458,-3.507170208825171,-8.23002612121105,-4.017065312072634,100,jumping
1783087531520062000,0.2988852,3.4481542484939096,1.5556640928685663,1.5022002137064934,0.8181731700897217,-3.330487966537476,-0.5418281555175781,-3.5728023724257945,-8.286962060397864,-3.838193138261139,100,jumping
1783087531530025000,0.3088482,3.9563127372071145,1.2217904501765966,1.4767217813178897,1.0964510440826416,-3.286107301712036,-0.0124399177730083,-3.673647303704917,-8.332420912280678,-3.639434360718727,100,jumping
1783087531539988000,0.3188112,3.7530025799706577,1.5465379526048897,1.826835780192912,1.4108132123947144,-2.9508659839630127,0.4828618764877319,-3.803879072988033,-8.367468260264395,-3.418530679124593,100,jumping
1783087531549951000,0.3287742,3.037173692984879,2.130491102492809,2.556728556105494,1.623929738998413,-2.756767511367798,0.8214795589447021,-3.952506915183365,-8.391927578738331,-3.1817648270100354,100,jumping
1783087531559914200,0.3387374,2.326950078660249,2.7737738087058066,2.0725053619921208,1.6585441827774048,-2.890246152877808,0.9449058175086976,-4.113323792344332,-8.406282851827145,-2.9300784691393376,100,jumping
1783087531569876200,0.3486994,1.7804431545913215,3.4874639300972223,1.3072913895905016,1.4801506996154783,-3.2156569957733154,0.8633393049240112,-4.274902009266615,-8.412187107434868,-2.6703403222382067,100,jumping
1783087531579839000,0.3586622,1.5319342577129602,4.1197015106827015,1.1630971459284425,1.1576671600341797,-3.698681116104126,0.6377412676811218,-4.425625654697418,-8.412803193506598,-2.410176497270912,100,jumping
1783087531589802000,0.3686252,1.4202628119930625,4.478360635063052,1.092509405747056,0.840192437171936,-4.119884490966797,0.3202576041221618,-4.555170610760152,-8.413829613944888,-2.1513453822121025,100,jumping
1783087531599765000,0.3785882,1.234743455252051,4.579983272716403,1.243218438130617,0.646754264831543,-4.17169713973999,0.0118187796324491,-4.652915237936377,-8.421329614311457,-1.897882954579592,100,jumping
1783087531609728000,0.3885512,0.5447647565767169,4.247416036447882,2.104356544283032,0.5901447534561157,-3.614710092544556,-0.2165387570858001,-4.713818034927547,-8.43711930411756,-1.6629256131917238,100,jumping
1783087531619691000,0.3985142,0.3310240984797477,3.4308068078517917,3.6453976530373096,0.6257096529006958,-2.7889647483825684,-0.4073550403118133,-4.737103341186046,-8.461323771047592,-1.4615863176368176,100,jumping
1783087531629653000,0.4084762,1.2158549226477742,2.5358026724547145,3.572286824119091,0.7447724342346191,-2.2322325706481934,-0.507827639579773,-4.732039043533802,-8.492725456005335,-1.2852258343853056,100,jumping
1783087531639616000,0.4184392,1.4985799773827195,1.7255384289711713,1.692295500060916,0.8953875303268433,-1.7155746221542358,-0.4820930659770965,-4.713394256557524,-8.526118607041239,-1.1223257942747324,100,jumping
1783087531649579000,0.4284022,2.272708200863004,0.9429653254896402,1.451558260097355,0.9631617665290833,-1.3784167766571045,-0.3705436587333679,-4.692648113387823,-8.556078861019015,-0.9710719874899834,100,jumping
1783087531659542000,0.4383652,3.260110926233232,0.7705629322141408,1.2529179943680762,0.8856873512268066,-1.2590867280960083,-0.2079607844352722,-4.679573235498369,-8.578054545983672,-0.8300417608167976,100,jumping
1783087531669505000,0.4483282,3.4245433635428544,0.944390389856696,0.739115070027113,0.6525228023529053,-1.2882661819458008,-0.0637482106685638,-4.677758295030892,-8.59027339156568,-0.7043988536939024,100,jumping
1783087531679468000,0.4582912,3.6622906279101968,0.9846376445710658,0.4768973812699317,0.3353247344493866,-1.3297208547592163,0.0900891199707984,-4.687008938457072,-8.593111245340108,-0.6006477891771123,100,jumping
1783087531689431300,0.4682545,3.8069597956076255,0.639189883941412,0.3082148122351616,0.0482380911707878,-1.1222600936889648,0.3506922125816345,-4.712267882876098,-8.584199624609946,-0.5257882534280419,100,jumping
1783087531699393000,0.4782162,4.019384402669966,-0.3894955766707658,0.5989204904604702,-0.2219372540712356,-0.6831968426704407,0.6653232574462891,-4.760089664497971,-8.559878837823867,-0.4902836631961166,100,jumping
1783087531709356000,0.4881792,4.489324219886958,-2.2565713050544263,0.7204010172069072,-0.5193716287612915,-0.367780327796936,0.9998738169670104,-4.833490708534419,-8.518233991271257,-0.4974412068005651,100,jumping
1783087531719319000,0.4981422,4.734390575096011,-4.506066388112306,0.011980981705524,-0.7883799076080322,-0.2171581089496612,1.2699023485183716,-4.931313077121973,-8.459432842734456,-0.5390044029517099,100,jumping
1783087531729282000,0.5081052,4.389527920877933,-6.677113957399129,-0.0151257460046559,-0.9192484617233276,-0.0399500429630279,1.4863520860671997,-5.047933961942792,-8.385857318913937,-0.6051221581121906,100,jumping
1783087531739245000,0.5180682,2.979702039486169,-9.922703314065933,0.8804606462597846,-0.8618996739387512,0.2086158990859985,1.6272554397583008,-5.177579748031497,-8.300314293923973,-0.6839862533275037,100,jumping
1783087531749208000,0.5280312,0.6396651002377272,-14.079195217007396,2.0592010592609644,-0.6835866570472717,0.3536622822284698,1.60467791557312,-5.309107110083103,-8.20977536034286,-0.7637884696431457,100,jumping
1783087531759170000,0.5379932,-1.335762281793356,-18.10780191379189,2.970496988767385,-0.602022111415863,-0.0873983725905418,1.3926655054092407,-5.430999797827005,-8.123670025295018,-0.8249932452555745,100,jumping
1783087531769133000,0.5479562,-2.832103248077631,-21.29128231254816,1.9537334366172552,-0.5941969752311707,-1.131057620048523,0.8171939253807068,-5.526802935546637,-8.057140328332782,-0.8410282881248742,100,jumping
1783087531779096000,0.5579192,-5.00300819402337,-24.26356443116665,0.6300795257687568,-0.5902862548828125,-2.238259792327881,0.0467528328299522,-5.57562220377326,-8.028230460190773,-0.7939327018857002,100,jumping
1783087531789059000,0.5678822,-8.658333366835118,-28.777071782934662,0.9376935956317932,-0.7604089379310608,-2.92082142829895,-0.7596909403800964,-5.566965434587002,-8.042906051275134,-0.7006677043415606,100,jumping
1783087531799022000,0.5778452,-13.834641779756543,-33.24386414527893,1.996449711793661,-1.3002721071243286,-2.820211172103882,-1.6941455602645874,-5.488360684427619,-8.103249168556928,-0.6209807119034231,100,jumping
1783087531808985000,0.5878082,-19.49011318079233,-36.31965573821068,3.0726807674348358,-2.076105833053589,-2.436431407928467,-2.768051862716675,-5.323542462670803,-8.212793246859311,-0.6166789230562746,100,jumping
1783087531818948000,0.5977712,-24.22152795494795,-38.01859432954788,2.361426348757744,-2.5888826847076416,-2.098252058029175,-4.032848358154297,-5.058211610329151,-8.372803191551565,-0.6935655441861599,100,jumping
1783087531828910000,0.6077332,-27.764824831426143,-36.750083629250526,0.268117341255024,-2.5664141178131104,-1.6604596376419067,-5.275961399078369,-4.677803595477342,-8.579784730777144,-0.8220757503736764,100,jumping
1783087531838873000,0.6176962,-29.37735472085476,-33.012402829313274,-0.7793079642057419,-2.220081329345703,-1.394059419631958,-6.134051322937012,-4.194738923749328,-8.811756334352493,-0.9630724401034414,100,jumping
1783087531848836000,0.6276592,-28.41338226317167,-28.0190240489006,-2.362178043907881,-1.7257795333862305,-1.1563539505004885,-6.705378532409668,-3.6352521065980192,-9.042617930859327,-1.0892132868111133,100,jumping
1783087531858799000,0.6376222,-25.64023038575649,-22.38668802425861,-3.5937124739855526,-1.1681898832321167,-0.944224774837494,-6.993382930755615,-3.0209082023605704,-9.254034237661957,-1.1863114327773452,100,jumping
1783087531868762000,0.6475852,-22.383028917229176,-16.969626735413073,-3.901687120789289,-0.6423051357269287,-0.7449223399162292,-7.009978771209717,-2.3779548742324117,-9.431833521544933,-1.2474923160575329,100,jumping
1783087531878725000,0.6575482,-19.315564423137904,-12.205408592808244,-3.3823166254490613,-0.2583300471305847,-0.5443912744522095,-6.8235063552856445,-1.7299170824468135,-9.5682089081496,-1.2756028505153951,100,jumping
1783087531888687000,0.6675102,-16.12185839844346,-7.940690708425641,-2.0313969604037703,-0.0968660563230514,-0.4272156655788421,-6.491476058959961,-1.0975387782163917,-9.65998293648362,-1.2847218303859234,100,jumping
1783087531898650000,0.6774732,-13.178554537028074,-3.645850072979927,-0.721032739239186,-0.0416259765625,-0.3604218661785126,-6.066880226135254,-0.4962272644335403,-9.709006202849745,-1.2881509280517696,100,jumping
1783087531908612900,0.6874361,-10.473168620371816,0.681146865183115,0.320806217456609,0.1039434745907783,-0.3625313341617584,-5.6518731117248535,0.0663215067048091,-9.721801387014985,-1.2855201411567627,100,jumping
1783087531918576000,0.6973992,-7.663411059615015,5.040875275602937,0.4710375493258237,0.464105874300003,-0.4854239821434021,-5.232384204864502,0.5882458055805414,-9.707474170976877,-1.2606753304965794,100,jumping
1783087531928539100,0.7073623,-5.149216992378235,9.046793755239248,0.1023293246179819,0.9989344477653505,-0.6602627038955688,-4.731868267059326,1.0630631657060234,-9.675271691030265,-1.1955815846215934,100,jumping
1783087531938502100,0.7173253,-3.381879987597465,12.266280702400207,-0.1185971533298492,1.5552934408187866,-0.809275209903717,-4.102540493011475,1.4805845942258833,-9.633706339454651,-1.081646212557703,100,jumping
1783087531948464000,0.7272872,-2.448980567439645,14.521447985875604,0.0230634802013635,1.9003376960754397,-0.903710126876831,-3.369241237640381,1.8300795844197275,-9.58954278807938,-0.9283712021436542,100,jumping
1783087531958427100,0.7372503,-2.0151054585553703,15.95098628347516,0.4838625441074371,1.9301291704177856,-0.9665483236312866,-2.63696026802063,2.1083296856977043,-9.546945755368473,-0.7623379785738885,100,jumping
1783087531968390000,0.7472132,-2.400764379672706,17.1323927008152,1.052879333082959,1.66642427444458,-0.8756165504455566,-1.9752825498580933,2.320110149637609,-9.508656648984552,-0.6107001774402335,100,jumping
1783087531978353000,0.7571762,-2.7022672001138326,18.055281452959772,1.6889473586767911,1.2255438566207886,-0.7806553840637207,-1.431342840194702,2.476015435490012,-9.476109885644911,-0.4930438120918348,100,jumping
1783087531988316200,0.7671394,-2.697891761508584,18.6824722715497,1.580842373266816,0.786399245262146,-0.7516674399375916,-0.986775517463684,2.5861118869781494,-9.45027986333966,-0.4178588437806814,100,jumping
1783087531998279200,0.7771024,-2.572814598509669,19.1709221434474,1.115920676472783,0.4702549874782562,-0.8626542687416077,-0.6172190308570862,2.657958687309921,-9.431908924868702,-0.3804523289175704,100,jumping
1783087532008242200,0.7870654,-2.316479538050294,19.276959090411665,0.5136742929926141,0.2812949419021606,-1.12419855594635,-0.3141427934169769,2.6977564446911213,-9.42093043473661,-0.37226686703749,100,jumping
1783087532018204000,0.7970272,-2.0471058400586246,19.33116063619852,-0.1153839999696239,0.1870865374803543,-1.4436774253845217,-0.0055024148896336,2.708354118812084,-9.41736894286275,-0.3851536384763196,100,jumping
1783087532028167000,0.8069902,-1.999841692319512,19.212558806693558,-0.5197761169990525,0.1183847039937973,-1.7844765186309814,0.4009953141212463,2.683984232187271,-9.423116546604035,-0.4141118758046999,100,jumping
1783087532038130000,0.8169532,-2.343836916053295,18.75715546435117,-0.8789788832694292,-0.0270550418645143,-1.9875625371932983,0.940501034259796,2.613333948163688,-9.440867891871928,-0.4592299148932099,100,jumping
1783087532048093200,0.8269164,-2.921739095339179,18.481634057384728,-0.8932143293708562,-0.3100438714027405,-1.907552480697632,1.5027284622192385,2.4883883025899527,-9.471205162468552,-0.5240034158378839,100,jumping
1783087532058056200,0.8368794,-2.9700936686635018,18.38625995873213,-0.8671370543062686,-0.7138855457305908,-1.6400190591812134,1.966940760612488,2.3133342257618903,-9.51005657891035,-0.6145747173186391,100,jumping
1783087532068019200,0.8468424,-2.8825743751645088,18.54919660452604,-1.073876674534753,-1.1402373313903809,-1.2405123710632324,2.280820369720459,2.1010176091186703,-9.550741055998206,-0.7344934746410697,100,jumping
1783087532077981000,0.8568042,-3.0329040528416638,19.07320528106093,-1.1453221275240182,-1.469669222831726,-0.8615719676017761,2.4113433361053467,1.8679751614414155,-9.586779753106832,-0.8801723308376967,100,jumping
1783087532087944000,0.8667672,-2.6691265625342724,19.69535050669909,-1.1575059017926457,-1.5817049741744995,-0.7602519989013672,2.40952730178833,1.6292945617467165,-9.614116088321804,-1.0414187585223464,100,jumping
1783087532097907000,0.8767302,-2.077237943471968,20.295264026784896,-1.7092881359159946,-1.4252617359161377,-0.853910505771637,2.369396924972534,1.391149237972498,-9.633137015134096,-1.1990684768892823,100,jumping
1783087532107870200,0.8866934,-1.6323479579679667,20.37680015422106,-2.0399105217270552,-1.0138773918151855,-1.0074156522750854,2.312030076980591,1.1545547969020902,-9.647334467312692,-1.329030489320308,100,jumping
1783087532117833200,0.8966564,-1.2746616241425277,20.071004020500183,-2.0039000277996064,-0.4751551747322082,-1.169028639793396,2.2520980834960938,0.9201702139008788,-9.660716511455178,-1.4121771206930278,100,jumping
1783087532127796200,0.9066194,-0.8409560996714979,19.418630829858778,-1.8363875985227525,0.0666937008500099,-1.338369369506836,2.212693691253662,0.6874280643444508,-9.67572644906044,-1.4415734571777283,100,jumping
1783087532137758000,0.9165812,-0.5972782031461596,18.678167852354047,-1.5380783134259282,0.5257763266563416,-1.3081605434417725,2.269463539123535,0.4528779155179858,-9.692730775353311,-1.4199579838275909,100,jumping
1783087532147721000,0.9265442,-0.7205100305393338,17.760490697377918,-0.5186690690726041,0.855400562286377,-1.0077499151229858,2.456918239593506,0.2090485182253643,-9.71013725270629,-1.3564397436410187,100,jumping
1783087532157684000,0.9365072,-0.5431860360179096,16.739762333250045,0.6715034230470657,0.9928165674209596,-0.8210802674293518,2.673130750656128,-0.0511745672150747,-9.724452778306604,-1.2660140611760318,100,jumping
1783087532167647200,0.9464704,-0.0404867625586688,15.73639660733342,0.7418534089498221,0.8759317994117737,-0.8365511298179626,2.726961851119995,-0.3244793895440176,-9.730842187082766,-1.1729594184469432,100,jumping
1783087532177610200,0.9564334,0.1772886309470981,15.04746157249212,0.6143911043800413,0.7943984270095825,-0.6997228264808655,2.661975145339966,-0.5944780875662341,-9.727844174310563,-1.0890416565712542,100,jumping
1783087532187573200,0.9663964,0.7115024751540273,14.73692029007077,0.891253696822375,0.7972280383110046,-0.7873645424842834,2.536639213562012,-0.8542567491408437,-9.717328040993213,-1.0070734943933783,100,jumping
1783087532197535000,0.9763582,0.3645396337863058,13.72530345315933,1.0377846398036927,0.9354047775268556,-0.9131277799606324,2.333531856536865,-1.0982129511509091,-9.701849316832424,-0.9156805743314326,100,jumping
1783087532207498000,0.9863212,-0.2466150459557771,12.48565176759958,1.3938146577894688,1.1451069116592407,-0.9779544472694396,2.108638286590576,-1.320688923563063,-9.68398691240549,-0.8040930075027048,100,jumping
1783087532217461000,0.9962842,-0.2127420024484395,11.54406883637905,1.4478361708343028,1.3844945430755615,-0.9002401828765869,1.9688658714294436,-1.5235031139761208,-9.664472064596414,-0.6688227325957268,100,jumping
1783087532227424300,1.0062475,-0.0268134803846478,10.375134947121143,1.704311516547203,1.5989540815353394,-0.6697267889976501,1.9711759090423584,-1.7167637324936686,-9.64161082896888,-0.5122984745947644,100,jumping
1783087532237387300,1.0162105,0.3128938368968665,9.010043110468985,1.9479642055660484,1.763656735420227,-0.5179232954978943,2.0607852935791016,-1.912519821088761,-9.61233446560204,-0.3401083723630756,100,jumping
1783087532247350000,1.0261732,0.9351936685748398,7.785622896310687,1.69390994952023,1.843017339706421,-0.6662099957466125,2.0894038677215576,-2.112542042695731,-9.575138415151834,-0.1557847830115817,100,jumping
1783087532257312000,1.0361352,1.6329532303847372,7.119412318974733,0.8187643608033657,1.890641927719116,-1.0505375862121582,2.036951065063477,-2.3097639660596845,-9.530673250481486,0.0407538981954101,100,jumping
1783087532267275000,1.0460982,1.746527733246982,6.5770210135310885,0.6069254446744918,1.9111783504486084,-1.4967361688613892,1.9383115768432615,-2.496212128083408,-9.480289801678062,0.2518442701124586,100,jumping
1783087532277238000,1.0560612,1.2794307382404804,5.667189895880222,1.1090565628569573,1.8479963541030884,-1.6737197637557983,1.8573299646377563,-2.668815596888959,-9.424738594847916,0.4712665723087266,100,jumping
1783087532287201300,1.0660245,0.6763949944809079,4.026718106558919,2.4548130729854107,1.5725946426391602,-1.3958582878112793,1.91187846660614,-2.8350667740583417,-9.36354324465096,0.6759051651373505,100,jumping
1783087532297164300,1.0759875,0.3333566330805421,1.5361708723694083,4.561949018853903,0.9551799297332764,-0.943387806415558,2.1680216789245605,-3.0150121300593016,-9.294729820665715,0.8294935523495077,100,jumping
1783087532307127300,1.0859505,0.7233171969145537,-0.9027320993006228,5.33352609654665,0.0293381214141845,-0.7596062421798706,2.463339805603028,-3.22181626689136,-9.218305921676754,0.9017228491928428,100,jumping
1783087532317089300,1.0959125,1.1323422344416378,-2.553216748592257,4.35368854573369,-0.8677340745925903,-0.9261502027511596,2.5541625022888184,-3.4455896587029096,-9.13826850836575,0.8890140281368046,100,jumping
1783087532327052300,1.1058755,1.330329443089664,-3.4692958207219835,3.103697836989164,-1.3072584867477417,-1.1331076622009275,2.386882781982422,-3.661982584874332,-9.059860742083192,0.8241394049052149,100,jumping
1783087532337015300,1.1158385,1.1777876423209903,-4.3956426043659445,2.8554408690452573,-1.184813380241394,-1.2881819009780884,2.0642130374908447,-3.8530084300771352,-8.986448299869894,0.7539674789831042,100,jumping
1783087532346978300,1.1258015,0.8751023340970278,-6.394858858263492,2.594240248376131,-0.6684679985046387,-1.5776348114013672,1.7203657627105713,-4.011057011568546,-8.91935161667466,0.7259191961064935,100,jumping
1783087532356941300,1.1357645,0.0862801070928573,-9.90562592253685,1.6683751107692717,-0.042898129671812,-1.7189898490905762,1.4042712450027466,-4.137269316077232,-8.85848067612648,0.7620385572358965,100,jumping
1783087532366904300,1.1457275,-0.6017205695077776,-13.92750827950239,1.4004770382881164,0.4837222695350647,-1.5848222970962524,1.0428190231323242,-4.231873014879226,-8.805435899159312,0.8520177380423992,100,jumping
1783087532376866300,1.1556895,-1.4561699916765094,-18.14184213055968,2.204110465455055,0.8701156377792358,-1.116423726081848,0.5784595608711243,-4.2908115260601045,-8.764644454565644,0.9697034756157548,100,jumping
1783087532386829300,1.1656525,-3.169788265751302,-22.982951789665226,4.340292473065853,1.1226868629455566,-0.7152658700942993,0.1621869802474975,-4.313439245192706,-8.738574193763732,1.0963408006034792,100,jumping
1783087532396792000,1.1756152,-5.970383738148212,-29.60684269092083,6.925354558730125,1.1235535144805908,-0.6947928667068481,-0.3620249629020691,-4.298646749730408,-8.728816185337305,1.2246578953716902,100,jumping
1783087532406755300,1.1855785,-9.441917693185806,-36.6324825012207,9.539368013590574,0.7837169170379639,-1.0792135000228882,-1.1705561876296997,-4.221641251461207,-8.748413450732826,1.34661831458956,100,jumping
1783087532416718300,1.1955415,-13.297815707224606,-41.09242192893028,12.450924153089522,0.0282015036791563,-1.7112404108047483,-1.9575899839401243,-4.065084662093222,-8.807232719448209,1.4415804714404046,100,jumping
1783087532426681300,1.2055045,-15.21194018703103,-44.93075739827156,14.286612809562682,-1.1741955280303955,-2.3356082439422607,-2.7077858448028564,-3.828995978587866,-8.907208174416422,1.4733695482805371,100,jumping
1783087532436643300,1.2154665,-14.912878914523125,-46.00947617907524,13.876078536516427,-2.458479642868042,-2.5639665126800537,-3.3065052032470703,-3.5233716943025586,-9.04399155730009,1.4008736363902687,100,jumping
1783087532446606300,1.2254295,-14.342780686986446,-44.03848707175255,13.454672156322,-3.5040674209594727,-2.515887498855591,-3.749443769454956,-3.1688594604685902,-9.200928670418262,1.21310511248298,100,jumping
1783087532456569000,1.2353922,-13.441790462917089,-41.52720801517963,11.467889267539976,-4.064538478851318,-2.255068778991699,-4.187781810760498,-2.7762323077738285,-9.359303707385063,0.9307838893085718,100,jumping
1783087532466532400,1.2453556,-13.068929794704914,-38.1974112660408,9.145014475494625,-4.0967326164245605,-2.136319875717163,-4.738216876983643,-2.341049769552797,-9.504213113579151,0.5998356325440108,100,jumping
1783087532476495400,1.2553186,-13.129199846750495,-33.68444401249885,6.653866352802515,-3.769839286804199,-2.3224895000457764,-5.384675979614258,-1.8490752306602891,-9.626961541369557,0.2700154116949997,100,jumping
1783087532486458400,1.2652816,-13.704860384589432,-28.78250783650875,4.51012589263618,-3.415895462036133,-2.59399676322937,-6.00422477722168,-1.296908235003054,-9.720442958143352,-0.0371587278142338,100,jumping
1783087532496420400,1.2752436,-14.339450081259011,-24.43070028221607,3.721329969117045,-3.235607385635376,-2.840557098388672,-6.491163730621338,-0.6935925052583217,-9.77645418370068,-0.3320380247626453,100,jumping
1783087532506383000,1.2852062,-14.76498786216974,-19.74868228391409,3.4683588321328163,-3.20996356010437,-2.971869945526123,-6.69424295425415,-0.0627522699159104,-9.78589128960967,-0.6346713836036623,100,jumping
1783087532516346000,1.2951692,-14.898385109746457,-15.02657660537362,3.367731050735712,-3.2301082611083984,-2.8471031188964844,-6.499612808227539,0.5586131761219352,-9.74398457725048,-0.9555727319978176,100,jumping
1783087532526309400,1.3051326,-14.782989967328309,-10.529221931505203,3.2634108445614576,-3.2071282863616943,-2.459718704223633,-5.904111862182617,1.1308032613713297,-9.65554407725334,-1.2892417920283972,100,jumping
1783087532536272400,1.3150956,-14.353116203039884,-6.179620947346091,2.856407083728909,-3.169513940811157,-1.962923526763916,-5.153915882110596,1.6274857587590812,-9.533224688529968,-1.6245904757089913,100,jumping
1783087532546235400,1.3250586,-13.762417086023092,-1.1149386796981096,1.9487363589823248,-3.0904369354248047,-1.4702986478805542,-4.422957420349121,2.048336989288777,-9.389770741841197,-1.9511304145120083,100,jumping
1783087532556197400,1.3350206,-13.21397890163064,4.544602747255564,0.9871896671414376,-2.9076247215271,-1.0623998641967771,-3.778699636459351,2.4019134035773573,-9.235891262727977,-2.258211619607359,100,jumping
1783087532566160100,1.3449833,-12.700050889605285,9.18664646256566,0.0393570278763771,-2.536196708679199,-0.6629711985588074,-3.2815301418304443,2.702462722685933,-9.081151951915023,-2.5297756672501563,100,jumping
1783087532576123100,1.3549463,-12.04963818538189,12.92473525878191,-0.8131956207603216,-1.944360613822937,-0.4287693202495575,-2.963002920150757,2.9673832406610248,-8.934200226238369,-2.7468323180273173,100,jumping
1783087532586086400,1.3649096,-11.384382132291794,16.40314319124222,-1.810215777042508,-1.2027515172958374,-0.2220520824193954,-2.8190929889678955,3.2128228130966425,-8.800954369831084,-2.8967843945637344,100,jumping
1783087532596049400,1.3748726,-11.09702766419053,19.55718005337119,-2.095102393725514,-0.4037362933158874,0.1164169982075691,-2.721137046813965,3.4523411787897347,-8.685559227412938,-2.968634409765899,100,jumping
1783087532606012400,1.3848356,-10.677968723905083,21.820536488521096,-1.720757039913535,0.3039281964302063,0.5124170780181885,-2.556261777877808,3.689443423251808,-8.59017752997577,-2.960954668918252,100,jumping
1783087532615974100,1.3947973,-9.998823261672255,22.789881871414185,-1.1983493688344955,0.8597218990325928,0.9082016348838806,-2.2673652172088623,3.9160546688377855,-8.515950264248252,-2.8833155489206312,100,jumping
1783087532625937200,1.4047604,-9.58790320417881,23.04560084580183,-0.1268529404997825,1.2503067255020142,1.2167184352874756,-1.9462677240371704,4.124335307963192,-8.461471070563793,-2.750228974728286,100,jumping
1783087532635900200,1.4147234,-9.162709122139216,23.381331514537333,0.9878802797541022,1.487323522567749,1.382354497909546,-1.6476019620895386,4.309961047688127,-8.422658232566715,-2.5794258333429694,100,jumping
1783087532645863200,1.4246864,-8.566785548472405,23.821462468945978,1.584615462064743,1.5885661840438845,1.473798155784607,-1.334490418434143,4.47060578315258,-8.39562058803737,-2.3869724395550787,100,jumping
1783087532655826400,1.4346496,-7.606834601390362,24.046629653203485,1.6863925596274434,1.529315948486328,1.4946860074996948,-0.8930120468139648,4.598519923143089,-8.380619418260455,-2.1884265741109847,100,jumping
1783087532665789400,1.4446126,-6.432087057417631,23.62863337371349,1.1275861259557307,1.367834210395813,1.5302319526672363,-0.2876429855823517,4.68012970033735,-8.383104220813513,-1.997578861954063,100,jumping
1783087532675751200,1.4545744,-5.364319878739118,22.8189442997694,0.4853818626292049,1.2105684280395508,1.6520020961761477,0.4614036381244659,4.703818911221624,-8.411237843886017,-1.8153608848460017,100,jumping
1783087532685714200,1.4645374,-4.464299668745697,21.75557272570133,0.065083005285263,1.0996439456939695,1.7805910110473633,1.3021245002746582,4.65942710404843,-8.472093002343177,-1.6382232797421514,100,jumping
1783087532695677200,1.4745004,-3.888809519037604,20.78193461405039,-0.4332067081034183,1.0787897109985352,1.85127854347229,2.1253411769866943,4.541678676502406,-8.56761615407765,-1.4627015854023395,100,jumping
1783087532705640200,1.4844634,-3.5854432428121563,20.25045925489664,-0.7640114647440612,1.173607587814331,1.802782654762268,2.830865859985352,4.35308385783881,-8.693048706385493,-1.285275226484984,100,jumping
1783087532715603500,1.4944267,-3.296922361280024,19.8300173358202,-1.0017629668951034,1.3947336673736572,1.6147257089614868,3.4148478507995605,4.100177018262445,-8.840034334331751,-1.101243697148934,100,jumping
1783087532725566500,1.5043897,-3.143874949076772,19.30387515438795,-1.08202074495852,1.663082480430603,1.361099362373352,3.89689564704895,3.789710554642975,-8.99923237811923,-0.9068128658082336,100,jumping
1783087532735528200,1.5143514,-3.0743121680289507,18.525770136231184,-0.7413064425915479,1.8787882328033447,1.096879482269287,4.254938125610352,3.4300007521659133,-9.160401429718732,-0.7017988272633403,100,jumping
1783087532745491200,1.5243144,-3.087186554910242,17.712742273253202,-0.1228880919894203,1.9940577745437624,0.8577143549919128,4.4723005294799805,3.0336160005033013,-9.312685164073107,-0.4913741618465632,100,jumping
1783087532755454200,1.5342774,-3.181680071336031,17.127625340282915,0.5968629003435373,2.005400896072388,0.7241625785827637,4.567857265472412,2.613505797599256,-9.447774602520465,-0.2820254916308448,100,jumping
1783087532765417200,1.5442404,-3.105034930811822,16.577546987468004,1.242137072634697,1.9788191318511963,0.6886842250823975,4.535537242889404,2.182968454835564,-9.560292728197574,-0.0766095668873284,100,jumping
1783087532775380500,1.5542037,-2.790070571251213,16.018109270155428,1.636688179129362,1.9776886701583865,0.7033571004867554,4.363036632537842,1.7562240746140478,-9.647288290083408,0.126043158486858,100,jumping
1783087532785343200,1.5641664,-2.1522302022226154,15.402839190983771,1.8443313971340656,2.042463779449463,0.6080406904220581,4.075882434844971,1.3471800401255487,-9.70808265826404,0.3296040025487542,100,jumping
1783087532795305200,1.5741284,-1.433650701354444,14.640116450875995,1.8429449112117289,2.2155308723449707,0.3718138337135315,3.682415246963501,0.9687268126033246,-9.743675365170835,0.541080770834349,100,jumping
1783087532805268200,1.5840914,-0.9499713317941874,13.896424574452638,1.7928490471780298,2.494654417037964,0.1260613054037094,3.267932415008545,0.6297469328135251,-9.755953247463705,0.7714906415183097,100,jumping
1783087532815231200,1.5940544,-0.698539898532629,12.956194226884842,2.042327812001854,2.799277067184448,-0.0884660109877586,2.908344268798828,0.32998240740709,-9.746918292614817,1.0291334966406225,100,jumping
1783087532825194200,1.6040174,-0.3245456962458789,11.829720007693767,2.198967988000065,3.011568546295166,-0.319173514842987,2.6042842864990234,0.0653732204034924,-9.718334003165364,1.3115306345954536,100,jumping
1783087532835157500,1.6139807,0.0926945955113507,10.666619646894931,2.264240086116642,3.067593812942505,-0.4983845949172973,2.3466858863830566,-0.1676630167286843,-9.67272609820068,1.6064353719457982,100,jumping
1783087532845120300,1.6239435,0.5049010212872177,9.71614029251337,2.7501798748895525,2.935385465621948,-0.6488462686538696,2.1399710178375244,-0.3727710536999628,-9.61408627770543,1.8975639517582952,100,jumping
1783087532855082200,1.6339054,0.8826493154104799,8.936861554402112,3.209947549921274,2.6481494903564453,-0.7412407994270325,1.9894936084747317,-0.5552422018514945,-9.547831890553235,2.1681778590694067,100,jumping
1783087532865045200,1.6438684,1.3122875904425977,7.970365131199359,3.726521108019352,2.244061231613159,-0.7940781712532043,1.9452483654022217,-0.7233139089789241,-9.479460365116596,2.405627747925371,100,jumping
1783087532875008300,1.6538315,1.9252957160316408,6.758466544961929,4.139469748730957,1.7498630285263062,-0.8715898990631104,2.0319724082946777,-0.8890554561257362,-9.4136367705971,2.600656837420165,100,jumping
1783087532884971300,1.6637945,2.501297760784626,5.471280954810977,4.376088593590259,1.1858103275299072,-1.016205906867981,2.230994462966919,-1.0625321275692432,-9.353777637439965,2.747409533393383,100,jumping
1783087532894934300,1.6737575,3.0258851139903067,4.312628805592656,4.770578909808397,0.6088794469833374,-1.285311937332153,2.5020551681518555,-1.2505845829844473,-9.301546514943242,2.843879610589146,100,jumping
1783087532904896300,1.6837195,3.616968261888623,3.589488718810677,5.272405565151572,0.1283248215913772,-1.748682141304016,2.7872486114501958,-1.4517118432238698,-9.255665638256072,2.8975045255318284,100,jumping
1783087532914859300,1.6936825,4.377792474898696,2.9103333197057246,5.263397498309612,-0.2108757346868515,-2.1495466232299805,3.0803651809692383,-1.6648625726036723,-9.211571644985677,2.923276387909054,100,jumping
1783087532924822300,1.7036455,4.727798921746016,1.5617752692252396,5.653469998085498,-0.4214276373386383,-2.3460514545440674,3.3024909496307373,-1.8917174176871776,-9.164411834403872,2.9334836014077066,100,jumping
1783087532934785300,1.7136085,4.522698373961449,0.1357645612299442,6.796059485775232,-0.4914704859256744,-2.449774980545044,3.401231288909912,-2.127449542839825,-9.110728175011277,2.939213961753249,100,jumping
1783087532944748300,1.7235715,3.806232650376856,-1.1661463043659923,8.06079709727466,-0.4735897481441498,-2.7190475463867188,3.423269033432007,-2.3608824511393904,-9.048563687521218,2.952979159994423,100,jumping
1783087532954711300,1.7335345,3.05688494014889,-3.2271605505287644,9.336485141855478,-0.5214230418205261,-3.280125379562378,3.451743602752685,-2.581336635400355,-8.978329875344038,2.9827298628747463,100,jumping
1783087532964673300,1.7434965,2.083008051306009,-6.129457278773188,10.748172140944003,-0.7462702393531799,-4.007234573364258,3.500164270401001,-2.782114643810689,-8.903883998429775,3.025071167258918,100,jumping
1783087532974636300,1.7534595,0.2715715002968907,-9.054262775945665,12.894342458605763,-1.1807236671447754,-4.570811748504639,3.527962446212769,-2.9617557561680674,-8.832216938579082,3.064358052508533,100,jumping
1783087532984599300,1.7634225,-2.2032617396712304,-11.566615014708042,15.596214229661223,-1.7293092012405396,-4.624910831451416,3.5758650302886963,-3.13101985141784,-8.768986283162235,3.0776603094130754,100,jumping
1783087532994562300,1.7733855,-5.0171337500095365,-14.10970258347392,18.68689242607951,-2.1251931190490723,-4.247280597686768,3.656939744949341,-3.309300489076972,-8.712874519839882,3.050364306208491,100,jumping
1783087533004525300,1.7833485,-7.948143362519144,-17.150173856699464,21.639989367234705,-2.1570839881896973,-4.194901943206787,3.897778034210205,-3.509908109356463,-8.649744986709951,3.0054747786462306,100,jumping
1783087533014488300,1.7933115,-10.784822832471132,-21.65388228350877,22.56291903591156,-2.0305891036987305,-4.562714099884033,3.765052795410156,-3.712068219774961,-8.57276345383823,2.9830633326128124,100,jumping
1783087533024450300,1.8032735,-14.0644196726799,-24.461050996816155,22.56676518994569,-2.0730104446411133,-5.035027027130127,2.8255650997161865,-3.854533447687328,-8.506804834762216,2.991187894618511,100,jumping
1783087533034413300,1.8132365,-17.55218463155031,-23.967104281067847,22.47169854980707,-2.4353346824646,-5.572322845458984,1.2785533666610718,-3.870981893663108,-8.493930155619978,3.0064933080390093,100,jumping
1783087533044376300,1.8231995,-19.15405284171104,-23.501997875356672,20.41385182776451,-2.956394672393799,-5.8227219581604,-0.1696373224258422,-3.74439169575274,-8.554419987896084,2.9953052668094635,100,jumping
1783087533054339000,1.8331622,-18.99772830753326,-24.447803392708305,17.68436256646514,-3.3098223209381104,-5.622279167175293,-1.113766074180603,-3.5164465712144968,-8.671936944773792,2.9330060470238326,100,jumping
1783087533064302000,1.8431252,-18.184922562873364,-25.74236272649765,14.890705661159751,-3.3276619911193848,-5.156562328338623,-1.6523972749710083,-3.239292302349209,-8.814946654826402,2.82384220021069,100,jumping
1783087533074265300,1.8530885,-17.285462617111204,-26.95545841356516,11.38601294836402,-3.131563425064087,-4.807914733886719,-1.9818131923675537,-2.940752423366904,-8.959960105916856,2.690994695471227,100,jumping
1783087533084227300,1.8630505,-17.928751168543098,-28.1605835601449,7.976554048967361,-2.9784696102142334,-4.318597316741943,-2.3235714435577397,-2.6280142154231667,-9.09888108535111,2.5444658713817594,100,jumping
1783087533094190300,1.8730135,-20.02095959439277,-28.820567225790025,6.509287785997986,-3.118070602416992,-3.843111991882324,-2.7799596786499023,-2.295691893826425,-9.23541663095355,2.367962472528219,100,jumping
1783087533104153300,1.8829765,-21.05813523545265,-28.04002942752838,5.246248210588098,-3.436853408813477,-3.4733104705810547,-3.3531641960144043,-1.9297917122766373,-9.373411143192648,2.141360287031531,100,jumping
1783087533114116000,1.8929392,-20.924632773935794,-25.007221236276624,4.0698637130633,-3.605290412902832,-3.165465831756592,-4.00986385345459,-1.5171164816789329,-9.507292374894025,1.8655116939373315,100,jumping
1783087533124079000,1.9029022,-19.68696612471342,-20.476919401574133,2.9745290207624437,-3.50258469581604,-2.991442441940308,-4.573482036590576,-1.0543030092105268,-9.623434536287188,1.564727104768157,100,jumping
1783087533134042400,1.9128656,-17.88180821558237,-15.646238782024383,1.3297335230231284,-3.2003633975982666,-2.8175394535064697,-4.856637001037598,-0.5568370332948863,-9.708805127319692,1.264682666441798,100,jumping
1783087533144004400,1.9228276,-15.677207920783758,-11.07819319986105,-0.1123240644097328,-2.8701932430267334,-2.551818370819092,-4.73973274230957,-0.0588315893408376,-9.757495800730586,0.978874916325882,100,jumping
1783087533153967400,1.9327906,-13.308001585674283,-6.932426104551554,-1.2973533484220503,-2.614645004272461,-2.154222249984741,-4.24181604385376,0.4002613008350134,-9.77281670398116,0.7086794536225497,100,jumping
1783087533163930000,1.9427532,-11.094331849235296,-3.0515064619809387,-2.228167048346996,-2.451589345932007,-1.5910885334014893,-3.516562461853028,0.7896874655313789,-9.764355165106055,0.4518187253212556,100,jumping
1783087533173893000,1.9527162,-9.011705490723251,0.58876376504004,-2.879801403319836,-2.384739398956299,-0.9940731525421144,-2.73935604095459,1.097821686811,-9.742843590521812,0.205328310392145,100,jumping
1783087533183856000,1.9626792,-7.416036135202646,4.144855825683474,-3.48950040436089,-2.373706340789795,-0.4717721343040466,-2.0758628845214844,1.3308734868384895,-9.71586322913766,-0.0340163404185674,100,jumping
1783087533193818400,1.9726416,-6.408371835309267,7.427160755807161,-3.8746190811216823,-2.3025600910186768,-0.0564651153981685,-1.607158660888672,1.5071416156314312,-9.686538934975864,-0.2643571484712884,100,jumping
1783087533203781400,1.9826046,-5.850714571672678,10.272450817716122,-4.052194493120909,-2.041217565536499,0.2753338515758514,-1.313912868499756,1.647693557268381,-9.655644615018367,-0.4732957765813916,100,jumping
1783087533213744400,1.9925676,-5.689812062054872,12.28992578188181,-4.080406442126631,-1.6114939451217651,0.5780766010284424,-1.0975931882858276,1.765565611194074,-9.625028527480364,-0.6418568381283432,100,jumping
1783087533223707100,2.0025303,-5.688103504571318,13.40890876853466,-3.7151597560495135,-1.1276021003723145,0.8502559065818787,-0.977250874042511,1.869501348095387,-9.596741175150871,-0.7602019894585013,100,jumping
1783087533233670100,2.0124933,-5.875147002139687,14.5389555855155,-3.262354028984904,-0.6631596088409424,1.179977536201477,-0.9057409167289734,1.967211196219176,-9.57173474418819,-0.8260443617437034,100,jumping
1783087533243633200,2.0224564,-6.216874280941486,15.695191321241854,-2.263069434902072,-0.283027172088623,1.5188487768173218,-0.8541163206100464,2.0623358501553533,-9.5501746542871,-0.8434069999549537,100,jumping
1783087533253595400,2.0324186,-6.55398500585854,16.627061836743355,-1.334309160375595,0.0037184618413448,1.8721624612808228,-0.7921179533004761,2.154938584398478,-9.531694994744658,-0.8206218252383172,100,jumping
1783087533263558400,2.0423816,-6.984807449173927,17.221504231941697,-0.5696762027323246,0.2525351941585541,2.243872165679932,-0.6437135934829712,2.2400986014202235,-9.516813067433237,-0.7632956446249037,100,jumping
1783087533273521200,2.0523444,-7.259994509619474,17.266526445972918,0.1957271547615528,0.4725614786148071,2.5628483295440674,-0.3674522042274475,2.3059426542058588,-9.50781727555096,-0.6741187931772321,100,jumping
1783087533283484200,2.0623074,-7.418558931678533,16.938850488877296,0.7316834587216376,0.625152051448822,2.816707134246826,-0.0406008474528789,2.341803948920965,-9.506500347733498,-0.559301048788242,100,jumping
1783087533293447200,2.0722704,-7.227627194499969,16.744868716478347,1.010109939479828,0.6634966135025024,2.892854690551758,0.2368925511837005,2.3461494307793678,-9.512135138750075,-0.4304136433187872,100,jumping
1783087533303410400,2.0822336,-6.887423764264583,16.933108145833014,1.008083986610174,0.5552154183387756,2.77284836769104,0.4285812675952911,2.3243743829533456,-9.522305819630622,-0.3055354734906926,100,jumping
1783087533313372400,2.0921956,-6.543975068497657,17.54036326085329,1.026290089908242,0.3308772146701813,2.570758581161499,0.5570042133331299,2.284390601480752,-9.53474970614016,-0.2011883793095126,100,jumping
1783087533323335400,2.1021586,-5.96689940316379,18.20549305721521,1.1719950303941964,0.0622923448681831,2.3053674697875977,0.6850895285606384,2.229700103133172,-9.548958264234662,-0.1273746445526369,100,jumping
1783087533333298400,2.1121216,-5.096068755036592,18.75226652326584,1.00436175121665,-0.1742763072252273,2.0415923595428467,0.8737921714782715,2.158084042817354,-9.565863221806287,-0.0855865718707442,100,jumping
1783087533343261400,2.1220846,-3.995094303283095,19.263856447732447,0.4012473892629146,-0.3282016813755035,1.7997262477874756,1.1463147401809692,2.063721459294856,-9.586792028066515,-0.0696502629684517,100,jumping
1783087533353224400,2.1320476,-2.598869077220559,19.456256503897905,-0.4873486326575278,-0.3678733110427856,1.50693941116333,1.4952157735824585,1.9389672446399928,-9.612795653373002,-0.0703505795578006,100,jumping
1783087533363186400,2.1420096,-0.8313368421286345,19.41742086954713,-1.7528303405225276,-0.2684601843357086,1.1293731927871704,1.9044212102890012,1.777046497890353,-9.643990417581795,-0.0770881259182002,100,jumping
1783087533373149400,2.1519726,0.5198413277223706,19.26022305966616,-2.8458231458723544,-0.0173925943672657,0.7769686579704285,2.3542263507843018,1.5729901984617114,-9.679375034695862,-0.0760006914410972,100,jumping
1783087533383112400,2.1619356,1.3475798530980945,18.8461921766758,-3.270666514778137,0.3449576497077942,0.5119540095329285,2.819197654724121,1.3234512278832495,-9.716800217726826,-0.0512884713517501,100,jumping
1783087533393075500,2.1718987,1.9665975943654772,18.114554310661557,-3.157079883086681,0.735813319683075,0.2703349590301513,3.275378465652466,1.0276507838021964,-9.75265595948398,0.0060117659654089,100,jumping
1783087533403038500,2.1818617,2.4733155288815496,17.29623184840679,-2.90631297814846,1.0815781354904177,0.0731358453631401,3.654373168945313,0.6898738500613719,-9.78188146944642,0.0962680700839497,100,jumping
1783087533413001200,2.1918244,2.684319747751951,16.59130078753233,-2.498214992338419,1.3822221755981443,-0.0794804319739341,3.969438314437866,0.3177098588764667,-9.799100899794697,0.2169896499555557,100,jumping
1783087533422963500,2.2017867,2.6699121599540114,15.766055248016118,-2.0519757841825483,1.6230432987213137,-0.1434397101402282,4.1888580322265625,-0.081031885974761,-9.799554488781094,0.3640639425659552,100,jumping
1783087533432926500,2.2117497,2.6221751340061425,14.902343491983412,-1.38905664960742,1.7852158546447754,-0.1457993984222412,4.269005298614502,-0.4938794226657599,-9.779799402475357,0.5310340451270341,100,jumping
1783087533442889500,2.2217127,2.7102929779201745,14.21673438669443,-0.6700327659726143,1.8970226049423216,-0.2351359277963638,4.1976318359375,-0.9052147098965942,-9.738828509661555,0.711482236083597,100,jumping
1783087533452852500,2.2316757,2.791153105790913,13.50638948407769,-0.1181926641821861,1.9605826139450075,-0.4750005900859833,3.974916934967041,-1.298518008287251,-9.678360304695367,0.9019947980020194,100,jumping
1783087533462815500,2.2416387,2.8367133722215887,12.654190471184252,0.5788159331299364,1.9805089235305784,-0.7688412666320801,3.649483442306519,-1.6587665938161311,-9.602481764629482,1.1005670399963856,100,jumping
1783087533472777500,2.2516007,2.8005390660345557,11.372540887850525,1.8674736416600644,1.9377639293670652,-1.1530600786209106,3.2635672092437744,-1.9767840573370457,-9.51628582868874,1.304993341781199,100,jumping
1783087533482740500,2.2615637,2.8666704113289714,9.942034622001648,3.2188799211785195,1.7323426008224487,-1.6796785593032837,2.859092712402344,-2.245973046411574,-9.425932773068547,1.5092187141664326,100,jumping
1783087533492703500,2.2715267,3.081319416442513,8.818932509592175,3.985851258641482,1.346289038658142,-2.2238857746124268,2.471040725708008,-2.4633164051756262,-9.33877471409738,1.6999287714183329,100,jumping
1783087533502666500,2.2814897,3.373313819304109,7.64896752372086,4.429654764083027,0.903731644153595,-2.5818440914154053,2.267340898513794,-2.63799521895051,-9.259070478263498,1.8657495943464335,100,jumping
1783087533512629500,2.2914527,3.729060563369095,5.28501662492156,5.010037654268741,0.5431671738624573,-2.690755605697632,2.386871576309204,-2.7987632885336877,-9.182776343134044,2.00347727234289,100,jumping
1783087533522592300,2.3014155,4.020776441550255,1.686840157264471,5.714904417735338,0.2577995955944061,-2.4758410453796387,2.7200381755828857,-2.9772035006687045,-9.101382839038967,2.1145842160478234,100,jumping
1783087533532554500,2.3113777,4.634463050922752,-1.6085037026524542,6.433475881427526,0.015914523974061,-2.052886247634888,3.094555616378784,-3.1913580002635715,-9.009032472121715,2.196124727398157,100,jumping
1783087533542517500,2.3213407,5.462403820872306,-4.053054909342527,7.268929511225223,-0.198505625128746,-1.8590127229690552,3.2762539386749268,-3.4346646523237228,-8.905262301045656,2.2516129519946877,100,jumping
1783087533552480500,2.3313037,5.716747999775409,-5.237939816448092,8.224539798754453,-0.3936892449855804,-2.1337099075317383,3.020231008529663,-3.670752751307189,-8.799412985607981,2.2948342540837823,100,jumping
1783087533562443500,2.3412667,5.180859500354528,-5.02626515097022,9.128376644426584,-0.4906008839607239,-2.772777318954468,2.296354293823242,-3.848186709009111,-8.709419410949945,2.346882567359507,100,jumping
1783087533572406500,2.3512297,4.196893763695657,-4.838026306137443,9.517414540457724,-0.3485962748527527,-3.372255802154541,1.4603246450424194,-3.936524333153665,-8.647314544692636,2.428604426626116,100,jumping
1783087533582368300,2.3611915,3.292055924287438,-6.495131250351667,9.74325743201971,0.0820329040288925,-3.7443714141845694,0.9688231348991394,-3.949564139729738,-8.60435160127878,2.5566537373036144,100,jumping
1783087533592331500,2.3711547,2.7961209573313592,-10.520670376259089,9.8837858466506,0.5639813542366028,-3.79625940322876,0.8960815668106079,-3.9278301545664656,-8.559770116752386,2.733656317850947,100,jumping
1783087533602294500,2.3811177,2.116644071187079,-15.10250132266879,10.399917506200074,0.893235445022583,-3.652477741241455,0.963229477405548,-3.9018206840410823,-8.502531395226717,2.941621315155923,100,jumping
1783087533612257500,2.3910807,0.8304863627791405,-17.299152119767665,11.700575741386412,1.1269935369491575,-3.557746171951294,0.9196548461914062,-3.872618262693286,-8.434773617774248,3.166668964686989,100,jumping
1783087533622220500,2.4010437,-0.5737570423051714,-18.640223029363156,12.958850294351578,1.3402578830718994,-3.626788854598999,0.7270108461380005,-3.824989957816898,-8.362480534979701,3.4071637741968037,100,jumping
1783087533632182300,2.4110055,-2.376728255046904,-20.520800628876685,14.029965614414214,1.4929052591323853,-3.835059404373169,0.4374989569187164,-3.742401690979302,-8.290123154777287,3.665878131008148,100,jumping
1783087533642145300,2.4209685,-4.325041127920151,-22.76172895911932,14.999227995198964,1.3913605213165283,-4.076272487640381,0.1343481242656707,-3.616076866006851,-8.224177979704738,3.931574601791799,100,jumping
1783087533652108500,2.4309317,-5.748839420562982,-25.84299401502609,16.065975767701865,0.8831790685653687,-4.248093128204346,-0.1438599228858947,-3.44698900410682,-8.177563528046011,4.173257159781456,100,jumping
1783087533662071600,2.4408948,-6.647718936088681,-29.06289129655361,16.65778430726528,0.0675585865974426,-4.241384029388428,-0.322374016046524,-3.246169494642317,-8.164850761467218,4.3552252537816765,100,jumping
1783087533672034600,2.4508578,-7.236253568547964,-32.015638693618776,16.856263391083477,-0.8749054670333862,-4.111134052276611,-0.3963319063186645,-3.032776042547822,-8.193930140957235,4.453327316093445,100,jumping
1783087533681997300,2.4608205,-8.223621514865755,-34.10340826023817,16.693168924379346,-1.7872791290283203,-3.957286357879639,-0.4304198324680328,-2.8191850220546124,-8.265582587760687,4.461249049003422,100,jumping
1783087533691959300,2.4707825,-9.742702136224509,-34.795171211981774,16.245791067582367,-2.5719363689422607,-3.841801643371582,-0.559157133102417,-2.607487267962098,-8.375129004150628,4.385044637984037,100,jumping
1783087533701922300,2.4807455,-11.476300537532568,-33.84267642612457,15.403036759382486,-3.2209694385528564,-3.838051080703736,-0.9161431789398192,-2.3814886013165117,-8.517933547019958,4.236000908464193,100,jumping
1783087533711885600,2.4907088,-13.60398827304244,-31.082400396895405,13.864948070693016,-3.652670621871948,-3.798647403717041,-1.5124770402908323,-2.12067990257442,-8.68708541406691,4.025874349211156,100,jumping
1783087533721848600,2.5006718,-15.575170272588728,-27.647534669041637,12.16457856976986,-3.8049004077911377,-3.645289421081543,-2.1493091583251958,-1.8155621065065264,-8.868530945497751,3.771377610094845,100,jumping
1783087533731811600,2.5106348,-16.7263440487504,-23.915766892540454,10.139772532063722,-3.7352373600006095,-3.478900909423828,-2.7329859733581543,-1.4680924846604466,-9.045357584956289,3.492362515793741,100,jumping
1783087533741773300,2.5205965,-16.998925310611725,-19.481345352447036,7.662523170864581,-3.539698362350464,-3.312953472137451,-3.153018951416016,-1.0855272187095135,-9.204481978985667,3.2046088192418214,100,jumping
1783087533751736300,2.5305595,-16.593111636346578,-14.523312610703703,5.245487747609615,-3.2777352333068848,-3.102475881576538,-3.331322431564331,-0.6865900060851127,-9.33730171893537,2.9178415033787486,100,jumping
1783087533761699300,2.5405225,-15.479279456585644,-9.463056342804432,3.103187257118523,-3.0031723976135254,-2.8273439407348637,-3.244635343551636,-0.2952169451046735,-9.440364034003018,2.638707458873093,100,jumping
1783087533771662600,2.5504858,-13.637169242632387,-4.973959209671616,0.946886006064713,-2.772118091583252,-2.5153324604034424,-2.923715829849243,0.0638412661624373,-9.515900044241548,2.3693824223287403,100,jumping
1783087533781625600,2.5604488,-11.52912962592244,-1.1057125861912964,-1.1643338481165468,-2.582698106765747,-2.136602640151977,-2.469176769256592,0.3727486957376822,-9.569732756716013,2.1098941585354507,100,jumping
1783087533791588400,2.5704116,-9.669723993775248,2.554360073408484,-2.8601158751189706,-2.417442798614502,-1.708552598953247,-1.9812467098236084,0.6235320768866688,-9.608126492518188,1.861584437491,100,jumping
1783087533801550300,2.5803735,-8.027298732298613,5.91216301984787,-4.024119906759262,-2.2706398963928223,-1.2826402187347412,-1.5360701084136963,0.8177586178269237,-9.636194064617156,1.6264767278470098,100,jumping
1783087533811513300,2.5903365,-6.8242334408581256,8.948931346902251,-4.784481178432703,-2.0980148315429688,-0.8594431281089783,-1.1989481449127195,0.9647242258984596,-9.657165540975331,1.4067115487635136,100,jumping
1783087533821476400,2.6002996,-5.889364912584424,11.587676507437228,-5.237261186534166,-1.8681100606918333,-0.5548403263092041,-0.9101803302764891,1.0753732697680591,-9.672315179312228,1.2084182698410004,100,jumping
1783087533831439600,2.6102628,-5.086536372059584,13.787512948834896,-5.191779538297653,-1.631783127784729,-0.2946221530437469,-0.6148256659507751,1.153910142323002,-9.683401805993912,1.034697487443313,100,jumping
1783087533841402600,2.6202258,-4.529356955067813,15.67722078026533,-4.812001638042927,-1.3718799352645874,0.0044361841864883,-0.2629688084125519,1.198124547102675,-9.692613870975377,0.8877555525083094,100,jumping
1783087533851364400,2.6301876,-3.9918116283506153,17.031434080028532,-4.384295280921459,-1.0693262815475464,0.3030128180980682,0.1188964024186134,1.20361401136443,-9.701884388145803,0.7714445373542607,100,jumping
1783087533861327400,2.6401506,-3.30486513697803,17.919037583780288,-4.104428538227081,-0.7426443099975586,0.5558695197105408,0.4749402403831482,1.1716312385831027,-9.712014152494072,0.6888005217414349,100,jumping
1783087533871290400,2.6501136,-2.6355340895339845,18.65391720819473,-3.76007500257492,-0.4126754999160766,0.7831996083259583,0.8002341985702515,1.1051900966871528,-9.723094933956862,0.6405799500603229,100,jumping
1783087533881253400,2.6600766,-2.0679349853366613,19.047174183225632,-3.16109204133749,-0.1020119115710258,0.9569301605224608,1.0467734336853027,1.0096977054171263,-9.734477328714728,0.6251834242902696,100,jumping
1783087533891216600,2.6700398,-1.4478595517098902,19.235245270276067,-2.635404617935419,0.1410503834486007,1.0254815816879272,1.2097115516662598,0.8934521567147224,-9.745077048662305,0.6368447090547531,100,jumping
1783087533901178400,2.6800016,-0.846516510277614,19.276956752324104,-2.300595155698061,0.3144852817058563,1.009588360786438,1.3166766166687012,0.7640661175407469,-9.75401964905262,0.6676003511939197,100,jumping
1783087533911141400,2.6899646,-0.2866108831923454,19.06795510544777,-1.9706570988893508,0.4273753464221954,0.930643916130066,1.434573769569397,0.6238938959363848,-9.760943895357846,0.7107087674930691,100,jumping
1783087533921104400,2.6999276,0.2265015016011893,18.46687955584526,-1.6874562433362006,0.4571303129196167,0.8474611639976501,1.5935215950012207,0.4706601673807948,-9.765903563591838,0.7589549120068549,100,jumping
1783087533931067400,2.7098906,0.7234994216136634,17.57408549771309,-1.383530579662323,0.3998670279979706,0.7896808385848999,1.7675232887268066,0.3010693791936151,-9.768988085603713,0.804133997100219,100,jumping
1783087533941030400,2.7198536,1.2170071614228188,16.727365793013572,-1.1542226423382758,0.2996504008769989,0.7807052135467529,1.9638930559158323,0.1132710355367977,-9.76996599072516,0.8398337445780635,100,jumping
1783087533950992400,2.7298156,1.5334160207033156,15.9525539711833,-0.8948153348267078,0.1663448512554168,0.7669426202774048,2.1613574028015137,-0.0942014472771901,-9.768180860874056,0.8626436153445393,100,jumping
1783087533960955400,2.7397786,1.9560005047664044,15.21740079052448,-0.9193676653463392,0.0374590381979942,0.667834997177124,2.334226608276367,-0.3195637431148439,-9.762661220669743,0.8710343540057539,100,jumping
1783087533970918400,2.7497416,2.366554213165492,14.726474883902071,-1.2638017919540403,-0.0235748291015625,0.4927465319633484,2.4305343627929688,-0.5568369967622682,-9.752223413285613,0.8686090265549719,100,jumping
1783087533980881400,2.7597046,2.694445128186047,14.422432315850257,-1.5252105024158953,0.0060927858576178,0.2194220721721649,2.4729092121124268,-0.7980879218690097,-9.735783735138178,0.8648596839588135,100,jumping
1783087533990844400,2.7696676,2.859675437875092,14.063194514799116,-1.8623662355184556,0.1008030921220779,-0.0501055940985679,2.4891490936279297,-1.0391844235990195,-9.712629654043912,0.8690721870873123,100,jumping
1783087534000807400,2.7796306,2.890117045629024,13.468237740337848,-2.033240688574314,0.1964662373065948,-0.2630471587181091,2.495932340621948,-1.2785197608754038,-9.682555418297648,0.8853709954593331,100,jumping
1783087534010769400,2.7895926,2.951533929622173,12.71932257630825,-2.0669220089018343,0.2561838030815124,-0.4063921570777893,2.492389440536499,-1.5157608292862772,-9.645766195082665,0.9121686937529592,100,jumping
1783087534020732400,2.7995556,3.040291825005412,12.147687056201695,-2.148316682040692,0.2708335816860199,-0.4970554709434509,2.486712455749512,-1.7502660429924726,-9.602799744537473,0.9450808563388884,100,jumping
1783087534030695400,2.8095186,3.1544553798019885,11.729343570709228,-2.341965423092991,0.2670571208000183,-0.5722347497940063,2.4791388511657715,-1.9820447543442248,-9.554060555809736,0.9807120686251668,100,jumping
1783087534040658400,2.8194816,3.337548678439856,11.282291877126694,-2.648127321386337,0.2922175824642181,-0.6233477592468262,2.4660239219665527,-2.210777375998348,-9.499659688058497,1.0194712036736309,100,jumping
1783087534050621400,2.8294446,3.447877769640088,10.87266595109701,-2.8287539376497266,0.3632708787918091,-0.709699273109436,2.437175273895264,-2.435429450340569,-9.439437566807866,1.0658731816254556,100,jumping
1783087534060583400,2.8394066,3.4783813367143277,10.196853432679177,-2.73883576631546,0.4095715284347534,-0.8040129542350769,2.345011711120605,-2.651782921284437,-9.374444577893614,1.1217024747446178,100,jumping
1783087534070546400,2.8493696,3.5140266505911946,9.652608023801443,-2.359318562823534,0.4266815483570099,-0.8472855091094971,2.1692416667938232,-2.852478804369271,-9.307693931657075,1.1834658340878783,100,jumping
1783087534080509400,2.8593326,3.7788162356629966,9.27909502916038,-1.9186311435759067,0.4757737517356872,-0.6971713900566101,1.9774564504623413,-3.034369156958163,-9.24153599061668,1.2478051813989877,100,jumping
1783087534090472400,2.8692956,4.813593875670433,8.39940945892632,-1.3053168746471404,0.6238307952880859,-0.5359728932380676,1.8995816707611084,-3.2037925344228744,-9.174681884005665,1.3157917991712689,100,jumping
1783087534100435500,2.8792587,6.141846220225095,6.589608692425489,-0.8890683156073093,0.8967152833938599,-0.7069968581199646,1.7626241445541382,-3.3638241064250467,-9.103969348400833,1.404570152820647,100,jumping
1783087534110397400,2.8892206,6.383914854922891,5.47968521054089,-0.7012428738810121,1.2332289218902588,-0.9190484285354614,1.4258077144622805,-3.496507360513508,-9.033726768395304,1.528589477329701,100,jumping
1783087534120360400,2.8991836,6.73420187227726,4.930234634235501,0.4020433619461953,1.480523705482483,-1.1677727699279783,1.087808609008789,-3.5921108840078118,-8.967605652233958,1.6879453420273958,100,jumping
1783087534130323500,2.9091467,6.827181769269704,3.291221811550856,1.8681170541301368,1.50020432472229,-1.454889893531799,0.8784782290458679,-3.655463119977712,-8.905775511264801,1.869531158711761,100,jumping
1783087534140286500,2.9191097,6.84541066892147,1.1268395453721285,3.0280004987090825,1.2371891736984253,-1.7526524066925049,0.7944059371948242,-3.697782797051966,-8.848138145810365,2.0511475166648627,100,jumping
1783087534150249500,2.9290727,6.51526686040759,-0.9877882175564764,4.032561571890115,0.7164634466171265,-2.010014057159424,0.6904056668281555,-3.723777654530108,-8.799408893954753,2.20777541770339,100,jumping
1783087534160211200,2.9390344,5.852293365296721,-2.483970778408646,5.043542448985576,0.0146014234051108,-2.376893758773804,0.4786795675754547,-3.726092653474212,-8.769075715011358,2.3216204080700877,100,jumping
1783087534170174500,2.9489977,5.5618578823149205,-3.555844807884097,5.265424620223045,-0.6656994223594666,-2.8354079723358154,0.2122803032398224,-3.694979722329974,-8.764268606990575,2.388538081436604,100,jumping
1783087534180137500,2.9589607,5.740658452194928,-4.68364530724287,4.914034610062838,-1.0227653980255127,-3.295364618301392,0.1271057575941085,-3.634658816879988,-8.779399540627002,2.4252407954119146,100,jumping
1783087534190100500,2.9689237,6.318111134147643,-7.251576225364208,4.447465730583668,-1.1421140432357788,-3.5738425254821777,0.2666316330432892,-3.5670240812852976,-8.799301341927052,2.4533719342663884,100,jumping
1783087534200063500,2.9788867,7.111969017231464,-10.97239239974022,4.189382072891295,-1.1623117923736572,-3.677005052566528,0.5351080894470215,-3.512736318519712,-8.81359114856422,2.480265494149924,100,jumping
1783087534210025200,2.9888484,7.372012284559011,-14.60257027181387,4.303816845844686,-1.1165614128112793,-3.58285927772522,0.6953001022338867,-3.477993214179575,-8.819903400450944,2.506639414073527,100,jumping
1783087534219988200,2.9988114,6.559593493390083,-18.304111252355572,5.365735590755939,-1.0968656539916992,-3.56095027923584,0.5688223242759705,-3.4454856138065457,-8.825336531415582,2.532286481027305,100,jumping
1783087534229951500,3.0087747,5.3837452946990725,-21.544953122234343,7.024298917084932,-1.1360455751419067,-3.8159897327423096,0.1817564815282821,-3.3866818349212404,-8.840308475098013,2.5592417079702017,100,jumping
1783087534239914500,3.0187377,3.873618671907484,-24.830821882319448,8.982471797454357,-1.1899490356445312,-4.26598596572876,-0.3121014237403869,-3.277162891060114,-8.87220408105254,2.591248665344715,100,jumping
1783087534249877500,3.0287007,1.985668205538392,-29.06924621853828,11.44733280172348,-1.4301462173461914,-4.581581115722656,-0.8402870297431946,-3.111241968758404,-8.923889844626189,2.6181527466222643,100,jumping
1783087534259839200,3.0386624,-0.0922775939419865,-33.38392494239807,14.574339033585789,-2.011595726013184,-4.809121131896973,-1.4563331604003906,-2.886707821707428,-9.002124592429398,2.6074998351827263,100,jumping
1783087534269802200,3.0486254,-2.604939921566844,-36.20103052783012,16.491062297713757,-2.8969974517822266,-4.693357467651367,-2.17637300491333,-2.600802383370697,-9.11417217798531,2.517552437753975,100,jumping
1783087534279765200,3.0585884,-5.155439812415838,-37.81039932287931,17.55996461790204,-3.865772247314453,-4.511046886444092,-2.9351134300231934,-2.2562601932786404,-9.257360751736163,2.319690024529397,100,jumping
1783087534289728500,3.0685517,-7.7257140787929295,-37.60983115782737,17.3615673671484,-4.70733642578125,-4.32108736038208,-3.814727306365967,-1.8470523465305568,-9.41917277741432,2.009469206234068,100,jumping
1783087534299691800,3.078515,-9.930105699276924,-34.536994907569884,15.933707816416025,-5.183619499206543,-4.073668003082275,-4.663363933563232,-1.3684313563384114,-9.576919453349708,1.606363475753367,100,jumping
1783087534309654800,3.088478,-11.715687970322367,-30.56947074825764,14.000322171300647,-5.223124980926514,-3.607696056365967,-5.303591251373291,-0.8350163343589753,-9.703545014834404,1.1464447018131614,100,jumping
1783087534319616500,3.0984397,-12.888410730469229,-28.29578814940452,11.656145063507555,-4.909975528717041,-2.931910276412964,-5.713220596313477,-0.2689248947782441,-9.779950793644783,0.6712994249075651,100,jumping
1783087534329579500,3.1084027,-14.30429810385704,-27.35383813843727,9.036190528160333,-4.412686347961426,-2.120004653930664,-6.021006107330322,0.3146788206174969,-9.799234170785546,0.2153036513636819,100,jumping
1783087534339542500,3.1183657,-16.333412067890166,-24.844298619008065,7.138761162567138,-3.787191390991211,-1.386465311050415,-6.389036655426025,0.9195417067389936,-9.761492176890371,-0.1952771642380394,100,jumping
1783087534349505500,3.1283287,-18.276561566650862,-21.68778922928572,5.291018495684862,-3.13262152671814,-0.7842389345169067,-6.754635810852051,1.5524639816530048,-9.66772375986874,-0.5434666065249592,100,jumping
1783087534359468800,3.138292,-20.222729536449908,-18.37620384414196,3.8639012877523897,-2.465280532836914,-0.2447501271963119,-6.969121932983398,2.2068103720635173,-9.519836214646697,-0.8204218456868082,100,jumping
1783087534369430800,3.148254,-21.63956383529901,-14.836255109047888,2.836305375942588,-1.786159634590149,0.2226447910070419,-6.890011310577393,2.8591461533039806,-9.324980582022668,-1.0200040684413163,100,jumping
1783087534379393500,3.1582167,-22.28031673077345,-11.479618283778429,1.5713295717731115,-1.1289339065551758,0.6405924558639526,-6.597203254699707,3.483887532915175,-9.095849754831194,-1.1394752281267195,100,jumping
1783087534389356500,3.1681797,-22.10238359137773,-7.7990265677630894,0.3623603900510818,-0.5635647177696228,0.960475206375122,-6.167947292327881,4.064469160543382,-8.84576206432879,-1.1844695312377065,100,jumping
1783087534399319600,3.1781428,-21.2214553276062,-4.095083786776661,-0.8588473648667335,-0.0855347365140914,1.2145154476165771,-5.628678321838379,4.590284009717404,-8.587301682278513,-1.165300720387325,100,jumping
1783087534409282600,3.1881058,-20.03740804036856,-0.9021154287070036,-1.775730154594779,0.3222104012966156,1.4268547296524048,-5.013673782348633,5.053894916173816,-8.332918924930691,-1.091326260377094,100,jumping
1783087534419244800,3.198068,-19.33142484009266,1.9180518823832275,-2.194630104926228,0.6445109248161316,1.6485477685928345,-4.422447204589844,5.455529843449592,-8.091051950284838,-0.9708040572687984,100,jumping
1783087534429207600,3.2080308,-18.83279025878906,4.748811314636469,-2.373358194091916,0.9207428693771362,1.8094128370285036,-3.9129748344421382,5.801598950847983,-7.864714553204179,-0.8112294352538884,100,jumping
1783087534439170600,3.2179938,-18.216831612831356,7.27173287820816,-2.922117281001806,1.238057017326355,1.8685474395751955,-3.477822780609131,6.100375561195611,-7.653308767795562,-0.6186079914227127,100,jumping
1783087534449133600,3.2279568,-17.481795336550473,9.02323518499732,-3.623199849754572,1.5042319297790527,1.843549132347107,-2.9728124141693115,6.353097691854834,-7.459823254480957,-0.3995077059887349,100,jumping
1783087534459096600,3.2379198,-16.73831038087606,10.04900680398941,-3.751148184275627,1.628965139389038,1.814621090888977,-2.41548228263855,6.556518908250332,-7.29073685388565,-0.1662143888229504,100,jumping
1783087534469058800,3.247882,-15.906453898787497,10.815268239617348,-3.822346457570791,1.5232086181640625,1.873918890953064,-1.7890119552612305,6.709128221297264,-7.152140284100175,0.0698839301604311,100,jumping
1783087534479021600,3.2578448,-15.152666160285472,11.407893940782548,-3.875252702850103,1.217068433761597,2.043515682220459,-1.0713154077529907,6.806926916748285,-7.053139811643958,0.2989137903286143,100,jumping
1783087534488984600,3.2678078,-14.660075535321235,12.187954769182204,-3.993983127170801,0.8478454947471619,2.303943634033203,-0.3397346138954162,6.847346020898223,-7.0010665100574485,0.5189485801337287,100,jumping
1783087534498947600,3.2777708,-13.980124601924418,13.114599658989906,-4.053398608213663,0.5168029069900513,2.53964900970459,0.3599582314491272,6.831337135383486,-6.997714277020096,0.7315937346115708,100,jumping
1783087534508910600,3.2877338,-12.99090430573821,14.1549878323555,-4.4953579470932485,0.2411119639873504,2.715120553970337,1.0258312225341797,6.760892895326018,-7.04166506242752,0.9357786288559437,100,jumping
1783087534518872800,3.297696,-12.100163088482615,15.241541544568538,-4.9544379321217535,0.0422816835343837,2.8338255882263184,1.6742498874664309,6.6368935906916855,-7.130434063726663,1.1308974424608051,100,jumping
1783087534528835800,3.307659,-11.19322476966381,16.047640485066175,-5.174821389234066,-0.0634715110063552,2.7419254779815674,2.3000190258026123,6.460186193698644,-7.260470894959568,1.312226654035598,100,jumping
1783087534538798600,3.3176218,-10.219930356884,16.558124494117497,-5.565244602143764,-0.0903015285730362,2.5585968494415283,2.864387989044189,6.234034090057016,-7.425293208369612,1.4738539707966147,100,jumping
1783087534548761600,3.3275848,-9.243480110421777,17.161233010852335,-5.539333915817737,-0.0802911221981048,2.451759099960327,3.346433401107788,5.962526010385155,-7.615550407287478,1.619277463992685,100,jumping
1783087534558724600,3.3375478,-8.32859697007835,17.658645941406487,-5.075940159243345,-0.043350413441658,2.4095680713653564,3.794559955596924,5.647090526181459,-7.823115299358964,1.7548831813991068,100,jumping
1783087534568686800,3.34751,-7.522121012961864,17.82212853064537,-4.626191481661796,0.0384659692645072,2.368992567062378,4.215672969818115,5.2872834008097644,-8.041366420617699,1.884531743966788,100,jumping
1783087534578649900,3.3574731,-6.496849744707346,17.761417749094964,-4.284993195170164,0.1883915513753891,2.325410842895508,4.615004062652588,4.8828582582935685,-8.263022381883859,2.0125969828657806,100,jumping
1783087534588612600,3.3674358,-5.315885225915909,17.69903757302761,-3.8678593777284025,0.3914254605770111,2.197554111480713,4.967894554138184,4.435867354987561,-8.47971575230658,2.1419389637023207,100,jumping
1783087534598575600,3.3773988,-3.8057024890229103,17.486026105988024,-3.545689909094572,0.6069968342781067,1.928030490875244,5.278706073760986,3.9518981356352567,-8.682995514404773,2.2712265840031205,100,jumping
1783087534608538600,3.3873618,-2.4311992654249077,16.96896271854639,-3.3649767835915085,0.7888774871826172,1.5740960836410522,5.533272743225098,3.438110993385315,-8.865786615225673,2.397420329941809,100,jumping
1783087534618500600,3.3973238,-1.4241229945525526,16.306989340388775,-2.7967770831525325,0.8453905582427979,1.186118721961975,5.723306179046631,2.902243244491517,-9.023378392860293,2.5151588206157087,100,jumping
1783087534628463900,3.4072871,-0.8323799214407801,15.367714101588724,-1.975867234753072,0.7069428563117981,0.7849317193031311,5.829598903656006,2.3534464559197423,-9.154612324923276,2.61242589340806,100,jumping
1783087534638427000,3.4172502,-0.4211655571758746,14.289740001672506,-1.0898998077705502,0.3932770788669586,0.3935173749923706,5.846238136291504,1.801721943333,-9.260867883074283,2.675908770020306,100,jumping
1783087534648389600,3.4272128,-0.1448166133441031,13.341173202913998,-0.3956842021778226,-0.0171062760055065,0.0162441805005073,5.789703845977783,1.2569231383562087,-9.34435222196877,2.696960618138313,100,jumping
1783087534658352600,3.4371758,0.0170734460063278,12.544490910059212,-0.041966333591938,-0.4476558268070221,-0.3030709624290466,5.71267032623291,0.7233334904622286,-9.407338547235726,2.673792216257751,100,jumping
1783087534668314600,3.4471378,0.2914766443314961,11.609640501964092,0.1030363038435578,-0.8340968489646912,-0.6085586547851562,5.588232040405273,0.2038238789122551,-9.450370464232565,2.61139041288048,100,jumping
1783087534678277600,3.4571008,0.8661839913651347,10.727764143687486,-0.0804462863728404,-1.1619466543197632,-0.9737733602523804,5.35449743270874,-0.2926231109528802,-9.47350291801691,2.517444885726273,100,jumping
1783087534688240600,3.4670638,1.521390505736321,10.21508350137472,-0.4760132919117808,-1.4052752256393433,-1.3951351642608645,4.988640308380127,-0.7528515536304563,-9.478119471901657,2.401849544560909,100,jumping
1783087534698203600,3.4770268,2.289690023063123,9.961319168186186,-0.9452359007701278,-1.4852265119552612,-1.8439539670944212,4.50645637512207,-1.1638167654398828,-9.466617834678292,2.2801536945633587,100,jumping
1783087534708166700,3.4869899,3.082405458113551,9.611139118337633,-1.2107006086245178,-1.4246360063552856,-2.29145884513855,4.021853446960449,-1.5191414116352795,-9.442047457045316,2.170326561535895,100,jumping
1783087534718128600,3.4969518,3.635444414299726,8.853181985196471,-1.4392720483675598,-1.2441365718841553,-2.6754698753356934,3.665427923202514,-1.826625206182152,-9.406540674856304,2.0858559880830345,100,jumping
1783087534728091600,3.5069148,3.952136620566249,7.248418638116121,-1.4864720448292792,-0.9452829360961914,-2.9099929332733154,3.3648359775543213,-2.097677358780056,-9.360403193059565,2.037886176292598,100,jumping
1783087534738054700,3.5168779,4.367061529786884,5.157023866736888,-1.4183049559235572,-0.5966905951499939,-2.9626057147979736,3.04727840423584,-2.336479392897337,-9.30512788056135,2.0312210193149745,100,jumping
1783087534748017700,3.5268409,4.8475548897221685,2.859714893102646,-1.3173121406063435,-0.2568323910236358,-2.935769557952881,2.6962966918945312,-2.5419386909916994,-9.243854788953064,2.0640046601504087,100,jumping
1783087534757980700,3.5368039,5.405222967013716,0.1106067390978336,-1.1251380021512507,0.0410293713212013,-2.91033935546875,2.3231201171875,-2.7115964617341755,-9.180291540580988,2.130702845547348,100,jumping
1783087534767942700,3.5467659,6.135628076362609,-3.113827601337433,-0.7601601961433887,0.3338530361652374,-2.905687093734741,1.9006370306015012,-2.840907024519145,-9.11784940519333,2.228105235157162,100,jumping
1783087534777905700,3.5567289,6.813092453640699,-6.922375250658392,0.1000103801511228,0.6396867036819458,-2.9194588661193848,1.4919917583465576,-2.9279017096221445,-9.058022420740128,2.355841534362733,100,jumping
1783087534787868700,3.5666919,6.816014478567242,-11.435263593745232,1.8751617119446395,0.7720796465873718,-2.9148108959198,1.078135967254639,-2.9731714686736463,-9.002540187492967,2.506975221899152,100,jumping
1783087534797831700,3.5766549,6.084151571625471,-15.973884343981744,4.606455684578418,0.4842390716075897,-3.0004379749298096,0.5852890610694885,-2.97213861849457,-8.960828120923042,2.65336288395226,100,jumping
1783087534807794700,3.5866179,4.849691609489917,-20.052909560883045,7.918987995183468,-0.1971077471971511,-2.920978307723999,0.0099075976759195,-2.918319350023568,-8.94775704242587,2.7552605391547083,100,jumping
1783087534817756700,3.5965799,4.0600256251379845,-23.32206333301067,11.994725860977171,-0.7388738393783569,-2.1782593727111816,-0.6170524954795837,-2.8195301822304724,-8.970482084453105,2.7840836057960985,100,jumping
1783087534827719700,3.6065429,4.657575046440959,-26.42899825222492,16.990049930238722,-0.4664197862148285,-1.7873473167419434,-0.6848651170730591,-2.7036072165459397,-9.008028263515234,2.777825422184169,100,jumping
1783087534837682700,3.6165059,6.216454594224691,-32.43956436315775,20.286253037333488,0.0692103579640388,-2.6816694736480717,-0.4206758141517639,-2.595373928581178,-9.026960927522182,2.819289359211921,100,jumping
1783087534847645700,3.6264689,5.187299178013205,-38.68923032211065,21.586725394558904,-0.2995620369911194,-4.211407661437988,-0.7954239845275879,-2.4471355240948496,-9.042023472097515,2.902367747654021,100,jumping
1783087534857607700,3.6364309,1.3586261477693915,-36.54317457073927,24.213419467294216,-1.8416093587875368,-5.168155670166016,-1.7642358541488647,-2.1945019485019146,-9.10078370410204,2.920665913149714,100,jumping
1783087534867570700,3.6463939,-2.2635415824584664,-31.18772656524181,27.538701369357103,-3.666293621063232,-5.062439441680908,-2.641817331314087,-1.8449084663696589,-9.22415172509551,2.771590619447827,100,jumping
1783087534877533700,3.6563569,-3.211187905371189,-29.568222160625456,28.21321157300472,-4.798828125,-4.795378684997559,-3.218622922897339,-1.4425414254270492,-9.384390217846631,2.454116322892904,100,jumping
1783087534887496700,3.6663199,-1.909338268443197,-29.804906764197348,23.58195345560312,-4.931795597076416,-4.524461269378662,-3.639728307723999,-1.0148795650344342,-9.536763384050133,2.0470769062250853,100,jumping
1783087534897459700,3.6762829,0.05796893549636,-28.81423334659338,18.53293754364252,-4.345937728881836,-4.527688980102539,-4.174713134765625,-0.5582074083326384,-9.653255674055218,1.6350697841472923,100,jumping
1783087534907421700,3.6862449,0.8163847721904516,-26.65366040956974,13.66273739913106,-3.4955856800079346,-4.626206874847412,-4.870781898498535,-0.0565248970007756,-9.723837861278652,1.270496759548038,100,jumping
1783087534917384700,3.6962079,-1.406134333397448,-24.16575287623405,10.395126764792204,-2.6935150623321533,-4.459277629852295,-5.849508762359619,0.5126482378805056,-9.74601871342659,0.9605719285245984,100,jumping
1783087534927347700,3.7061709,-6.104782271721959,-21.606005264568328,9.534795883369446,-1.9709439277648928,-4.214609622955322,-7.004528522491455,1.1712301835015415,-9.7113495511055,0.6987699809614568,100,jumping
1783087534937310700,3.7161339,-11.17500639140606,-20.348308219230173,8.490208504748344,-1.2853636741638184,-3.846749782562256,-8.077762603759766,1.9226139296017584,-9.60435281919837,0.479966705712676,100,jumping
1783087534947273700,3.7260969,-15.50049409404993,-19.002458258664607,7.332540690392255,-0.6289569139480591,-3.486422300338745,-8.767491340637207,2.73835119766891,-9.411627768862246,0.3051126632350496,100,jumping
1783087534957235500,3.7360587,-18.215805192393063,-17.23770484063625,5.837592055249214,-0.1400842070579528,-3.2609081268310547,-8.900392532348633,3.5659848013654347,-9.13382964913547,0.1652697101176716,100,jumping
1783087534967198700,3.7460219,-19.923180772686003,-15.917326005935667,3.698386900424957,0.0297538619488477,-3.0997514724731445,-8.592196464538574,4.352639328941702,-8.787693321719765,0.0370163670513429,100,jumping
1783087534977161700,3.7559849,-21.37714624005556,-13.68907011026144,2.047901082089543,-0.1653591692447662,-2.8265652656555176,-7.891695499420166,5.060063375675678,-8.399686522302032,-0.106951614123769,100,jumping
1783087534987124700,3.7659479,-22.671006485664844,-10.497123496454954,0.4085018539031967,-0.6137672066688538,-2.1279098987579346,-6.871767997741699,5.660054052650928,-8.003771726238726,-0.2717329196699894,100,jumping
1783087534997087700,3.7759109,-23.05302661188841,-7.488731369057297,-1.2879250103414055,-1.0900940895080566,-1.1859174966812134,-5.656944751739502,6.143078976890444,-7.631699578055739,-0.436050224433653,100,jumping
1783087535007049500,3.7858727,-22.27444111673832,-4.030710391065478,-3.743688515919447,-1.3304738998413086,-0.2965953052043915,-4.399311065673828,6.513412172451615,-7.308676999723911,-0.5736557738877832,100,jumping
1783087535017012500,3.7958357,-20.859554444825648,0.0918973624527454,-6.634118280759453,-1.1801233291625977,0.4580113887786865,-3.349162101745605,6.789429253980517,-7.045556809169054,-0.658919178218767,100,jumping
1783087535026975700,3.8057989,-19.35368577173948,5.109546076247096,-9.278525120317935,-0.5446711182594299,0.7894636988639832,-2.641289710998535,6.999903896018862,-6.834867647597194,-0.6755179193854332,100,jumping
1783087535036938800,3.815762,-18.03257277754545,9.792543148714303,-12.094474521452188,0.3251210451126098,0.8347736597061157,-2.0690512657165527,7.163495790851115,-6.668110566732287,-0.6253207138691097,100,jumping
1783087535046901800,3.825725,-16.991106745815276,12.183049461483956,-13.23867027529478,0.9935606718063354,0.9237655997276306,-1.457465887069702,7.284864162459969,-6.544705136337876,-0.5176647143356502,100,jumping
1783087535056863500,3.8356867,-16.171656156313418,12.922902198135851,-12.84224519162178,1.248500108718872,1.159844994544983,-0.7395857572555542,7.3611425154984,-6.469032347977161,-0.3682106504492461,100,jumping
1783087535066826500,3.8456497,-15.58361544485092,13.207923254853489,-11.777770040225985,1.1458392143249512,1.489951252937317,0.1152973994612693,7.385418878620863,-6.448941746106743,-0.1926399476022459,100,jumping
1783087535076789500,3.8556127,-14.887723430478571,13.19204296415448,-10.793374387717249,0.7857587337493896,1.7692655324935913,1.096378207206726,7.348382402646541,-6.493964544659852,-0.0095628460431093,100,jumping
1783087535086752800,3.865576,-14.085631972056628,13.120865733647346,-10.010070631873608,0.2773192822933197,1.962860345840454,2.1482129096984863,7.240908700877427,-6.611629970097542,0.1612227728144265,100,jumping
1783087535096715800,3.875539,-13.260498660743236,13.395043909311294,-9.115457541620732,-0.2891878187656402,2.1194632053375244,3.193212509155273,7.057421434485912,-6.80216130978167,0.3062918082833289,100,jumping
1783087535106677800,3.885501,-12.251713247865435,13.909522540956734,-8.059832051634787,-0.8242151737213135,2.1616780757904053,4.193478584289551,6.794280201143026,-7.059412900564074,0.4157443723773583,100,jumping
1783087535116640500,3.8954637,-11.179306134426591,14.665262582570314,-7.060748533082008,-1.2922601699829102,2.056931495666504,5.103041172027588,6.4500096675992005,-7.371476862508058,0.4786384893162175,100,jumping
1783087535126603500,3.9054267,-10.364536396217346,15.485215860897302,-6.194390061932801,-1.749559998512268,2.1025280952453613,5.867313385009766,6.02669131630361,-7.720520601803064,0.4928983392065391,100,jumping
1783087535136566500,3.9153897,-10.088419945967196,15.933207465678452,-4.490141673749685,-2.295351266860962,2.231785535812378,6.458878517150879,5.529709762904048,-8.085912249308825,0.459053900739178,100,jumping
1783087535146528800,3.925352,-9.264023132234811,16.35751775062084,-2.710141586750745,-2.8284177780151367,2.1399803161621094,6.773678302764893,4.974062670046091,-8.443783438181876,0.3627761312451213,100,jumping
1783087535156491800,3.935315,-7.802852263531088,17.635388984459638,-2.0939339344680308,-3.1593408584594727,1.873198628425598,6.818051338195801,4.384231275774538,-8.769809289982915,0.1983247517730109,100,jumping
1783087535166454500,3.9452777,-5.971379763448238,18.62696841099262,-1.80379714217186,-3.133256435394287,1.4258135557174685,6.695905208587647,3.7818820529744026,-9.048066843914985,-0.0154968135149742,100,jumping
1783087535176417500,3.9552407,-3.7584620144203305,18.89915453605652,-1.8501766160309316,-2.7405617237091064,0.7906781435012817,6.4755682945251465,3.181459414322674,-9.272966901668903,-0.2465451590573415,100,jumping
1783087535186380500,3.9652037,-1.7621765532776712,18.74931351867914,-2.2174311347991225,-2.087571620941162,0.2105471491813659,6.22256326675415,2.5908696028992533,-9.447091296431422,-0.4585383889650926,100,jumping
1783087535196342800,3.975166,-0.6992037692688405,18.10649141571521,-1.8974001394987103,-1.360432267189026,0.0660613402724266,6.010269641876221,2.0118248294495045,-9.578045827031136,-0.6196542856052517,100,jumping
1783087535206305800,3.985129,-0.1051096029862761,16.925633279907704,-0.4306231944162398,-0.7167052030563354,0.2518639862537384,5.875865459442139,1.4431690558061003,-9.673447398212552,-0.7156004850573837,100,jumping
1783087535216268800,3.995092,0.9155860279157756,15.392413658559322,0.691724957820773,-0.2087064236402511,0.4291626214981079,5.686282634735107,0.8854522440019994,-9.737308752748367,-0.7557703636866062,100,jumping
1783087535226231600,4.0050548,2.402974749198556,13.978653944849968,0.8195055345594883,0.3339006006717682,0.569255530834198,5.328382968902588,0.3530507464466616,-9.771741768226027,-0.7475299932815134,100,jumping
1783087535236194600,4.0150178,3.6269258845403782,12.673503074419498,1.282668989509344,1.0049487352371216,0.6121941804885864,4.849146366119385,-0.139022960237693,-9.781907772931456,-0.6821731394909322,100,jumping
1783087535246156800,4.02498,4.4809702330395575,11.064384454739091,2.2717197743475435,1.684345006942749,0.4375234544277191,4.23915433883667,-0.579169641938433,-9.773910344436764,-0.5528324372960254,100,jumping
1783087535256119800,4.034943,5.101093305200338,9.347720821619031,2.9402947427272794,2.20420241355896,0.0580584108829498,3.5399932861328125,-0.9565811053227632,-9.753089674726128,-0.3641333180077373,100,jumping
1783087535266082800,4.044906,5.33040942583084,7.385701202693581,3.487342934066057,2.437513589859009,-0.2571725249290466,2.862510204315185,-1.2671500794686377,-9.7234894862324,-0.1359090842671692,100,jumping
1783087535276045600,4.0548688,5.196049470701813,4.841563248091936,4.599176048964262,2.4328625202178955,-0.3225038647651672,2.262152910232544,-1.5142165224537252,-9.688476040518283,0.1048313979662489,100,jumping
1783087535286007600,4.0648308,5.314354947608709,1.7017635856300593,5.602802471643686,2.389381170272827,-0.3233922719955444,1.7569451332092283,-1.706591590308398,-9.650960256594418,0.3418501014638692,100,jumping
1783087535295970600,4.0747938,5.852713052013516,-2.0286504381746053,5.291032524210214,2.41194486618042,-0.3848904967308044,1.327586054801941,-1.8526006283074616,-9.61270622152388,0.5780530224660411,100,jumping
1783087535305932800,4.084756,6.70257047021687,-6.055305416369438,4.819812019532919,2.3509883880615234,-0.630699634552002,0.943420112133026,-1.957112849922478,-9.57464040250182,0.8162888375353068,100,jumping
1783087535315895600,4.0947188,7.599030065119266,-9.480483862945436,5.145188467514514,2.009047746658325,-0.9916815161705016,0.6658857464790344,-2.0260764960333706,-9.538305937317013,1.0421762258261442,100,jumping
1783087535325858600,4.1046818,7.538208224409818,-11.49822829170227,5.994587620556354,1.2716941833496094,-1.295496702194214,0.2682128846645355,-2.0583298293843866,-9.509844397464391,1.2233318343997002,100,jumping
1783087535335820800,4.114644,6.401151820927858,-11.956526186442376,6.917142026180029,0.2461944818496704,-1.6559491157531738,-0.2702598869800567,-2.040113496953249,-9.500010401192307,1.32594465213418,100,jumping
1783087535345783800,4.124607,5.379397036361694,-11.270089398157596,6.554994475162029,-0.6115710735321045,-2.076488256454468,-0.9850305318832396,-1.95688547090739,-9.515021507841348,1.3436255625143647,100,jumping
1783087535355746800,4.13457,4.549442588502169,-9.935533569544551,4.625618650209903,-1.007167935371399,-2.434831380844116,-1.7056307792663574,-1.7983552433788776,-9.551471123838423,1.306016108957678,100,jumping
1783087535365709800,4.144533,4.4525817584231495,-9.3706311570853,1.4597754688225686,-0.8963621258735657,-2.68210768699646,-2.1858105659484863,-1.578342519275099,-9.596981413647532,1.255847618079185,100,jumping
1783087535375672600,4.1544958,4.751443416705727,-10.449565626466274,-1.6988218330897389,-0.4089807271957397,-2.641765832901001,-2.4086930751800537,-1.3235451897770163,-9.63868295882344,1.2306054786644876,100,jumping
1783087535385634600,4.1644578,4.719321308518946,-12.48625031801462,-3.584533726751804,0.2103587836027145,-2.372314691543579,-2.391655921936035,-1.0608316803269089,-9.668496497806906,1.2510846414610743,100,jumping
1783087535395597800,4.174421,4.2497944560170176,-15.068830523735285,-3.9418016890347,0.6490205526351929,-2.2351951599121094,-2.38842511177063,-0.8022936299305409,-9.684819856098294,1.315662181442231,100,jumping
1783087535405560800,4.184384,2.836955656544864,-16.287835727107524,-3.1564392470955847,0.7233474254608154,-2.160832405090332,-2.543694496154785,-0.5349309429677203,-9.691648240813612,1.398645877338201,100,jumping
1783087535415523800,4.194347,1.2015013300593942,-16.925217100322246,-1.074528927898407,0.4289788901805877,-2.241795063018799,-2.705615282058716,-0.2501054453548044,-9.69336731969118,1.4650832198418675,100,jumping
1783087535425485600,4.2043088,-0.0170428453720873,-18.142280521976947,0.8333142796814441,-0.1733589470386505,-2.417810440063477,-2.8680453300476074,0.0532552276803413,-9.694054717433453,1.480830824071914,100,jumping
1783087535435448600,4.2142718,-0.7309290601577609,-19.13689829329252,1.7383191462196408,-0.8849206566810608,-2.50976300239563,-3.040119409561157,0.3749411642806604,-9.695425421264767,1.4242713169820609,100,jumping
1783087535445411600,4.2242348,-1.4021126766659318,-20.002364784038065,2.3381191229283806,-1.553913116455078,-2.407952308654785,-3.074765920639038,0.7049510076839477,-9.695463415187596,1.2928371861718595,100,jumping
1783087535455374600,4.2341978,-1.6937443836949764,-20.96990750142336,2.74749019741416,-2.1379318237304688,-2.141727924346924,-3.0095043182373047,1.0259119042456148,-9.691287590807676,1.094006658567488,100,jumping
1783087535465337900,4.2441611,-1.54935359454751,-21.929587230348584,2.247557977515459,-2.575782299041748,-1.8235430717468264,-2.997366189956665,1.3346236331522463,-9.678813893681763,0.8424583209279924,100,jumping
1783087535475299600,4.2541228,-1.5148308549597858,-22.57860292725563,1.3914403298735618,-2.936896085739136,-1.5513544082641602,-3.034867763519287,1.6366360105507074,-9.653336922597884,0.5522025053620339,100,jumping
1783087535485262600,4.2640858,-1.7949634089834987,-22.76382388557196,0.7574585359692573,-3.3513026237487797,-1.3082729578018188,-3.1275734901428223,1.9374182616323232,-9.610720600664616,0.2255104082046076,100,jumping
1783087535495225600,4.2740488,-2.5313866095781323,-22.50052483131885,0.1892903997123241,-3.8035247325897217,-1.007821798324585,-3.3109445571899414,2.2446812530353664,-9.545265254935622,-0.1403585562230087,100,jumping
1783087535505188600,4.2840118,-3.951735638549924,-21.943800464618203,-0.2755517290394753,-4.154791831970215,-0.4823148250579834,-3.48679518699646,2.5645947594359515,-9.450168219658732,-0.5362319425636902,100,jumping
1783087535515151600,4.2939748,-5.656535230875015,-21.945334250056742,-0.8669201966851949,-4.302822113037109,0.2163987904787063,-3.5601301193237305,2.8934771697118875,-9.32308965370953,-0.9371103889163584,100,jumping
1783087535525113600,4.3039368,-7.505320684808492,-22.423957139945028,-1.849991468722373,-4.225499629974365,1.03669536113739,-3.680023670196533,3.2333170273318883,-9.164842042514682,-1.312150373928994,100,jumping
1783087535535076600,4.3138998,-9.66984966598153,-22.711937046468258,-2.864218049740791,-3.8734734058380127,1.6953455209732056,-3.9027161598205566,3.5957600541651247,-8.976368804404139,-1.6326916568391023,100,jumping
1783087535545039600,4.3238628,-11.759266415286064,-22.225736414802075,-3.253938959600031,-3.277702569961548,1.98293137550354,-4.31049394607544,3.9900829048618673,-8.758824954631924,-1.8795291133739052,100,jumping
1783087535555002600,4.3338258,-13.601243358248473,-20.45315040345192,-3.3021909493327137,-2.689542770385742,2.121272325515747,-4.805257320404053,4.422921364174783,-8.509356857332588,-2.0491488901935515,100,jumping
1783087535564964900,4.3437881,-14.59264742821455,-17.86267213795781,-2.575640177324414,-2.3717610836029053,2.208728551864624,-5.090995788574219,4.882812957847118,-8.226195164746045,-2.158295347480476,100,jumping
1783087535574927600,4.3537508,-15.053215605974197,-14.62656957156062,-1.7678098829895257,-2.2847700119018555,2.397489309310913,-5.028603076934815,5.341734537443518,-7.91663471005559,-2.2278138509951533,100,jumping
1783087535584890600,4.3637138,-15.017620560979845,-11.187559583508968,-0.9750146607011556,-2.2664613723754883,2.675235748291016,-4.65224027633667,5.773906641802191,-7.596748091661929,-2.2631433769211173,100,jumping
1783087535594853600,4.3736768,-14.512175130617615,-7.619785268378258,-0.5387491495490074,-2.236018657684326,2.9914395809173584,-4.101900577545166,6.162846338155865,-7.2851675293207165,-2.2618680962882936,100,jumping
1783087535604816600,4.3836398,-14.116781143558024,-4.233253071060776,-0.6401992071144282,-2.163398265838623,3.316394090652466,-3.483888864517212,6.503519139468669,-6.996449956172705,-2.219075833266228,100,jumping
1783087535614779000,4.3936022,-13.462256912362577,-1.0547960534244776,-1.027951154988259,-2.011021614074707,3.680622816085816,-2.8339273929595947,6.7954515830099576,-6.741771430748701,-2.130898660380393,100,jumping
1783087535624741600,4.4035648,-13.185041560959815,1.781580634188652,-1.4509427585475143,-1.6934657096862793,4.012925148010254,-2.237438440322876,7.041967844766378,-6.528982666549086,-1.988327487875521,100,jumping
1783087535634704600,4.4135278,-13.143895896100997,4.0330665988028045,-1.5426047048091889,-1.1930677890777588,4.173919200897217,-1.732303261756897,7.246229019117355,-6.3608291628897184,-1.789525455713272,100,jumping
1783087535644667600,4.4234908,-13.473731077057122,6.0765440192312,-1.0781237375199797,-0.6945939660072327,4.287025451660156,-1.3252416849136353,7.412211023956536,-6.233813140782713,-1.5391877359725534,100,jumping
1783087535654629600,4.4334528,-13.700126926326751,8.055807033902406,0.2331856555402278,-0.3179591000080108,4.30943775177002,-0.9336842894554138,7.541940396675467,-6.142390994626283,-1.2492251311995088,100,jumping
1783087535664592600,4.4434158,-13.543997622460124,8.993232260921596,1.5450930144935846,-0.1318933069705963,4.303342819213867,-0.4309989511966705,7.630917487767339,-6.087867961800098,-0.9366665176063776,100,jumping
1783087535674556000,4.4533792,-13.480550109422206,9.253715088710187,2.913625931510329,-0.2504223585128784,4.356815814971924,0.2098188698291778,7.6714686938643455,-6.077656948909163,-0.617287264212966,100,jumping
1783087535684518700,4.4633419,-13.41724405068159,9.590150106322763,4.343285809662937,-0.6629169583320618,4.389173984527588,0.9413721561431884,7.656794271823763,-6.119455524718761,-0.3101037312543019,100,jumping
1783087535694481700,4.4733049,-12.921281903457642,9.962518607103824,5.027606628707051,-1.2615255117416382,4.3538498878479,1.714147686958313,7.582512061038613,-6.218885620763897,-0.036893119697587,100,jumping
1783087535704443600,4.4832668,-12.50544484782815,10.688595331859588,5.096405439645052,-1.898382544517517,4.257892608642578,2.465345621109009,7.447843478351831,-6.376936832603812,0.1862510320164263,100,jumping
1783087535714406700,4.4932299,-12.227341023153066,11.571761145424842,4.96582208044529,-2.438556671142578,4.14329195022583,3.105105400085449,7.255781860360503,-6.5877826460421085,0.3537948793448507,100,jumping
1783087535724369700,4.5031929,-12.062443890941145,12.842609933280944,4.891680154913663,-2.806330442428589,3.9098052978515625,3.4865970611572266,7.017561717784404,-6.834361451640725,0.4644483071286231,100,jumping
1783087535734332700,4.5131559,-11.708588367450236,15.26386092840433,4.372641083484888,-2.9262678623199463,3.534867286682129,3.5575356483459477,6.753637809631228,-7.091403199064732,0.5203594333123416,100,jumping
1783087535744295700,4.5231189,-10.846330901879073,18.064999713897706,3.300086670529842,-2.686506509780884,3.081991195678711,3.4354045391082764,6.4842456992000335,-7.337479900360106,0.5351248215720057,100,jumping
1783087535754257700,4.5330809,-9.751455351522564,20.32735661661625,2.0412860478639603,-2.1467559337615967,2.7250571250915527,3.2874457836151123,6.219558405458927,-7.562968571656942,0.5375681596035138,100,jumping
1783087535764220700,4.5430439,-8.504047060486673,21.71171254118681,0.9318564869761466,-1.3874200582504272,2.5911030769348145,3.2952146530151367,5.954671205231547,-7.771472790405154,0.5625737868485972,100,jumping
1783087535774183700,4.5530069,-6.880283244860172,21.7705084290266,0.0356850613653659,-0.5103244781494141,2.559134006500244,3.542670965194702,5.672258869707584,-7.974369690665602,0.636637057653442,100,jumping
1783087535784146400,4.5629696,-5.022213245230913,20.856666906690595,-1.1649521261453628,0.4276122450828552,2.63209080696106,3.962139844894409,5.352762711936236,-8.180267526307702,0.775594861966744,100,jumping
1783087535794108700,4.5729319,-3.390520974692702,19.792551820778847,-2.0009199890755114,1.3263734579086304,2.683006048202514,4.460822582244873,4.982067112803459,-8.389121289145946,0.9859287072949112,100,jumping
1783087535804071700,4.5828949,-2.434471126702428,18.71516574988365,-2.0839983775176107,1.9868252277374268,2.639075756072998,4.91795825958252,4.554686042113602,-8.593677647051214,1.25455713987723,100,jumping
1783087535814034700,4.5928579,-2.3346830109998584,17.595038269370793,-1.5403553184472023,2.286617994308472,2.506040096282959,5.193045616149902,4.079757330568135,-8.781534214568138,1.5526256019555031,100,jumping
1783087535823997700,4.6028209,-2.4867370282515884,16.731370937001703,-0.651933337919414,2.2445712089538574,2.273111581802368,5.279276371002197,3.575799800676107,-8.943033521035312,1.8455927953720093,100,jumping
1783087535833960700,4.6127839,-2.866941044963896,15.698359429883956,0.1168354043543338,2.014925956726074,2.0072758197784424,5.197515487670898,3.06251739307791,-9.07450067733228,2.108275909683853,100,jumping
1783087535843922700,4.6227459,-3.450915822161734,14.634332022255656,0.9859270998597144,1.7687721252441406,1.7178571224212646,5.011548042297363,2.556681502093374,-9.175701874703169,2.3324365472473203,100,jumping
1783087535853885700,4.6327089,-3.9557325992316006,13.73401750549078,1.671523053406179,1.5995482206344604,1.4291808605194092,4.778421878814697,2.069101398767531,-9.248031782376763,2.5225199970334766,100,jumping
1783087535863848700,4.6426719,-4.041102021220326,12.416105353164673,1.8646844493329524,1.5574204921722412,1.2384676933288574,4.56546688079834,1.603505309843272,-9.292570012283324,2.69207986035943,100,jumping
1783087535873811700,4.6526349,-3.620775252956152,10.648927338337897,1.8767898976683612,1.5897778272628784,1.024153470993042,4.421604156494141,1.15594449769482,-9.310868470039964,2.8534046870425342,100,jumping
1783087535883773400,4.6625966,-2.5462019013941286,8.530976568466425,1.2078364513650537,1.6552391052246094,0.7128704786300659,4.362555503845215,0.7237657443996518,-9.304604148948192,3.0117949215784665,100,jumping
1783087535893736700,4.6725599,-1.3199322599768637,6.145304836246371,0.3560699846699833,1.749409556388855,0.4629009068012237,4.355469226837158,0.3022469350730069,-9.274377937510607,3.1725340573281047,100,jumping
1783087535903699700,4.6825229,-0.7924641637030988,3.3704882404893635,0.4086816309168934,1.7316313982009888,0.357527494430542,4.217144012451172,-0.1071572927637025,-9.221768629351258,3.3343536817908284,100,jumping
1783087535913662700,4.6924859,-0.6617270021811127,1.2069745738387108,0.984262673778832,1.5521005392074585,0.3555572628974914,3.834264755249024,-0.4888366792581975,-9.153779965752364,3.4842157419562336,100,jumping
1783087535923625700,4.7024489,-0.1701240000147372,-0.1506318754941225,1.7905612285017969,1.3411296606063845,0.3239564001560211,3.3933444023132324,-0.828856642685458,-9.07901552440822,3.613152210731805,100,jumping
1783087535933587500,4.7124107,1.0448808816749602,-2.126041137346625,2.575858203989267,1.1574413776397705,0.1492974907159805,3.1588497161865234,-1.1312216329138725,-9.001609628644585,3.723137018539011,100,jumping
1783087535943550500,4.7223737,2.7352985321000216,-5.146621130666136,3.334384953711927,1.0318833589553833,0.0591992288827896,3.127756834030152,-1.4144471114516255,-8.9209590518713,3.819190331627429,100,jumping
1783087535953513700,4.7323369,4.163527208405733,-9.599795302024484,4.701636891007423,0.9480409026145936,-0.0196649618446826,3.1787667274475098,-1.694356670374423,-8.834061105141043,3.906265973012149,100,jumping
1783087535963476700,4.7422999,4.973907771745324,-14.524264212340116,5.942939850905537,0.7947869896888733,-0.2513601779937744,3.17012095451355,-1.968286862626672,-8.741389835706352,3.985514866293967,100,jumping
1783087535973438700,4.7522619,4.785606383070349,-18.23071400771141,7.441759774523973,0.4918212592601776,-0.5939151048660278,2.881443500518799,-2.215431047023088,-8.651680923208593,4.051007036902011,100,jumping
1783087535983401700,4.7622249,4.198290478751063,-20.36632786004543,9.86064228695035,0.0731915235519409,-0.8896270394325256,2.3617680072784424,-2.4102706052951515,-8.579571380287408,4.09291491830498,100,jumping
1783087535993364500,4.7721877,4.020938061852753,-22.36074694279432,12.09280980311036,-0.4015597999095917,-1.1504030227661133,1.860315561294556,-2.548653093938529,-8.534178579378128,4.1039632588028905,100,jumping
1783087536003327500,4.7821507,4.785669511434436,-25.01687753789425,13.633224888920784,-0.800558865070343,-1.5875755548477173,1.2315055131912231,-2.626248959316313,-8.518703946870565,4.087157962213456,100,jumping
1783087536013290800,4.792114,4.596649453096092,-26.513866154432296,14.069146116679908,-1.0793159008026123,-1.9148061275482176,0.1680944412946701,-2.616045837470889,-8.537993753752112,4.053314144800603,100,jumping
1783087536023252700,4.8020759,3.16003785610944,-26.917132482302183,14.144005835092068,-1.1791565418243408,-1.9625155925750728,-1.137718915939331,-2.4969936338499186,-8.596061327317356,4.0053891950652005,100,jumping
1783087536033215700,4.8120389,2.7022698304623365,-26.637457462787623,14.255586387658118,-0.9381337761878968,-1.9935640096664429,-2.3726632595062256,-2.2662254147149623,-8.680905848649143,3.959349912945926,100,jumping
1783087536043178500,4.8220017,3.4040561635702846,-26.77566649456024,13.761106587946417,-0.5346034169197083,-2.1140353679656982,-3.300130605697632,-1.937159318435192,-8.769550931307673,3.938629196478426,100,jumping
1783087536053141500,4.8319647,4.680774720242619,-26.510246794891355,13.973400262105464,-0.346566379070282,-2.4591641426086426,-3.914295196533203,-1.5300053354769945,-8.84851983860433,3.94121453679651,100,jumping
1783087536063103700,4.8419269,5.614698076620698,-25.322051740324497,14.58785201063156,-0.4963634312152862,-2.9622838497161865,-4.287636280059815,-1.0591308677583933,-8.917426201570034,3.940575362110138,100,jumping
1783087536073066800,4.85189,5.250390717220306,-24.11010873042345,15.586598844575882,-0.9186131954193116,-3.354045152664185,-4.370463371276856,-0.5475798139974475,-8.979253419929742,3.9042978878095744,100,jumping
1783087536083029800,4.861853,3.700819680529833,-23.71160041073561,16.832103932338953,-1.5603928565979004,-3.591414451599121,-4.180990219116211,-0.0288626748492824,-9.038832567101716,3.803819451755285,100,jumping
1783087536092992500,4.8718157,1.524932123865932,-23.816903198206425,17.178973250204322,-2.2840795516967773,-3.688382625579834,-3.8958914279937744,0.4718320607043802,-9.101275287011266,3.621401860421896,100,jumping
1783087536102955500,4.8817787,-1.1976797990098595,-23.588486072242254,16.94057599749565,-2.992140769958496,-3.685692310333252,-3.623284101486206,0.9422484093919395,-9.166737062481046,3.3546228550985453,100,jumping
1783087536112917800,4.891741,-4.503686214977503,-22.67699666599035,16.130800414311885,-3.621139764785767,-3.450472354888916,-3.4770612716674805,1.3805997869074345,-9.23082754959762,3.00934577486068,100,jumping
1783087536122880800,4.901704,-8.647950504508614,-21.45114904937744,15.220433290088176,-4.10207986831665,-2.9781978130340576,-3.5130069255828857,1.7921540506511926,-9.283967603632806,2.601255972357094,100,jumping
1783087536132843800,4.911667,-13.325883279323577,-19.03797848485708,14.044358881425858,-4.377861022949219,-2.510150909423828,-3.836130380630493,2.1958381655417383,-9.312062063738702,2.1527140402168032,100,jumping
1783087536142806800,4.92163,-17.65796789601445,-15.184993727916478,11.736009458339211,-4.354950428009033,-2.066306829452514,-4.392904281616211,2.6207354565918446,-9.297513898426294,1.6906731595560909,100,jumping
1783087536152768500,4.9315917,-20.74442701343298,-10.300897159999607,8.786891942209005,-3.927093267440796,-1.6522877216339111,-4.998188018798828,3.081353903234005,-9.225164117008449,1.2537911239407955,100,jumping
1783087536162731500,4.9415547,-22.087602201831334,-4.840459670764208,5.646480285328626,-3.199953556060791,-1.3351861238479614,-5.4635162353515625,3.57623263913542,-9.089005588024854,0.8780182215437292,100,jumping
1783087536172694800,4.951518,-21.869598917853832,-0.124959089577198,2.247460946881771,-2.380141258239746,-0.9508727788925172,-5.621679306030273,4.083224714417756,-8.89699131630659,0.5841311733359471,100,jumping
1783087536182657800,4.961481,-21.042432639408112,3.5810587441176174,-0.053197337180376,-1.6215534210205078,-0.4687857329845428,-5.443264484405518,4.572868472275138,-8.666941036182642,0.3786596002819016,100,jumping
1783087536192620800,4.971444,-20.10119340705872,6.378307536435127,-1.6420961756527424,-1.0410255193710327,0.2000527828931808,-4.9487409591674805,5.017422503823042,-8.421907121938467,0.2594448630429804,100,jumping
1783087536202582500,4.9814057,-19.16347767266035,8.335685467034578,-2.683607800090313,-0.7497761845588684,1.1424483060836792,-4.220956802368164,5.396070523265004,-8.185598950463532,0.220872391406726,100,jumping
1783087536212545500,4.9913687,-18.31994945747852,9.579488427054882,-3.72490198238492,-0.6522701382637024,1.951030969619751,-3.2056572437286377,5.692928732770681,-7.981058374649286,0.2522623128614388,100,jumping
1783087536222508500,5.0013317,-17.2026650914371,9.528898642024398,-5.206288540643453,-0.7779458165168762,2.187771797180176,-2.099931240081787,5.895448616412281,-7.8302113950997585,0.3191249498387798,100,jumping
1783087536232471800,5.011295,-15.42041225707531,10.00264135865569,-7.009178504842519,-1.0288995504379272,2.059509515762329,-1.107130765914917,6.012098727327585,-7.738475945210457,0.3755940386988222,100,jumping
1783087536242433500,5.0212567,-14.280519753384588,11.476827776277064,-7.566821739953756,-1.3502202033996582,2.033609628677368,-0.1231992617249488,6.051497840780019,-7.70610979913473,0.4069615291260182,100,jumping
1783087536252396500,5.0312197,-13.700682222121952,12.08568681936264,-5.461079294270276,-1.778916597366333,2.080324411392212,0.7940189838409424,6.016791269057989,-7.733028201198578,0.4109594761883839,100,jumping
1783087536262359600,5.0411828,-13.091959957158563,13.59316994190812,-3.658127370750904,-2.2163426876068115,2.012225866317749,1.6312745809555054,5.914143964532017,-7.813568887856602,0.3761264650750905,100,jumping
1783087536272322600,5.0511458,-12.028588383090495,15.604100598996876,-3.235551946777105,-2.4992306232452397,1.9757976531982424,2.474285840988159,5.746501917526126,-7.940709997648001,0.3053486274153925,100,jumping
1783087536282284800,5.061108,-10.470244841879603,16.811052961003778,-3.123584440720081,-2.61135196685791,2.0884244441986084,3.3675246238708496,5.507663350790739,-8.111122093889117,0.2138816009376198,100,jumping
1783087536292247800,5.071071,-8.900860266694426,17.373637744170427,-2.666788767236471,-2.604696750640869,2.2260215282440186,4.174931526184082,5.194487043690681,-8.317122220861911,0.1148696663724724,100,jumping
1783087536302215200,5.0810384,-7.227616673105954,17.948935878437755,-2.3780197561621663,-2.459835767745972,2.296964406967163,4.764561176300049,4.816356326121092,-8.54241624636948,0.0144933972096478,100,jumping
1783087536312178200,5.0910014,-6.0418041297614575,18.57471215405464,-2.236848951974511,-2.238907814025879,2.347908735275269,5.152154445648193,4.388458538080752,-8.76955794557035,-0.0816358614835888,100,jumping
1783087536322141000,5.1009642,-5.202470443660021,18.580931466960905,-1.6470599355399609,-2.019736289978028,2.3738932609558105,5.30612325668335,3.927409591066837,-8.984224778601527,-0.1719350132257677,100,jumping
1783087536332103000,5.1109262,-3.988912107516825,18.26166911794543,-1.0459878930687905,-1.812078833580017,2.3694539070129395,5.275892734527588,3.453209778317809,-9.174926798677443,-0.2578045484900474,100,jumping
1783087536342066200,5.1208894,-2.786434552836418,17.71145983222723,-0.4733090013891458,-1.5698018074035645,2.288778066635132,5.172562599182129,2.9778207557842133,-9.337440835145117,-0.3393726054344326,100,jumping
1783087536352029200,5.1308524,-1.4882538136795165,16.7949388615489,-0.0161760587751865,-1.2012357711791992,2.1151647567749023,4.963683605194092,2.5102786473587155,-9.47107656765282,-0.4093931401871145,100,jumping
1783087536361992200,5.1408154,-0.0962869757138192,16.03688411325216,0.431599893961288,-0.7181702256202698,1.8624286651611328,4.618692874908447,2.063422476348281,-9.576279986402392,-0.455542093225941,100,jumping
1783087536371954000,5.1507772,0.944850262453407,15.222048908591267,1.143291498479247,-0.258345365524292,1.672781467437744,4.158456802368164,1.6504641910254954,-9.65537982660234,-0.4690247847313061,100,jumping
1783087536381917000,5.1607402,1.6332582046806812,14.209284070688485,2.2969249427527187,0.0639922097325325,1.5738542079925537,3.5739543437957764,1.2839268806159496,-9.71162602995932,-0.454137779385969,100,jumping
1783087536391880000,5.1707032,2.297759932272136,13.583852662986516,3.4420249519586563,0.4173830449581146,1.3919869661331177,2.812777042388916,0.9796028652742504,-9.748790516227483,-0.4145571718867868,100,jumping
1783087536401843000,5.1806662,3.270819074991345,13.44132401444912,3.993487452608347,0.8819745779037476,1.0889581441879272,1.8956472873687744,0.7547315221581608,-9.771612004366515,-0.3411323816485703,100,jumping
1783087536411805200,5.1906284,4.396625770184397,13.05918347671628,4.458143191942573,1.3362687826156616,0.8211554884910583,0.962753415107727,0.6187778680969029,-9.784513571515678,-0.2253442761237733,100,jumping
1783087536421768000,5.2005912,5.49971677570045,12.642303634035589,5.534086078292131,1.518651008605957,0.4603870213031769,0.1968141943216323,0.5644967908004298,-9.790061268770694,-0.0800947877877391,100,jumping
1783087536431731000,5.2105542,6.506046027597785,12.056772859567404,6.282120952355862,1.4185543060302734,-0.0416108295321464,-0.3631415069103241,0.5740570846976712,-9.789613525003194,0.0656560833323281,100,jumping
1783087536441694000,5.2205172,7.576240141162276,11.331183626067638,6.79177494032383,1.2376035451889038,-0.6810079216957092,-0.6212010979652405,0.6247983704954385,-9.78482804429233,0.1927101632942445,100,jumping
1783087536451657000,5.2304802,8.4401944737792,10.592658923149108,6.987181777089834,1.12259840965271,-1.218189358711243,-0.5317585468292236,0.685454426183924,-9.778030639237166,0.301066894975584,100,jumping
1783087536461619200,5.2404424,9.378074458828568,8.959521714499592,7.083709721952676,1.0525847673416138,-1.7542017698287964,-0.1407186388969421,0.7251572718232869,-9.77175345866382,0.3966742361284792,100,jumping
1783087536471582000,5.2504052,10.82630401289463,6.973665877434611,6.44629912264347,1.0281223058700562,-2.5491857528686523,0.5566673278808594,0.7159922608539462,-9.768597040459513,0.4819217853032052,100,jumping
1783087536481545000,5.2603682,12.323565016633273,5.3094303506881,4.723751692181826,1.131700873374939,-3.399676322937012,1.390966296195984,0.6368476316642016,-9.769528768351671,0.5666862636687233,100,jumping
1783087536491508000,5.2703312,13.179031506890055,3.2018735490590333,3.3911937593877317,1.057040452957153,-4.018141746520996,2.212615489959717,0.4840791460001841,-9.772760005357862,0.6551563185539097,100,jumping
1783087536501470200,5.2802934,12.332158657455444,0.4414595726639032,3.5341011781096454,0.4273066520690918,-4.426146507263184,2.939117908477783,0.2611924008300528,-9.77705039602816,0.71515763666071,100,jumping
1783087536511433200,5.2902564,10.284581985014675,-2.1557798575282097,3.776971192318201,-0.6377279162406921,-4.677535533905029,3.452928066253662,-0.0191436079104663,-9.781560566928984,0.7007836588714271,100,jumping
1783087536521396000,5.3002192,7.890139501839876,-4.972174079820514,3.2819092088043686,-1.705654501914978,-4.960461616516113,3.689527750015259,-0.3377802947416901,-9.782841838911176,0.593554433382675,100,jumping
1783087536531359000,5.3101822,5.268115759003162,-8.148182535260915,1.2192272486250846,-2.38673996925354,-4.995148181915283,3.572646141052246,-0.6685551677007228,-9.774958976706865,0.4166107799483463,100,jumping
1783087536541321000,5.3201442,1.7347443564727902,-12.041639587843417,-1.1714286286830902,-2.605200290679932,-4.442148208618164,3.0122501850128174,-0.9768300395600498,-9.75562182355225,0.2098569850640371,100,jumping
1783087536551284000,5.3301072,-2.2070751604795453,-15.288939255559445,-3.474201712942123,-2.2789149284362797,-3.490283489227295,2.082737922668457,-1.2211225608523937,-9.73031787094772,0.0130835338366567,100,jumping
1783087536561247200,5.3400704,-6.215383750122785,-17.677655762302873,-6.00587766085565,-1.4335758686065674,-2.4412264823913574,0.9894389510154724,-1.3719910946466027,-9.709318922060728,-0.1310598906703293,100,jumping
1783087536571210200,5.3500334,-9.174627523469924,-20.24995188989639,-8.86476194835305,-0.3169734179973602,-1.5209417343139648,-0.1339015215635299,-1.4165719946511088,-9.701959791469571,-0.1889116112614981,100,jumping
1783087536581173000,5.3599962,-10.499585502654313,-22.82461650018692,-11.121835942232607,0.6849917769432068,-0.6959898471832275,-1.1593573093414309,-1.3548551047980784,-9.71138637598455,-0.1541047940353863,100,jumping
1783087536591135000,5.3699582,-11.001451320964096,-24.479685554659365,-11.408328825068471,1.2826123237609863,0.0425090305507183,-1.9741085767745967,-1.202093231537938,-9.732556005263328,-0.051817020703922,100,jumping
1783087536601098000,5.3799212,-11.354154167288542,-25.78130357478857,-10.15704632294774,1.3321136236190796,0.6284072399139404,-2.5616331100463867,-0.9809222042445092,-9.757177236300706,0.0752122125111054,100,jumping
1783087536611061000,5.3898842,-11.611431477034092,-26.47784791558981,-8.41565273771882,0.7466719150543213,1.1217466592788696,-2.996426105499268,-0.7106264960370957,-9.779342306357622,0.1727158614051528,100,jumping
1783087536621024300,5.3998475,-11.827646124029158,-26.039391031873222,-6.985034243667125,-0.2461449056863784,1.616365671157837,-3.3035929203033447,-0.4052280563969165,-9.796422035974263,0.1905893534816801,100,jumping
1783087536630986000,5.4098092,-11.924783140701054,-24.22251228981018,-6.346874287295341,-1.1599255800247192,2.1379640102386475,-3.4867818355560303,-0.0755536965922685,-9.805675602009892,0.1156649175365455,100,jumping
1783087536640949000,5.4197722,-11.469575028669832,-22.35753674857616,-6.9091481048166745,-1.714084267616272,2.61038589477539,-3.500693082809448,0.2654600499455817,-9.803024795240162,-0.0247592284356942,100,jumping
1783087536650912000,5.4297352,-10.908693542289733,-21.09087079936266,-8.25043294942379,-1.9896953105926516,3.043914794921875,-3.414543390274048,0.6065931074475869,-9.785950910842418,-0.1939160867515951,100,jumping
1783087536660875000,5.4396982,-10.74996545410156,-19.859278501617908,-9.050414283823969,-2.229196548461914,3.487572193145752,-3.245685338973999,0.9404728510867804,-9.754303726691006,-0.3734629449542612,100,jumping
1783087536670837000,5.4496602,-10.853007310903072,-19.41588591506481,-8.907851148495078,-2.5989701747894287,3.890962600708008,-3.042076349258423,1.262583794466406,-9.70853040203154,-0.5663040228854864,100,jumping
1783087536680800000,5.4596232,-11.54093813713789,-19.781738165819643,-8.214095561629533,-3.08740782737732,4.38989782333374,-2.8040945529937744,1.5726798173382877,-9.6480879160285,-0.7819677579995244,100,jumping
1783087536690763000,5.4695862,-13.128611817729473,-20.53175690717697,-6.254797476622462,-3.56485652923584,4.822711944580078,-2.554651498794556,1.870476184476912,-9.572185410565137,-1.0222290510144083,100,jumping
1783087536700726000,5.4795492,-15.55077115986943,-21.05561243897676,-4.241220104417205,-3.9257700443267822,5.124118804931641,-2.374168634414673,2.1610481533199546,-9.479736259448527,-1.278611676942557,100,jumping
1783087536710688000,5.4895112,-18.345230029207467,-20.842306372904776,-2.3712311189353463,-4.229102611541748,5.442791938781738,-2.2468299865722656,2.4520707885399458,-9.369376773110032,-1.5402958433449268,100,jumping
1783087536720651300,5.4994745,-20.84823108677864,-20.29064396576881,-0.3317171953104436,-4.548314571380615,5.893549919128418,-2.1532633304595947,2.7500106558024884,-9.239437557032703,-1.8001698915854096,100,jumping
1783087536730614000,5.5094372,-22.609835100865364,-19.32418378292322,1.4948570113368331,-4.873238563537598,6.383735656738281,-2.131085157394409,3.063272595359385,-9.086908908006547,-2.0530051272302865,100,jumping
1783087536740577000,5.5194002,-23.354141894316676,-16.556152317261695,2.605994983577728,-5.060918807983398,6.848190307617188,-2.12178111076355,3.39727512512803,-8.910670882090926,-2.2866684832848607,100,jumping
1783087536750540000,5.5293632,-23.07030975512266,-12.789224380052088,3.3537110009506343,-5.009931564331055,7.263558387756348,-2.046657085418701,3.748803666976094,-8.716092897364497,-2.479228844578564,100,jumping
1783087536760502000,5.5393252,-22.3046164747715,-9.13666399577856,4.026805784842372,-4.808672428131104,7.679591178894043,-1.7955611944198608,4.104643057760596,-8.51578484455347,-2.6083906465426088,100,jumping
1783087536770465000,5.5492882,-20.842586943411828,-5.963402208697795,5.018122761046886,-4.627313137054443,7.977163791656494,-1.3560898303985596,4.444100930325686,-8.324145251366495,-2.6700091905876997,100,jumping
1783087536780428000,5.5592512,-19.18595487740636,-3.298655176422,6.101712362757325,-4.551604747772217,8.238548278808594,-0.8161056637763977,4.749666762422025,-8.152212813690305,-2.674412686243653,100,jumping
1783087536790391000,5.5692142,-17.429474782204625,-0.6355471435248852,7.635102664497494,-4.556828498840332,8.29637336730957,-0.2216257899999618,5.011498374471068,-8.00617411120534,-2.637505974128842,100,jumping
1783087536800353000,5.5791762,-15.38991424295902,2.0467197633504868,8.819282638204097,-4.52470588684082,8.004919052124023,0.4929965436458587,5.21395863687992,-7.894557318282127,-2.580890937459469,100,jumping
1783087536810316000,5.5891392,-14.012581933414936,3.835986275866627,9.759694187557695,-4.427255153656006,7.348648548126221,1.2547321319580078,5.341082795536518,-7.826971974787115,-2.5262121295496818,100,jumping
1783087536820279000,5.5991022,-12.962154012072086,5.280045850771665,10.951472361308335,-4.452841758728027,6.529704570770264,1.924715280532837,5.390490677306056,-7.801587942683696,-2.499640933488309,100,jumping
