time,seconds_elapsed,acc_x,acc_y,acc_z,gyr_x,gyr_y,gyr_z,grav_x,grav_y,grav_z,fs_hz,activity
1783067262550161200,0.0,-0.2907765515044331,1.3823223729163407,2.2689257597148416,-0.0782409384846687,-1.4681715965270996,-0.7697941660881042,-0.6299435513641685,-8.499535720542072,-4.850922904850543,50,jumping
1783067262570085400,0.0199242,0.1884576752152293,1.822407150095701,1.790711450627446,0.0395147316157817,-1.841839909553528,-0.824830174446106,-0.653980187446624,-8.506569272440672,-4.835387774327397,50,jumping
1783067262590009000,0.0398478,0.3545855913311243,2.50817173820734,1.9948948835670948,0.2894362807273865,-2.286407709121704,-0.8982559442520142,-0.7050367862712591,-8.533778766405582,-4.779949964743852,50,jumping
1783067262609932300,0.0597711,0.2739202553801238,2.783685546389222,2.161687620267272,0.5353721976280212,-2.7231979370117188,-0.8355008959770203,-0.7904692635588347,-8.586482182589172,-4.6709603054538364,50,jumping
1783067262629856000,0.0796948,0.2728907662019133,1.8232389247447247,1.938392075100541,0.6595832109451294,-3.1320126056671143,-0.5752549767494202,-0.9395263640169054,-8.655244168648123,-4.513805457931757,50,jumping
1783067262649779200,0.099618,-0.1607642701908946,0.7552355992227793,2.131875250327587,0.4526720345020294,-3.354255437850952,-0.5955935120582581,-1.1321046993587165,-8.717003582468628,-4.347708594541252,50,jumping
1783067262669703200,0.119542,-0.9219009101510048,0.6358797364801168,3.040524756978452,0.1845373809337616,-3.2482457160949707,-0.9201133251190186,-1.2830090351186691,-8.76179958652854,-4.213683278194069,50,jumping
1783067262689626000,0.1394648,0.0848718477301299,0.3767617673039436,2.5774247226536278,0.0140134282410144,-3.2943384647369385,-0.8723680973052979,-1.3849233491949735,-8.795672045513987,-4.109564147549867,50,jumping
1783067262709550000,0.1593888,1.3544232892520724,-1.6035709224253891,0.7073869295939803,-0.0738470926880836,-3.91166615486145,-0.3619767725467682,-1.5615218789860603,-8.808812097594142,-4.017070865030586,50,jumping
1783067262729473000,0.1793118,1.2939211820162833,-2.406228198036551,-0.5350748449504376,0.00978100951761,-4.493736267089844,0.2001552432775497,-1.891124566360563,-8.811654043021798,-3.866365632039309,50,jumping
1783067262749397200,0.199236,-2.7301550317317247,-3.929933556586504,3.1929268570154905,-0.6586683988571167,-2.930199146270752,0.0556574761867523,-2.211626978565007,-8.783576534050702,-3.758706929092109,50,jumping
1783067262769321200,0.21916,-5.87894697894454,-4.6353825038552285,4.009564142662287,-1.4420528411865234,-1.5919475555419922,-0.4307593405246734,-2.349474921940267,-8.709747912251949,-3.845860311888158,50,jumping
1783067262789244200,0.239083,-5.196972430765628,-4.3940316620379685,-0.5960153436034917,-1.3922104835510254,-1.4493508338928225,-1.2603275775909424,-2.313189264333248,-8.63147166339457,-4.039458053405583,50,jumping
1783067262809168100,0.2590069,-3.5282384235560893,-3.428056632360816,-1.8605103785187005,-0.5145660042762756,-1.5705504417419434,-1.556615710258484,-2.190761154538393,-8.616573369470238,-4.138311810867489,50,jumping
1783067262829091000,0.2789298,-3.392943817925453,-2.0009680660009384,-2.543184014877677,0.2526528835296631,-1.4122239351272583,-1.6362948417663574,-2.0399483695194123,-8.67492677423954,-4.093243711867928,50,jumping
1783067262849015300,0.2988541,-3.949097399000823,-1.316767073944211,-1.2878121976166963,0.9321704506874084,-0.9790312051773072,-1.777256727218628,-1.8378373589396475,-8.788708051720262,-3.9435175530418753,50,jumping
1783067262868938200,0.318777,-2.6393109777241945,-1.591609266474843,-2.130784824742377,1.2266302108764648,-1.325233817100525,-1.983792304992676,-1.5864546601906415,-8.939136513596772,-3.7074759235486394,50,jumping
1783067262888862200,0.338701,-1.0281224199019372,-4.449817846667767,-2.995866700084507,0.8278746604919434,-1.7075047492980957,-1.5120456218719482,-1.3708674974441528,-9.070687256523966,-3.466083580677211,50,jumping
1783067262908786200,0.358625,-0.8632251415595412,-8.633321090653538,-4.436955442485213,0.0926937758922576,-1.7926795482635498,-0.7342057228088379,-1.290209614147246,-9.130009214064478,-3.338962636891007,50,jumping
1783067262928709400,0.3785482,-2.8791373864531518,-9.791980254134534,-7.026051313710212,-0.117524653673172,-1.7929415702819824,-0.2694050371646881,-1.3214897185519336,-9.138672997513414,-3.302834215672314,50,jumping
1783067262948633000,0.3984718,-4.605634139062464,-10.335608407896755,-7.900399030047654,0.1644615083932876,-1.0895854234695437,-0.0526131018996238,-1.3978265237793326,-9.143167386323212,-3.2586756327331066,50,jumping
1783067262968556300,0.4183951,-3.976124229875207,-7.451475112852454,-6.621503713858127,0.6383104920387268,-0.386370301246643,-0.5277028679847717,-1.3922742964796722,-9.174758456373214,-3.1710797668665647,50,jumping
1783067262988480000,0.4383188,-0.8431681496977805,-4.262617697232962,-7.494896321427822,1.3129645586013794,-1.4082592725753784,-0.8440840244293213,-1.3056278402924535,-9.254446325594186,-2.9700092052504417,50,jumping
1783067263008403000,0.4582418,0.2977010900706052,-1.3902707015722988,-6.405559115976095,1.4055817127227783,-2.8692586421966557,-0.5909702777862549,-1.2857580415658652,-9.35460707400143,-2.6473662738859653,50,jumping
1783067263028327000,0.4781658,-0.0803596310026943,0.5622258867263794,-3.199123373568058,0.3415642380714416,-3.205134391784668,0.0642123445868492,-1.3904282302215694,-9.41059608772695,-2.3828085978738964,50,jumping
1783067263048249900,0.4980887,-1.220915859299153,2.9893899052858357,0.2896946014866233,-1.199482560157776,-2.2469594478607178,0.7822312116622925,-1.6027458697780963,-9.37562472758889,-2.387314969382435,50,jumping
1783067263068173800,0.5180126,-0.1951071231670677,5.640230577284098,1.0254442867338658,-1.9002922773361208,-1.6755198240280151,0.9869414567947388,-1.869442749775946,-9.262208776289224,-2.6243217906460163,50,jumping
1783067263088097800,0.5379366,0.601984773401916,7.596191042301058,0.5805196683079004,-1.963097095489502,-1.9327797889709477,0.5283997058868408,-2.114820801282674,-9.122344963046908,-2.912173394614458,50,jumping
1783067263108021000,0.5578598,1.1383178017199038,8.632413912680745,0.921827844914794,-1.7671632766723633,-2.27618408203125,-0.2280168682336807,-2.27077518697381,-9.002168431571125,-3.158311178447306,50,jumping
1783067263127945000,0.5777838,1.966332659818977,8.514881173712014,1.7266928597033022,-1.4903769493103027,-2.319556951522827,-0.7096958756446838,-2.3317476882003247,-8.92009980469346,-3.3414319496139884,50,jumping
1783067263147868000,0.5977068,2.733936888357997,8.269125959455966,2.55900263851732,-1.2838397026062012,-2.0387232303619385,-0.762735903263092,-2.3451783937901256,-8.862288836237788,-3.482864911869168,50,jumping
1783067263167791900,0.6176307,3.8010599239140745,8.450684303611517,2.9935297815695403,-1.0712970495224,-1.9389991760253904,-0.7907089591026306,-2.347180673523247,-8.814452733829617,-3.6009082307085394,50,jumping
1783067263187714800,0.6375536,4.36278107598871,8.798332204633951,2.540928052644432,-0.7749066352844238,-2.2732808589935303,-0.9407600164413452,-2.34820972431004,-8.787407490515708,-3.665753627845645,50,jumping
1783067263207639000,0.6574778,4.586292894254624,8.55888398156762,2.7748665723785755,-0.4513903558254242,-2.469050168991089,-1.0099300146102903,-2.3492110103070734,-8.78917742279768,-3.660870824240148,50,jumping
1783067263227563000,0.6774018,4.753436344088613,8.205842697069048,2.873343605482578,-0.2908726930618286,-2.520278215408325,-0.9371713399887084,-2.359683596743644,-8.809780065843462,-3.6041736622452736,50,jumping
1783067263247486000,0.6973248,4.646102927573025,8.108384777879715,3.3508018355056644,-0.3141849040985107,-2.314725399017334,-0.7545233368873596,-2.383133299783617,-8.829487805876136,-3.5399431821361182,50,jumping
1783067263267410000,0.7172488,4.497396759444475,7.978250916013121,3.4373780029356475,-0.4428050518035888,-2.132002592086792,-0.5815154910087585,-2.421773557692766,-8.83492619753778,-3.499926229046285,50,jumping
1783067263287333000,0.7371718,4.0939331554368135,8.003745422753692,3.341592400872708,-0.5215205550193787,-2.017554521560669,-0.5130959749221802,-2.470215517039597,-8.826901881036163,-3.4862919637084007,50,jumping
1783067263307256800,0.7570956,3.9355417518571016,7.390425893127918,3.178632666464149,-0.4615616202354431,-1.8586058616638184,-0.3285280168056488,-2.527452192738652,-8.814528137153387,-3.476561427810788,50,jumping
1783067263327180000,0.7770188,3.325549613088369,6.343903162530064,3.824004746171832,-0.5229421257972717,-1.5874807834625244,-0.120650440454483,-2.6101322295129297,-8.79182472243607,-3.472954635490477,50,jumping
1783067263347103700,0.7969425,2.2090336010709404,5.168213953793049,4.086220973624289,-0.6618724465370178,-1.4889622926712036,-0.1124026551842689,-2.699545373934507,-8.756074194619059,-3.494852579043805,50,jumping
1783067263367027000,0.8168658,0.5213926488175988,3.5280887859523293,4.874690149407089,-1.0659726858139038,-1.3268121480941772,-0.3701465725898742,-2.757726929268241,-8.710189810800552,-3.5634158276602625,50,jumping
1783067263386951000,0.8367898,-0.0104535894751548,1.0953303083866834,4.644684585207701,-1.6475306749343872,-1.1805275678634644,-0.4706049859523773,-2.7702620011925694,-8.635269886633754,-3.73204483987689,50,jumping
1783067263406875000,0.8567138,1.3959113378077743,-2.0946207476884124,1.487591550378501,-1.665435791015625,-1.7470521926879885,-0.1334125697612762,-2.818665382094681,-8.522316292148828,-3.949130132226646,50,jumping
1783067263426797800,0.8766366,1.2636629680052398,-7.983792768049239,-2.0847449581012127,-1.4690197706222534,-2.0471553802490234,0.521739661693573,-3.007838585168123,-8.390451076444982,-4.089451918369531,50,jumping
1783067263446722000,0.8965608,-3.208020673511922,-12.116180157303807,-0.9056047321274876,-2.0651402473449707,-2.225069046020508,1.0510046482086182,-3.3121383428514,-8.196077089858054,-4.245520139698684,50,jumping
1783067263466645000,0.9164838,-8.21544463815093,-18.833063815033437,-2.7253736426740884,-2.7955093383789062,-2.6162586212158203,1.9574710130691528,-3.762596630007028,-7.880840343096851,-4.461570828303694,50,jumping
1783067263486569000,0.9364078,-16.33041814677119,-23.444719406342504,-2.241348893742263,-3.865405797958374,-1.8841822147369385,2.2361321449279785,-4.316578420001268,-7.40142542604804,-4.770369650971889,50,jumping
1783067263506492000,0.9563308,-21.78430782179832,-20.338347966229914,-1.4606734405755997,-4.88303804397583,-1.0201890468597412,1.0325028896331787,-4.693017531222105,-6.7997787985593074,-5.282895394983887,50,jumping
1783067263526416000,0.9762548,-16.74803448703289,-13.202328211325408,-7.798139263534545,-3.39328932762146,-1.467690110206604,-0.3169033229351043,-4.871905779385567,-6.287969678384065,-5.735534533309936,50,jumping
1783067263546340000,0.9961788,-10.310157155776023,-8.023446148523687,-10.965382813239096,0.070425160229206,-0.9745681285858154,-1.2203484773635864,-4.923848732590675,-6.167436004033684,-5.821411904820799,50,jumping
1783067263566263000,1.0161018,-6.670611735898256,-4.5541959205091,-10.329032536637785,3.0524561405181885,-0.7102243900299072,-2.0120739936828613,-4.808986674135923,-6.5150955954939125,-5.531505414149165,50,jumping
1783067263586187000,1.0360258,-4.765932545307279,-2.434444238695502,-5.271636918866634,4.060173511505127,-1.1103758811950684,-2.650510549545288,-4.578636534282565,-7.123508063855767,-4.945918525579572,50,jumping
1783067263606110000,1.0559488,-2.260156470064819,-0.9005214375138282,0.0142366151452064,3.524251937866211,-1.656083106994629,-2.648836135864258,-4.302649555630982,-7.721746928727626,-4.246436962282657,50,jumping
1783067263626034000,1.0758728,0.4289817838847637,0.021462474745512,2.9947917643293738,1.748803973197937,-1.6498769521713257,-1.6022891998291016,-4.091213082823157,-8.119102571249007,-3.675942136643827,50,jumping
1783067263645957000,1.0957958,2.567976218567789,2.576350955942273,3.970811510419845,-0.2757376730442047,-1.647221326828003,-0.3476281762123108,-4.048939582978189,-8.245970124796033,-3.4322654822275043,50,jumping
1783067263665880800,1.1157196,5.167925199979544,4.258073624062538,2.6941382541939616,-1.3634403944015503,-1.9858179092407229,0.5981206893920898,-4.198123305490613,-8.172143841084837,-3.42960649215132,50,jumping
1783067263685803800,1.1356426,5.324091913247108,5.250860088297724,3.963100205390155,-1.7836562395095823,-1.8061211109161377,0.9778531789779664,-4.468314165084064,-7.988629102164507,-3.5194241257205605,50,jumping
1783067263705727700,1.1555665,6.722431939506531,3.884423266777396,4.255114189735055,-1.8624267578125,-1.7086522579193115,1.0720100402832031,-4.745869123704731,-7.765424157890677,-3.6531224020704633,50,jumping
1783067263725652000,1.1754908,6.111874275809526,0.5027309107065201,3.5398742085531354,-2.3231794834136963,-2.042527198791504,0.7434374094009399,-5.042563374820351,-7.51923756648004,-3.768819157783687,50,jumping
1783067263745575000,1.1954138,4.5160207958936684,0.4617243620574474,3.9810611017555,-3.358335494995117,-2.04903244972229,-0.0103945275768637,-5.251788893580437,-7.266344755429029,-3.973579221567512,50,jumping
1783067263765499000,1.2153378,3.0985066980868576,3.2217531385272737,3.1281214996278286,-3.964721441268921,-1.803613305091858,-0.8041046261787415,-5.347410244992375,-7.00339466074407,-4.304422995044291,50,jumping
1783067263785421800,1.2352606,1.876912647265196,5.6539037133276455,0.5578855194345116,-3.5428009033203125,-1.6635478734970093,-1.7537695169448853,-5.329799769499898,-6.79414166945517,-4.647929558478295,50,jumping
1783067263805346000,1.2551848,2.3837445635497567,8.676330211296676,-1.7982915304929017,-2.1426122188568115,-1.6595319509506226,-2.490386486053467,-5.195734413403272,-6.747202223625779,-4.8631256760805845,50,jumping
1783067263825269000,1.2751078,3.4536282959908244,10.735539453864098,-2.158553998416662,-0.603825032711029,-1.523738980293274,-2.752938270568848,-4.989658298584819,-6.886561594477295,-4.883541272121668,50,jumping
1783067263845193000,1.2950318,4.661208726768195,11.134707114243506,-1.469635914710164,0.3124986588954925,-1.2481786012649536,-2.4030466079711914,-4.758772444419563,-7.133248536625504,-4.758281153771281,50,jumping
1783067263865117000,1.3149558,5.138472311002015,10.689663837873937,-0.1773904108211398,0.5718948841094971,-0.8409438729286194,-1.8766791820526123,-4.5477027590975165,-7.375041276991367,-4.593205450122058,50,jumping
1783067263885040000,1.3348788,5.892669214826822,9.848366158223152,-0.1017217141136527,0.8248586058616638,-0.4068488180637359,-1.3146121501922607,-4.366963914631307,-7.577614352124929,-4.43618767298311,50,jumping
1783067263904964000,1.3548028,6.106936819407344,8.39651724461615,0.4626113740250468,1.526053547859192,0.16689033806324,-0.9157752990722656,-4.21042953709513,-7.770582563567161,-4.249789487580955,50,jumping
1783067263924887000,1.3747258,5.72096123355627,6.914578897693753,1.3049936340421435,2.268540143966675,0.3364357054233551,-0.8419109582901001,-4.053250431914627,-7.997805511310696,-3.971984938113392,50,jumping
1783067263944810800,1.3946496,5.093531345513463,4.701284424307942,2.9251097408160565,2.162526607513428,0.3049676120281219,-0.9080078601837158,-3.888051394146681,-8.241860935911536,-3.622869887147844,50,jumping
1783067263964734000,1.4145728,4.0584135137662285,2.637113175418973,5.689162073713541,1.2356356382369995,0.5340877175331116,-0.7446581721305847,-3.718286655898392,-8.427190030777455,-3.3655887780100104,50,jumping
1783067263984658000,1.4344968,2.771821797855198,0.8635247090280056,6.467503238713741,0.2160516232252121,0.723468005657196,-0.7046803832054138,-3.558616026163101,-8.523922558301686,-3.293839300572872,50,jumping
1783067264004582000,1.4544208,1.4483493810534476,-0.254563959133625,5.128800811815261,-0.3524697124958038,0.8668841123580933,-0.8824429512023926,-3.3725393278002738,-8.570463360202313,-3.3680151283741,50,jumping
1783067264024504800,1.4743436,0.23357319355309,-0.5984422784894704,3.5488334678173064,-0.1760530322790146,0.9908572435379028,-1.1576871871948242,-3.134447780039906,-8.61459534739554,-3.4834421272352336,50,jumping
1783067264044429000,1.4942678,-0.2081304169997573,0.8670891235113143,1.8732476950168608,0.5346986651420593,0.6436306834220886,-1.5634220838546753,-2.839987279325724,-8.703760070013999,-3.5141739501073954,50,jumping
1783067264064352000,1.5141908,1.1627075620889662,-0.2146966436475515,-0.3987447587922215,1.8297662734985352,-0.0352450422942638,-1.612816333770752,-2.5288988844156264,-8.871896622538566,-3.326333749203384,50,jumping
1783067264084276000,1.5341148,0.7682720447979867,-5.342611320278048,-1.0142582913309337,2.361734390258789,-0.7483780384063721,-1.1757394075393677,-2.304152409788221,-9.077215781509876,-2.9095389544576404,50,jumping
1783067264104199000,1.5540378,-2.7828081790328025,-8.954003827860952,2.000830411095917,1.7038586139678955,-1.2108091115951538,-0.5464380383491516,-2.2053609039075672,-9.226216256409884,-2.4867034182429317,50,jumping
1783067264124123000,1.5739618,-5.335715131023526,-13.31760060414672,2.124098186585307,1.2329694032669067,-1.137978434562683,-0.0549492537975311,-2.2007829284675418,-9.307605084329843,-2.1668943951301274,50,jumping
1783067264144047000,1.5938858,-6.607574557226896,-19.375520002406837,0.9944465064018964,0.2787606120109558,-0.5188416838645935,1.2128931283950806,-2.3364148032285272,-9.318089068943262,-1.9709815085381268,50,jumping
1783067264163970000,1.6138088,-9.99924645552039,-23.20501866981983,-0.0593430003285408,-1.3042165040969849,0.1300988346338272,1.6073240041732788,-2.636003168350458,-9.218606365928052,-2.058926918494701,50,jumping
1783067264183894000,1.6337328,-17.13218461102247,-20.655451091384887,-3.6314977225005625,-1.6610952615737915,0.5450683236122131,-0.4577308297157287,-2.7465727903082966,-9.107766987118124,-2.382287935000658,50,jumping
1783067264203817000,1.6536558,-15.762064132553338,-18.446895921480653,-10.850097560936211,0.1506872624158859,0.6991806030273438,-1.7967640161514282,-2.473971362441778,-9.134905169412493,-2.569701727186143,50,jumping
1783067264223741000,1.6735798,-9.082891489058731,-14.661901581704615,-12.6911065356493,1.8073681592941284,1.0392019748687744,-1.6326439380645752,-2.1134426447972654,-9.267245601412654,-2.412863544397801,50,jumping
1783067264243664100,1.6935029,-5.717238413640857,-6.600173925581574,-9.83195629069209,2.7214255332946777,1.110848069190979,-1.805957078933716,-1.7534191001959143,-9.432147994321584,-2.032360398608446,50,jumping
1783067264263587800,1.7134266,-2.419361966506392,0.4214432050734758,-6.170826230993867,3.289533853530884,0.5641428828239441,-2.136531114578247,-1.342377754410356,-9.601859248816966,-1.4740094536192714,50,jumping
1783067264283511800,1.7333506,2.160697732447088,5.38736699232757,-1.511328107535839,2.5304555892944336,-0.1117820963263511,-1.6853697299957275,-0.9505785769723356,-9.719227152612804,-0.8963408638935536,50,jumping
1783067264303435000,1.7532738,4.73249029443264,6.771354083585739,2.703436536154151,0.5958921909332275,0.1056734025478363,-0.2392612546682357,-0.7624551021475344,-9.75916753333509,-0.5896558185089379,50,jumping
1783067264323359000,1.7731978,6.678488168361783,10.09016883546114,1.7882688797809183,-0.390096515417099,-0.5470587611198425,0.667670726776123,-0.8153875047814101,-9.755128487077355,-0.5856314948963001,50,jumping
1783067264343282000,1.7931208,5.696577902927994,11.785622507292032,2.5476234586298463,-0.7937055230140686,-0.636206865310669,1.0722392797470093,-1.0002013436015695,-9.73109586958289,-0.68972348180525,50,jumping
1783067264363206000,1.8130448,4.758056989626586,14.798499671149251,3.4858033034086224,-1.0984398126602173,-0.646144688129425,1.041100025177002,-1.2174815740015357,-9.69241513353288,-0.8632542215235531,50,jumping
1783067264383128800,1.8329676,4.932097505497932,16.238352442014218,1.981187845253944,-0.8773643374443054,-1.236928105354309,0.8823052644729614,-1.4211499700911343,-9.64741396228969,-1.0383211578331888,50,jumping
1783067264403053000,1.8528918,5.104471841722726,16.003956826162337,1.184094048988819,-0.291762501001358,-2.1057369709014893,0.8243708610534668,-1.6146235007070004,-9.609792379903793,-1.102391552009806,50,jumping
1783067264422977000,1.8728158,5.331751488089561,14.243810609668492,0.4474077404785901,0.1635582745075225,-2.899813175201416,1.0816797018051147,-1.848636985373497,-9.576912439087032,-1.017676648407057,50,jumping
1783067264442900000,1.8927388,4.546318319001793,11.878937919849156,1.84314774030745,-0.4369165599346161,-2.561642408370972,1.6104758977890017,-2.1539124562211334,-9.522744211047888,-0.9210807528745384,50,jumping
1783067264462824000,1.9126628,3.765970490354299,9.996549471521377,0.6444629289735109,-1.034642219543457,-2.495635509490967,1.963781476020813,-2.541784961734712,-9.423437449121474,-0.9531650863341986,50,jumping
1783067264482747100,1.9325859,3.9369282377794383,8.83192233954668,-0.6879578603722155,-1.180578589439392,-2.463188409805298,2.2243683338165283,-2.9816420676380395,-9.286522548812629,-1.0201552404150367,50,jumping
1783067264502671000,1.9525098,4.459520033253729,7.231912324473261,0.6719681179493665,-1.3956496715545654,-2.5747616291046143,2.4338834285736084,-3.468020978480577,-9.106721861979365,-1.1003805044483392,50,jumping
1783067264522594000,1.9724328,3.654674015426636,5.960044714963436,0.2803899628508836,-1.1518023014068604,-2.7099781036376958,2.058072805404663,-3.9367406062528487,-8.909251662942767,-1.1391604630891232,50,jumping
1783067264542518000,1.9923568,2.665556887353957,3.965005454489588,0.3325041079044342,-0.6949852705001831,-2.2615623474121094,1.3912562131881714,-4.29750459395796,-8.746375807425379,-1.0967033503055572,50,jumping
1783067264562442000,2.0122808,2.4635639501959083,2.587338213902712,0.473567944586277,-0.3103428483009338,-1.9659501314163208,0.6084505915641785,-4.516591873779893,-8.64706320028007,-0.999544048736617,50,jumping
1783067264582365000,2.0322038,2.850312858507037,2.297261042839289,-0.2638672095298767,0.0618187077343463,-1.798866868019104,-0.0089050251990556,-4.598977603782713,-8.619598854771256,-0.8498853291235864,50,jumping
1783067264602289000,2.0521278,4.2761309665396805,1.7682535351037978,-0.4474783214967697,0.2045732140541076,-1.7094584703445437,-0.0886315405368805,-4.61161818190813,-8.629436358174681,-0.6604381314143538,50,jumping
1783067264622211800,2.0720506,4.611031321930885,0.5704349121451378,0.4031249466378241,-0.0613111518323421,-1.7221848964691162,0.0034208898432552,-4.6225528328984975,-8.635152397733926,-0.4863233812630176,50,jumping
1783067264642135800,2.0919746,3.222756470350921,-1.8871710064291956,1.845757046023011,-0.7355236411094666,-1.660531520843506,0.0693573132157325,-4.642668276949227,-8.629211317247151,-0.3908306611994281,50,jumping
1783067264662059000,2.1118978,1.2349150124266743,-4.10457992939651,3.329087724086642,-1.8139060735702517,-1.3509211540222168,0.1266035437583923,-4.675233160467446,-8.607882698014379,-0.4657723222739994,50,jumping
1783067264681983000,2.1318218,-1.0531564695239066,-3.690690500703454,4.375580059546232,-2.64150333404541,-0.990734040737152,-0.2688306272029876,-4.683949258625507,-8.583034672483802,-0.7500105580508708,50,jumping
1783067264701907000,2.1517458,-1.6551383203163743,-2.6656781756460664,3.072360449439287,-2.063488245010376,-1.099942684173584,-0.6652964353561401,-4.610188149105012,-8.587817815107107,-1.0797861908394843,50,jumping
1783067264721830000,2.1716688,0.3286787043973803,-8.883988626870513,-0.3500631454706192,-1.276761174201965,-1.2804133892059326,-0.0490710884332656,-4.569258757345378,-8.588745451346039,-1.2351974826298653,50,jumping
1783067264741754000,2.1915928,-1.4239005839735268,-15.33957872495055,1.5823482477851212,-1.5758670568466189,-1.1196930408477783,0.8889064788818359,-4.674280097526312,-8.512205817022918,-1.3652239385992289,50,jumping
1783067264761677000,2.2115158,-7.941937493616342,-19.13254711234569,2.1110072343438864,-1.5884103775024414,-0.9085973501205444,0.6573832035064697,-4.847738137334585,-8.383414601936936,-1.5453770921319725,50,jumping
1783067264781601000,2.2314398,-13.541290117067096,-24.959208608257768,-0.6605266864806413,-1.453686237335205,-0.869685173034668,0.4860839545726776,-4.963943427091837,-8.285179853156208,-1.698659628265351,50,jumping
1783067264801524000,2.2513628,-16.16279480446577,-28.34891417491436,-1.2815697960957884,-2.258662462234497,-0.1532549858093261,0.5127336382865906,-5.076169291824102,-8.162512089386581,-1.9432706409223377,50,jumping
1783067264821448200,2.271287,-19.20163292353153,-22.102603371608257,-3.298432473582029,-1.9579015970230105,0.1584355980157852,-0.9730061292648317,-5.05133120316565,-8.079451528862117,-2.318813241694868,50,jumping
1783067264841372000,2.2912108,-15.803663386398553,-15.14090324177742,-8.13364547586441,-0.0301185827702283,-0.02809539437294,-2.3775405883789062,-4.761032790566981,-8.203461354890464,-2.491222941493988,50,jumping
1783067264861295000,2.3111338,-8.355939150512217,-9.977606286120414,-6.949588836276531,1.5587224960327148,-0.1236021518707275,-2.5399343967437744,-4.340811528503894,-8.473607498559355,-2.350687512600422,50,jumping
1783067264881218800,2.3310576,-4.153164512084424,-2.521717448478937,-3.2518606920212507,2.3942747116088867,-0.94357568025589,-2.7231156826019287,-3.918886385132372,-8.772778661182523,-1.9624113947220143,50,jumping
1783067264901141800,2.3509806,-1.7720792308717963,6.156572080191969,-0.4463531899243593,2.6751186847686768,-2.1308488845825195,-3.3479371070861816,-3.426630691210925,-9.082734837192296,-1.3901492671497164,50,jumping
1783067264921066000,2.3709048,2.0099568436205386,9.790721193984153,1.604565778681636,2.0162432193756104,-2.075156211853028,-2.744482517242432,-2.8949136322557925,-9.335373381221292,-0.8004130768809468,50,jumping
1783067264940989000,2.3908278,5.58933041113019,10.741499239051342,1.9928496414750811,0.5820707678794861,-2.01224136352539,-1.339335322380066,-2.5349267664030197,-9.462695692798494,-0.4493379048235714,50,jumping
1783067264960913000,2.4107518,7.2235986696362495,12.056565938818451,-0.0775608305970206,-0.3221523463726043,-2.458930492401123,0.022331703454256,-2.431454555360228,-9.494771331495048,-0.3282566065277904,50,jumping
1783067264980836900,2.4306757,6.123962773010135,12.217734990417956,-0.8179770098179578,-0.6721991896629333,-2.805966854095459,0.6487886905670166,-2.52592659060657,-9.47113618888557,-0.2960750597713515,50,jumping
1783067265000760000,2.4505988,4.113096413329243,13.561195425498484,-0.2157552127897739,-0.9430607557296752,-2.6286659240722656,0.374313473701477,-2.646198983672261,-9.437931838420033,-0.3057315805846825,50,jumping
1783067265020687400,2.4705262,3.372814929871261,13.427662568843363,-0.2091746653556823,-1.296114802360535,-2.030693769454956,-0.0359787084162235,-2.6900185439154503,-9.422463051131366,-0.3890767302041873,50,jumping
1783067265040610300,2.4904491,4.258479574514925,13.162630991709232,-1.358091602501273,-1.1666252613067627,-1.5198543071746826,-0.32182377576828,-2.672470904526114,-9.419745024344325,-0.5447000207774341,50,jumping
1783067265060534500,2.5103733,5.168606167981029,12.322514046275614,-3.623602000814676,-0.2342739850282669,-1.6114860773086548,-0.4302442669868469,-2.615189805163443,-9.432561835819484,-0.5982732785981149,50,jumping
1783067265080457500,2.5302963,5.165256273031234,10.742750115895271,-2.961969398918748,0.4112735688686371,-1.4636476039886477,-0.4673969745635986,-2.550338855068385,-9.456463520410656,-0.4913670379860326,50,jumping
1783067265100381400,2.5502202,3.786407129183411,9.83615432690382,-1.9042472289144992,0.4441174268722534,-1.4800481796264648,-0.5982542634010315,-2.4603186846643683,-9.487198265892268,-0.3320869054056704,50,jumping
1783067265120305700,2.5701445,2.953302108338475,8.350703003424405,-1.135145016902685,0.0180990137159824,-1.3555693626403809,-0.4877136945724487,-2.359390459015965,-9.51623029910922,-0.2121919673502445,50,jumping
1783067265140228600,2.5900674,3.0204104819715023,7.402107563093304,-0.5611076963514089,-0.5704758763313293,-0.9050163626670836,-0.0386901088058948,-2.311278170014918,-9.528010753273964,-0.2131172655016183,50,jumping
1783067265160152300,2.6099911,3.4188130031973123,6.952777987706661,-1.3539876743137835,-0.8577068448066711,-0.7717094421386719,0.4150933623313904,-2.3535429020315406,-9.514723401677609,-0.3182126572994515,50,jumping
1783067265180075500,2.6299143,3.0208441972136497,6.19545681438148,-1.4170815516084432,-0.9328991770744324,-0.8582800030708313,0.6711776256561279,-2.465090429110825,-9.481200486782193,-0.4478517213864251,50,jumping
1783067265199999200,2.649838,1.8423638964533804,4.607166463196277,-0.4431454068589955,-1.1580544710159302,-0.7945457100868225,0.7034080028533936,-2.6062641559079287,-9.434925642341376,-0.5999782924177125,50,jumping
1783067265219922400,2.6697612,0.5461901132047176,2.943104539451003,0.6347855115026235,-1.3967183828353882,-0.4990046620368957,0.581663191318512,-2.7365853570401666,-9.382609179648757,-0.8050730315160006,50,jumping
1783067265239846400,2.6896852,-0.0859600813582539,1.0184452216267583,1.2469143700391054,-1.5516459941864014,-0.2681995332241058,0.5257413387298584,-2.8454405762955544,-9.324828021809456,-1.058969393586367,50,jumping
1783067265259770400,2.7096092,-0.8474459731474518,-0.6340583662718534,2.07344059701562,-1.766370415687561,-0.1048687994480133,0.3033026754856109,-2.928958232937753,-9.260578544738888,-1.3539831442691386,50,jumping
1783067265279693300,2.7295321,-1.8667045569837093,-2.316240468597412,3.3773084418982267,-1.873331069946289,0.3656166195869446,0.2202237695455551,-2.970031709343195,-9.190142487987876,-1.7001701789587735,50,jumping
1783067265299617500,2.7494563,-1.583000428083539,-3.2854543340653177,2.906746108868718,-1.263524889945984,0.3943068087100982,0.3355211019515991,-2.9974066230028864,-9.11486366738081,-2.026128810742497,50,jumping
1783067265319540500,2.7693793,-2.0262758179977536,-6.1167632168948645,1.7980594753026962,-0.6376856565475464,-0.4868945181369781,0.3466831743717193,-3.063347998683154,-9.056190529137847,-2.1844239143408832,50,jumping
1783067265339464400,2.7893032,-7.058107663184404,-7.716496168592572,4.480477773347497,-1.2058442831039429,-0.4786042869091034,0.5192256569862366,-3.169024295641482,-8.991140841600298,-2.299359914814681,50,jumping
1783067265359387400,2.8092262,-10.058938999938963,-8.441582128745317,5.98944850410223,-1.4145015478134155,-0.221205249428749,0.5763435363769531,-3.2828985121026637,-8.88719999013245,-2.5319217393681406,50,jumping
1783067265379311400,2.8291502,-10.714718784153462,-11.705810719430444,1.2344301515191791,-0.559394359588623,-0.4327110350131988,0.518667995929718,-3.398201592323184,-8.795738096487522,-2.693995046330988,50,jumping
1783067265399235600,2.8490744,-12.54276423239708,-14.648296250200271,-2.0020608296737072,0.7800067067146301,-0.529908299446106,0.1856681853532791,-3.489857839496433,-8.77552416049838,-2.642241185957193,50,jumping
1783067265419158500,2.8689973,-13.448387376964092,-16.694230416131017,-3.868460558491945,1.4343770742416382,-0.8986176252365112,-0.3668354749679565,-3.510491169941425,-8.841127390265465,-2.3835483103252946,50,jumping
1783067265439082500,2.8889213,-13.434617210286856,-17.089190687948463,-2.965337121786177,0.7860008478164673,-0.8963156938552856,-0.667620837688446,-3.453332527914643,-8.933087296560407,-2.1082748867705465,50,jumping
1783067265459005400,2.9088442,-10.40542720953226,-15.055012426263094,-3.0549250382527706,-0.037956777960062,-0.7998793125152588,-0.3662162721157074,-3.390411084577441,-8.983818535888194,-1.9916030024148523,50,jumping
1783067265478929400,2.9287682,-5.855495960730314,-10.40151091287136,-5.10573265543878,-0.3421815931797027,-0.9836013913154602,-0.1657074242830276,-3.382081939910352,-8.990923983979224,-1.973622670696676,50,jumping
1783067265498852600,2.9486914,-2.370477377958596,-4.9726428663760425,-6.1667807549953455,-0.2276908904314041,-1.0706229209899902,-0.2172417342662811,-3.3899718163773414,-8.991838176214694,-1.955847798422724,50,jumping
1783067265518776300,2.9686151,-0.3580284252613783,-0.5738502735465765,-5.387372253024577,-0.2082322090864181,-0.9128462672233582,-0.3222038149833679,-3.379170436377823,-9.002207010015844,-1.9266143974147736,50,jumping
1783067265538700300,2.9885391,1.8927184114232656,2.6418799514293667,-4.510599355366826,-0.1880729496479034,-0.791261613368988,-0.1823598742485046,-3.3632071435704827,-9.01284998458326,-1.9046638468913728,50,jumping
1783067265558623200,3.008462,3.6486288900434967,4.840428106582165,-3.289640679839253,-0.0867193937301635,-0.5514206290245056,-0.100711390376091,-3.3679087453901766,-9.014419425857067,-1.8888675812140103,50,jumping
1783067265578547500,3.0283863,4.124475885477662,6.871269917321205,-2.290795500086993,0.4381882548332214,-0.3449248671531677,-0.2564376294612884,-3.351747007401287,-9.03203691561222,-1.832618162986636,50,jumping
1783067265598470400,3.0483092,4.310544400534034,8.093554288494586,-1.0381118989966809,0.9185978770256042,-0.2312972545623779,-0.4243472218513489,-3.300340645290911,-9.079365653020142,-1.686190022792667,50,jumping
1783067265618394400,3.0682332,4.263885817472636,9.19873086811304,0.9309436099149286,0.9347733855247498,-0.0940837934613227,-0.4939561486244201,-3.2198639637798068,-9.14082053093612,-1.499416574337333,50,jumping
1783067265638317300,3.0881561,4.37758935354203,9.747016492292284,2.726684140750766,0.395976185798645,0.0389512218534946,-0.4488280713558197,-3.1338018833518024,-9.190964325764774,-1.3696204199925064,50,jumping
1783067265658241500,3.1080803,4.738536004337668,10.479124898427724,3.433729417300224,-0.1928325593471527,0.016489515081048,-0.4322805404663086,-3.054365066282451,-9.219326496896148,-1.3584053446255624,50,jumping
1783067265678165500,3.1280043,5.207119730770588,10.994722304970026,2.7608172964990136,-0.3219092786312103,-0.0216673295944929,-0.4796856343746185,-2.9694392964079976,-9.238725024849176,-1.4137795874536037,50,jumping
1783067265698088400,3.1479272,5.706202055841684,10.249799425446987,1.5823862417079508,-0.0566069260239601,-0.2579830884933471,-0.5162579417228699,-2.8837369892030957,-9.261292245966196,-1.4432231240808964,50,jumping
1783067265718012400,3.1678512,5.22660535248518,9.666098789015413,1.4148539386868475,0.1203722134232521,-0.3455985784530639,-0.5602938532829285,-2.791552334241569,-9.293950652986764,-1.4142553882718083,50,jumping
1783067265737935600,3.1877744,4.532969592607021,8.302216912674904,1.8530600625127556,-0.0766461566090583,-0.28815358877182,-0.4386609196662903,-2.704547712266445,-9.323343920731544,-1.389632257538289,50,jumping
1783067265757859600,3.2076984,3.9012259330183263,6.365816888174415,1.6402981863200663,-0.3525732159614563,-0.2181348949670791,-0.1745533645153045,-2.65414614328444,-9.333878758749366,-1.415841780680418,50,jumping
1783067265777782500,3.2276213,3.2613369608968497,4.844102995702624,1.53827997347787,-0.6545126438140869,-0.0340013578534126,0.0691330283880233,-2.6497677820697425,-9.3217084284842,-1.5016189066872,50,jumping
1783067265797706200,3.247545,2.6897128389671443,3.8499160170197486,1.6283384300656616,-1.026405930519104,-0.0171092469245195,0.1550434529781341,-2.6737013231039044,-9.28834391902089,-1.657816891875863,50,jumping
1783067265817630500,3.2674693,1.408581142027676,3.665195993962884,1.7445127401627598,-1.3506276607513428,0.0183945447206497,-0.0838439911603927,-2.684839972233772,-9.243236364793775,-1.877391078431904,50,jumping
1783067265837553400,3.2873922,0.5781149452537298,2.731615751934051,1.951114924681932,-1.4823299646377563,0.4481354057788849,-0.3177712261676788,-2.6378762687459587,-9.196558200249076,-2.1529757598929105,50,jumping
1783067265857477400,3.3073162,0.362363239595294,1.6456173355162145,1.6241297263294456,-1.3369221687316897,0.7054008841514587,-0.5879585146903992,-2.52896610443294,-9.154282654577491,-2.444143941063434,50,jumping
1783067265877400300,3.3272391,0.0572486583977937,0.8298696921855211,1.920814332833886,-1.3271621465682983,0.8203816413879395,-0.8170263171195984,-2.360620293071866,-9.121588591721654,-2.7192805864959952,50,jumping
1783067265897324300,3.3471631,-0.7576907372899353,0.7689052281349897,2.981932867278158,-1.5047436952590942,0.9517135620117188,-1.168155550956726,-2.133906171633303,-9.083967009335757,-3.01634922388196,50,jumping
1783067265917247500,3.3670863,-1.542178880612552,1.1166261943936346,2.5998282776415347,-1.4806193113327026,1.0702897310256958,-1.6893540620803833,-1.8097034436061976,-9.044725716793536,-3.3299101463854317,50,jumping
1783067265937171500,3.3870103,-0.7191578852780163,0.0017886369824409,0.7653674093976617,-1.1937376260757446,1.185323715209961,-1.7856121063232422,-1.412429780279845,-9.007427959534525,-3.611324703043699,50,jumping
1783067265957095400,3.4069342,0.3055146133657545,-2.8833249012708664,-1.8924936627566813,-0.5242059826850891,1.2251750230789185,-1.58111572265625,-1.0197348961111157,-8.983984540104865,-3.797176945000887,50,jumping
1783067265977018400,3.4268572,0.2669305426232516,-4.744429738551378,-3.7106823183745146,0.0848156884312629,1.1178754568099976,-1.5664997100830078,-0.6503020834557711,-8.992152648991345,-3.8585862302094696,50,jumping
1783067265996942600,3.4467814,0.5693896408759057,-7.291396779099107,-5.417963206121325,1.3968452215194702,1.1575590372085571,-0.7519354820251465,-0.3392470793586224,-9.056212156447767,-3.7470407489568,50,jumping
1783067266016863000,3.4667018,0.6825123083174228,-12.649731738209724,-6.029796881103516,2.500469923019409,1.0378261804580688,0.7058570981025696,-0.2535014444686472,-9.20050255396068,-3.384803181567788,50,jumping
1783067266036786700,3.4866255,-3.059120736376941,-15.054191757529972,-3.4163483666494487,2.510270357131958,0.6068270206451416,1.7119721174240112,-0.4388077429808676,-9.354095032826065,-2.9118256040900943,50,jumping
1783067266056710000,3.5065488,-9.770230779141189,-13.96316879094839,0.5281947300478815,1.7622809410095217,0.705322265625,1.3360893726348877,-0.7160730710051953,-9.4528733869642,-2.510144791845977,50,jumping
1783067266076633600,3.5264724,-10.752301203572747,-9.357548388150336,0.6253372996777296,1.3425837755203247,0.7714856266975403,0.5070205926895142,-0.8362339665204286,-9.508461418673395,-2.2495038508862257,50,jumping
1783067266096556800,3.5463956,-6.96714027505815,-6.984284302082657,-3.884367444936931,2.3879997730255127,-0.1857740879058838,0.6603809595108032,-0.9241486160125584,-9.572817863249778,-1.9176811493746933,50,jumping
1783067266116480800,3.5663196,-4.004191801974177,-2.5200620824873448,-5.771985902872681,3.57222580909729,-1.0951223373413086,1.164262771606445,-1.1138632324863225,-9.653405896180868,-1.319639122249186,50,jumping
1783067266136404700,3.5862435,-2.4370395158857105,-1.525325068706274,-2.911601732206345,3.520949125289917,-0.9171576499938964,2.365004062652588,-1.4637135389238596,-9.678940150409936,-0.5882719264024868,50,jumping
1783067266156327700,3.6061665,-0.3148249510899186,-5.111774858212471,-0.0903413651823997,2.5269875526428223,-0.8294979929924011,3.509061336517334,-2.0506462891444563,-9.589820435976982,0.0242009849148686,50,jumping
1783067266176252000,3.6260908,-0.2180328023329377,-5.107048414212465,3.1785540482699868,1.436351299285889,-1.3012104034423828,3.313653945922852,-2.706334595683217,-9.41498117094338,0.4519533845515921,50,jumping
1783067266196174800,3.6460136,-0.2186918507635593,-2.940059764927625,5.642413182020187,0.1270749270915985,-1.312189698219299,2.430091857910156,-3.2352436114802954,-9.232511557161809,0.6814214443407952,50,jumping
1783067266216098800,3.6659376,-0.0883849704176187,0.2260872217118739,4.984757082539796,-0.4783821702003479,-0.7658342719078064,0.90226149559021,-3.5256621433272954,-9.124435797846315,0.6962342519387602,50,jumping
1783067266236021800,3.6858606,4.621356024329364,2.311117718756199,0.8945241698604076,0.8386096954345703,0.0246371310204267,-0.3366575837135315,-3.565512799939513,-9.106609049254656,0.7260510057926177,50,jumping
1783067266255946000,3.7057848,11.59672139915824,-4.285823800775408,-3.4475124434590336,2.803074359893799,-0.9594368934631348,-1.043285846710205,-3.4467090181216595,-9.1157199919492,1.092814745369181,50,jumping
1783067266275870000,3.7257088,8.021015706506372,2.7192174581319093,1.10412093308568,2.8715646266937256,-1.4428226947784424,-2.798431873321533,-3.053795449700951,-9.157824272707105,1.7259747745618224,50,jumping
1783067266295793000,3.7456318,5.954136367702484,6.296181626412272,2.739201677018404,1.5491604804992676,-1.085884690284729,-3.338719129562378,-2.4131122584618625,-9.244041835957765,2.212456268996,50,jumping
1783067266315716900,3.7655557,7.001478597989678,5.717538273370265,-0.6918915465593337,0.0331667400896549,-0.9073777794837952,-2.397352695465088,-1.8231195361487569,-9.333979881036282,2.3923731295548376,50,jumping
1783067266335639800,3.7854786,6.070100834441185,8.99824512064755,-4.213164807277917,-0.6145105361938477,-0.6174331903457642,-1.4270156621932983,-1.4382184476613995,-9.412142148125172,2.3480815678857265,50,jumping
1783067266355563800,3.8054026,5.821262851738929,9.344094447815417,-8.509196113812923,-0.5504438281059265,-0.7417296171188354,-0.3135552108287811,-1.2392102254025636,-9.463656062263247,2.2525484792791306,50,jumping
1783067266375487000,3.8253258,3.9360850649535655,8.564632169830798,-7.950051241967081,-0.6637392044067383,-0.6422103047370911,0.4250799715518951,-1.229140374547988,-9.486249002343415,2.1611700261339544,50,jumping
1783067266395410700,3.8452495,1.3510320393785833,8.183656584224105,-6.6892147295594215,-0.9885282516479492,-0.3943206369876861,0.5785725712776184,-1.3086847436450422,-9.50735199612677,2.016929897503555,50,jumping
1783067266415334700,3.8651735,-0.056931993664056,7.842225073498487,-5.818681603074073,-1.1860847473144531,-0.071845531463623,0.4241055250167846,-1.3975458071418103,-9.535675004291534,1.8133320093669,50,jumping
1783067266435257900,3.8850967,-0.2018725256487727,7.309893974298238,-6.05599047602415,-1.0947468280792236,0.0455188415944576,0.1819749176502227,-1.4559624864056706,-9.566578676599264,1.5909538713060318,50,jumping
1783067266455181800,3.9050206,-0.6474892179921269,6.6128983825981615,-6.12382073419094,-0.7737088799476624,0.3289549350738525,-0.105954885482788,-1.4686857743784785,-9.593229952159524,1.4082904885180294,50,jumping
1783067266475104800,3.9249436,-0.9801429635003208,6.050074529978633,-5.286263994634151,-0.6326778531074524,0.6091536283493042,-0.4115901291370392,-1.4326139056526124,-9.6190810172528,1.2614615124382078,50,jumping
1783067266495028700,3.9448675,-1.1505961224041878,5.053723651260137,-4.652044884842634,-0.6408698558807373,0.5658155679702759,-0.8197163939476013,-1.3291983932331204,-9.650741645407676,1.125535550101474,50,jumping
1783067266514951700,3.9647905,-0.9604128655053674,3.973652871325612,-3.2265280978441235,-0.970657765865326,0.830342710018158,-1.0554975271224976,-1.1536672004126012,-9.691006435778736,0.9611644875902682,50,jumping
1783067266534876000,3.9847148,-0.093461981420964,1.0521247883886098,-1.680142705452442,-1.792507290840149,1.6959140300750732,-0.9991397261619568,-0.9801879716858268,-9.73424878065586,0.673830039363727,50,jumping
1783067266554798800,4.0046376,1.398340610781312,-0.6658575261145829,-2.705450214064121,-2.529956340789795,1.9557284116744995,-1.3546650409698486,-0.7686656472254544,-9.774208450600504,0.2106920476486906,50,jumping
1783067266574722800,4.0245616,2.2585674473077058,-6.210120715028047,-5.296516508579254,-2.384096145629883,1.6734464168548584,-1.6119554042816162,-0.4799748890191316,-9.790179342192411,-0.3039699046744033,50,jumping
1783067266594646800,4.0444856,0.2864164931314066,-9.805450561082363,-4.48379201246202,-1.4675467014312744,1.229893684387207,-1.9371038675308228,-0.1126872351663187,-9.781063723322749,-0.6989061745617539,50,jumping
1783067266614570000,4.0644088,-0.493819509172067,-16.36634520019889,-3.611474340647459,-0.505427360534668,0.5548444986343384,-1.3548383712768557,0.2333003679610788,-9.763971718746424,-0.8836394954916089,50,jumping
1783067266634494000,4.0843328,-3.4768192019641395,-21.89749931669235,1.6017004523783922,0.7688313126564026,0.707298994064331,-0.2645037770271301,0.4143361860798671,-9.759831550201772,-0.8627902572736144,50,jumping
1783067266654417000,4.1042558,-11.617789906150104,-24.842638576841352,6.875655585059524,1.6763482093811035,0.8328290581703186,-0.0377068482339382,0.4269917060460895,-9.779014389577508,-0.5991060761604458,50,jumping
1783067266674340600,4.1241794,-15.126388394212722,-17.56660011039376,9.859524681097268,0.3530613780021667,0.3639868497848511,-1.27947998046875,0.5462987612109631,-9.784909292834996,-0.3570878564756363,50,jumping
1783067266694263800,4.1441026,-12.656853552913663,-6.531665622022747,8.211037927624583,-2.0566117763519287,1.1047101020812988,-2.2525980472564697,0.914940788814798,-9.7487554449141,-0.5431583077607676,50,jumping
1783067266714187800,4.1640266,-2.726523981752992,-7.344409991884231,-1.055900799795985,-1.3370593786239624,1.952617049217224,-1.06199049949646,1.2949408804528415,-9.681206926298142,-0.8762200130153447,50,jumping
1783067266734111700,4.1839505,6.347340735763311,-2.0981869157373905,-12.702062813949585,1.1080708503723145,0.9660022258758544,0.5513473749160767,1.3569009314119815,-9.673204821628332,-0.8708165465366094,50,jumping
1783067266754034700,4.2038735,2.9741014430001376,1.977284992596507,-8.686383403277397,2.49074387550354,0.8897924423217773,0.923340141773224,1.2048279171988368,-9.720880765038729,-0.4724851908508688,50,jumping
1783067266773959000,4.2237978,-2.044652893948555,3.517542842018604,-2.4621722035765647,2.2231132984161377,1.0367830991744995,0.3879012167453766,1.0745524549044667,-9.747554836952686,0.0299630829723901,50,jumping
1783067266793881900,4.2437207,-1.4785245929561557,4.583727135419846,0.4044236446788534,1.097267746925354,0.8034040927886963,-0.1351673305034637,1.053853146551177,-9.742632578119634,0.3753384199699386,50,jumping
1783067266813805800,4.2636446,1.336301210975647,5.580754305964708,1.9499404740750788,-0.1653791666030883,0.6474969387054443,0.1020145937800407,1.0614918978013097,-9.737087803474068,0.4824188115725293,50,jumping
1783067266833728800,4.2835676,4.001922687998414,7.693464252573251,1.937795278251171,-0.8145949244499207,0.4347228109836578,0.6251223087310791,0.9877432824362068,-9.749185653024911,0.3848798630362376,50,jumping
1783067266853652700,4.3034915,4.568185575155914,8.50006179024279,1.919703156721592,-0.8878961801528931,0.2427370995283126,0.9487354755401612,0.8262500403836369,-9.769438167458771,0.2139793622236698,50,jumping
1783067266873575700,4.3234145,3.526564352864027,6.440333492237329,3.1882956900835038,-0.8383054733276367,0.331338882446289,0.6638054847717285,0.6531132684189825,-9.78473510531187,0.0530039061006624,50,jumping
1783067266893500000,4.3433388,1.7696902899086475,7.852114014828205,3.681357439690828,-0.955083429813385,-0.2090633660554886,-0.2912163436412811,0.6146350692037492,-9.786630125278236,-0.1204311364245135,50,jumping
1783067266913424000,4.3632628,0.3755199505493045,9.38900209555626,2.4942110173940657,-1.0425888299942017,-1.038035869598389,-1.269315481185913,0.7609776500061154,-9.77162544836998,-0.3265608354605734,50,jumping
1783067266933346800,4.3831856,0.6555672374423593,10.954103878855705,-0.3484463213911279,-1.1520087718963623,-1.50604248046875,-1.6172009706497192,1.0503012992884964,-9.733958857798577,-0.5632954521866514,50,jumping
1783067266953271000,4.4031098,1.8572700814232228,9.80157693451941,-1.6957839266985657,-1.3831647634506226,-0.6716544032096863,-0.7741329669952393,1.2779369925513864,-9.68710416764319,-0.8350368656903505,50,jumping
1783067266973194000,4.4230328,2.3665489524684844,8.275894138416648,-3.02007847353816,-1.2468578815460205,0.0626429691910743,0.3495591282844543,1.3124413196995854,-9.655852704811096,-1.1010906985443083,50,jumping
1783067266993117700,4.4429565,0.8999481676705181,7.120437570369243,-3.762016784292459,-0.928472638130188,0.1325341016054153,0.8489590287208557,1.1876461154472082,-9.646171268752216,-1.308154436160624,50,jumping
1783067267013039600,4.4628784,-1.3026137531682849,5.899039918902516,-1.703805905112624,-0.5203474760055542,0.3747153282165527,0.7677989602088928,1.0304231711249798,-9.64491746929884,-1.4436715985007584,50,jumping
1783067267032963800,4.4828026,-2.2337026167728005,3.9439468843698497,-0.6628980917870998,-0.202613279223442,0.9445735216140748,0.4321019351482391,0.9323045230045914,-9.646635963654518,-1.4978687603734433,50,jumping
1783067267052887600,4.5027264,-2.339417930567264,2.740787484905124,0.0252934312105178,0.1459642648696899,1.1170564889907837,-0.1420295238494873,0.9355179320931434,-9.648059274455903,-1.486653977267444,50,jumping
1783067267072810800,4.5226496,-1.8631719989433884,2.1255618293970824,0.0759041128985583,0.4289508163928985,0.9900667071342468,-0.8060527443885803,1.0543807506218552,-9.64784533944428,-1.4063323401875794,50,jumping
1783067267092734500,4.5425733,-1.4944659661926327,2.5896079124003646,0.9504261628895996,0.3462753891944885,0.7996432185173035,-1.3012443780899048,1.288414839684963,-9.63364788726568,-1.3050672838002442,50,jumping
1783067267112657700,4.5624965,-0.4126484887212515,1.2550316255211829,2.083777720504254,-0.0774432718753814,0.9491496086120604,-1.0602575540542605,1.5489967439338563,-9.60211702297032,-1.2531392359033229,50,jumping
1783067267132581600,4.5824204,1.6966832136258485,-0.1789589753121137,1.9654459401123223,-0.5187877416610718,0.6572178602218628,-0.6803107857704163,1.7294196543186902,-9.567537292498349,-1.2813026695922016,50,jumping
1783067267152504600,4.6023434,3.098709234921634,-0.474429529851675,0.965153776422143,-1.234675645828247,0.0248338002711534,-0.4522486329078674,1.8513026974514128,-9.523457327753304,-1.4306762155883013,50,jumping
1783067267172428500,4.6222673,4.514790961837768,-3.2900773176908493,0.5749614496588706,-2.041876792907715,-0.0484111048281192,0.2234760373830795,1.875482614462077,-9.46592926789224,-1.7461748281560838,50,jumping
1783067267192351500,4.6421903,4.499837722855806,-5.483166622915864,-0.8479542149305344,-2.311671018600464,-0.126188725233078,0.5868457555770874,1.781051057356596,-9.396048506936433,-2.1708346571885047,50,jumping
1783067267212275700,4.6621145,2.6880700401961803,-4.913888479590415,-1.9754545622989532,-1.3402471542358398,-0.3406883776187897,0.2158474028110504,1.6984071148090063,-9.3184438737303,-2.5401596986204384,50,jumping
1783067267232199700,4.6820385,2.593392691636085,-8.741717752486467,-3.946862187294662,0.2651174962520599,-0.554998517036438,0.398851603269577,1.6257896223656831,-9.300687852287291,-2.6503610717877746,50,jumping
1783067267252122600,4.7019614,0.6874439195007085,-16.773945173358918,-1.9419582431495188,0.8046576976776123,0.0365325957536697,1.0398625135421753,1.4760167017884551,-9.356821827441454,-2.538041683553159,50,jumping
1783067267272046600,4.7218854,-4.228862727147341,-21.732799752879146,2.2426292889416217,0.1081883013248443,0.352990061044693,0.9859946966171264,1.2841444688893855,-9.412323349910974,-2.4350629551157352,50,jumping
1783067267291969800,4.7418086,-8.741764514237643,-20.92620630686283,2.956774752885103,-1.0258917808532717,-0.1666421443223953,-0.0284222550690174,1.190153495158255,-9.403241633310914,-2.5165409226238724,50,jumping
1783067267311893800,4.7617326,-9.32352103086412,-16.020953553670644,3.158337189671397,-1.679186463356018,0.1373649388551712,-0.6317137479782104,1.2622440411180258,-9.31598479014039,-2.7909768724411723,50,jumping
1783067267331816700,4.7816555,-4.6230736419022085,-10.117052166211604,-1.5697598382383584,-0.310172438621521,0.0606418848037719,-0.6245812177658081,1.3934452399551869,-9.23168796581924,-3.0007714232608675,50,jumping
1783067267351740700,4.8015795,-1.482799055404961,-4.033977868428826,-4.33422776619941,1.8543020486831665,-0.4650503098964691,-0.3826405107975006,1.4763643461823464,-9.264615252909064,-2.856158369664848,50,jumping
1783067267371664600,4.8215034,-0.8380236264161766,0.1862614072799682,-1.5098466368064285,2.8490922451019287,-0.7067053914070129,-0.0898722857236862,1.4880495232790707,-9.386430783763528,-2.418889088297635,50,jumping
1783067267391587800,4.8414266,-0.3910270240217447,1.7763158455282448,0.1051888057023286,3.1730382442474365,-1.1758780479431152,0.1289766728878021,1.4432786536604163,-9.51736836322844,-1.87270818131268,50,jumping
1783067267411511600,4.8613504,0.0141999363966286,2.8116782996863123,1.327608201432228,3.0023908615112305,-1.3074005842208862,0.651003360748291,1.3370277716845274,-9.62617477490604,-1.3112977026224135,50,jumping
1783067267431434800,4.8812736,0.5054891964387148,3.421325862801075,2.12629306628108,2.2860164642333984,-1.229992389678955,1.434533953666687,1.1077539558257907,-9.708650229018929,-0.8278875784575939,50,jumping
1783067267451358700,4.9011975,0.4237530163858086,5.842514898604154,1.7591957839012144,1.6372301578521729,-1.5399683713912964,1.8435264825820925,0.7646689788047224,-9.76511504356265,-0.4776991261068731,50,jumping
1783067267471281700,4.9211205,-0.3451359912667423,6.97099987309575,0.5605260970711707,1.1813031435012815,-2.1403703689575195,1.87900984287262,0.3838922402383759,-9.796606160369516,-0.2224949511072598,50,jumping
1783067267491205600,4.9410444,-1.4515274265676736,7.029514605906606,1.415323309764266,0.374763160943985,-2.1856720447540283,1.6610996723175049,0.0272767025657813,-9.806340787920355,-0.07307406797125,50,jumping
1783067267511128600,4.9609674,-1.6638061954185366,7.741729394048452,0.9325544061124325,-0.1930696219205856,-2.0787198543548584,1.1046366691589355,-0.2488616558387875,-9.803286076524854,-0.063459313073568,50,jumping
1783067267531052500,4.9808913,-0.8580121561516075,7.665148258671164,-1.368142456394434,0.1750575900077819,-1.9496349096298216,0.548488438129425,-0.4119622600227594,-9.797784556499122,-0.0641887689924333,50,jumping
1783067267550975500,5.0008143,0.3648359863843768,7.69598412643969,-2.7471383152365685,0.8361131548881531,-1.7771694660186768,0.228292629122734,-0.4848454907301813,-9.794503050610423,0.0551581843579886,50,jumping
1783067267570899700,5.0207385,0.4325669123625382,7.394560216453671,-2.3315888443768022,0.9586324095726012,-1.4961963891983032,-0.193156361579895,-0.4855386606261134,-9.791305715873836,0.2549186908554285,50,jumping
1783067267590823700,5.0406625,0.3220897909937426,6.879717427670955,-1.4571078570485114,0.6607679724693298,-1.2435983419418335,-0.5347932577133179,-0.4039414506524801,-9.78882032879889,0.4314914651507511,50,jumping
1783067267610746600,5.0605854,1.0240329586312171,7.0878060513556,-1.9297043262541291,0.244249016046524,-1.102315068244934,-0.6834246516227722,-0.2677644726967439,-9.78891502134502,0.5252061426911503,50,jumping
1783067267630670800,5.0805096,1.8786825795471669,6.449649602115154,-3.035212914305925,0.0913340598344802,-0.8272615671157837,-0.5735039114952087,-0.1361526380989234,-9.789860193240642,0.5572144152399152,50,jumping
1783067267650593800,5.1004326,1.8342831735894085,6.073910748118162,-3.857175778889656,0.0536620579659938,-0.6027035117149353,-0.6067870259284973,-0.0146899050207925,-9.79001216893196,0.5708352365743369,50,jumping
1783067267670517800,5.1203566,1.3626307072356345,5.082312616884708,-3.797492586821317,0.0249400194734334,-0.2433287352323532,-0.7691791653633118,0.1220736520676873,-9.788715114858746,0.5801342491868883,50,jumping
1783067267690440700,5.1402795,1.0202696605749428,4.529526758676767,-3.2748224654138087,-0.1312390267848968,0.0824678018689155,-1.116321086883545,0.305070504593756,-9.785248900052904,0.5711707886716351,50,jumping
1783067267710364700,5.1602035,0.9076629798315464,3.663305065649748,-2.8397113849937914,-0.4375721216201782,0.2485113143920898,-1.5591819286346436,0.5617782525567337,-9.77674878273308,0.5195797541767359,50,jumping
1783067267730288600,5.1801274,0.7631842932049184,2.865412227961421,-2.187173359179497,-0.8291481733322144,0.323102742433548,-2.035329580307007,0.9103625211138278,-9.7560724899292,0.4007992801692336,50,jumping
1783067267750211800,5.2000506,1.3937750564314424,1.5403724157124756,-2.580159116053581,-1.2420060634613037,0.3518310487270355,-2.381181478500366,1.335016139601171,-9.713129420259596,0.2079541836500167,50,jumping
1783067267770135600,5.2199744,3.522264902104437,0.9399661436736584,-4.223630671712756,-1.1258500814437866,0.2380709201097488,-2.871476173400879,1.8425427601516249,-9.631966217789053,-0.0257777760947821,50,jumping
1783067267790058500,5.2398973,5.592692581039667,-3.133213269808888,-6.392726522409916,-0.4661052525043487,0.1414521038532257,-2.978851795196533,2.404689005770534,-9.505777294155957,-0.1675354448262602,50,jumping
1783067267809982700,5.2598215,5.31593841740787,-5.572850985494256,-3.8503883107066152,0.0353933610022068,0.1492017954587936,-3.102445125579834,2.975181931713223,-9.342276584738492,-0.2013492689596488,50,jumping
1783067267829905700,5.2797445,5.271091559943557,-8.719599444180727,-3.4211581050187347,0.8553807735443115,-0.1376795917749405,-2.9819767475128174,3.546154311735928,-9.142190650245547,-0.1245050439330749,50,jumping
1783067267849829600,5.2996684,6.4896297303259365,-14.668005159276722,-1.7773475266635417,1.0722814798355105,-0.0247280802577734,-1.5874290466308594,3.980064491933584,-8.962465951257943,0.0605549060021061,50,jumping
1783067267869752600,5.3195914,5.534053345066309,-20.5361080881238,1.4322247602045537,-0.2217335551977157,0.32237109541893,0.3413773775100708,4.080461679445206,-8.915864359080791,0.1660548874123021,50,jumping
1783067267889676500,5.3395153,0.2507254038840532,-20.061520737361903,4.041535151940584,-1.8521369695663448,0.6849064826965332,0.8685274720191956,3.951697936888039,-8.975207943931222,0.0113995159976708,50,jumping
1783067267909599700,5.3594385,-3.797318107037246,-15.709453655350208,4.078962088537216,-2.636979818344116,1.5050253868103027,0.453668475151062,3.83293185673207,-9.020704205214976,-0.3254525819577276,50,jumping
1783067267929523700,5.3793625,-2.214254258328676,-9.996194082212448,-0.1562561451166868,-1.9868141412734983,1.94773268699646,0.3619947731494903,3.786047355960309,-9.02469064450264,-0.6254506238590926,50,jumping
1783067267949447700,5.3992865,1.443533212943375,-4.463898978990316,-4.955440971684456,-0.4851191639900207,1.525457739830017,0.6459007859230042,3.723153677412868,-9.044035980963706,-0.7168717471022158,50,jumping
1783067267969370600,5.4192094,2.085686330604553,-0.4912544079244136,-5.312019198137522,0.7248497009277344,1.2163935899734497,1.0264137983322144,3.5885713117048144,-9.107548375931382,-0.5874434762217104,50,jumping
1783067267989294800,5.4391336,1.0206202275782823,3.4473055227100846,-2.757744464924931,1.0597851276397705,1.1797471046447754,1.1238486766815186,3.4001232080355286,-9.192340874814986,-0.3322720161816105,50,jumping
1783067268009217800,5.4590566,1.005717842000723,6.657238459584117,-1.014336032742262,1.1008570194244385,0.8621348738670349,0.948592483997345,3.207478529459238,-9.26706790675819,-0.0626056645194534,50,jumping
1783067268029142000,5.4789808,1.1571093036904931,9.87598949368596,0.2516717448234558,0.6292774081230164,0.062205359339714,0.5924889445304871,3.0683573512777684,-9.313202465945482,0.1408273427785374,50,jumping
1783067268049065000,5.4989038,2.7272388520240782,10.986886204516887,0.4935001410245895,-0.5595570206642151,-0.5638526082038879,1.0940349102020264,2.928015106868744,-9.358380747321249,0.1334813913293648,50,jumping
1783067268068989000,5.5188278,4.118595595267415,10.878901630616188,-1.0232441463410853,-1.241413116455078,-0.7906343340873718,2.32737398147583,2.609410344979167,-9.45270621370375,-0.0878150341757107,50,jumping
1783067268088912000,5.5387508,3.201144650262594,11.36590890249014,-1.6098177078604696,-1.3452202081680298,-1.0180712938308716,3.1287944316864014,2.077471459966898,-9.576541267687082,-0.3799136919962242,50,jumping
1783067268108835600,5.5586744,0.1618837757401168,10.881496907806396,-0.2210439668476581,-1.3890035152435305,-0.8855910301208496,3.156496047973633,1.4507606799788773,-9.674967739647624,-0.6787266522988676,50,jumping
1783067268128759800,5.5785986,-2.51510942851603,10.681515602731704,0.8892464486531912,-1.2065290212631226,-0.6152099370956421,2.4304983615875244,0.8900449055545031,-9.71949603268206,-0.9537402558736504,50,jumping
1783067268148682800,5.5985216,-2.8564608597427603,10.212747751903532,-0.061578138969466,-0.5124715566635132,-0.0809121802449226,1.7625479698181152,0.4862012161880731,-9.729119016551971,-1.1305847232498227,50,jumping
1783067268168606700,5.6184455,-0.8806682976610958,9.686642395350336,-0.1761491785883903,-0.0038822563365101,0.3630069196224212,1.6240766048431396,0.1639041939181275,-9.73497534136474,-1.1720857774175704,50,jumping
1783067268188529700,5.6383685,-0.0698653715904336,10.510359410125016,-0.5825554849844425,0.3878825008869171,0.2531605362892151,1.3558766841888428,-0.1225685411788523,-9.739575528636577,-1.138426741987094,50,jumping
1783067268208454000,5.6582928,-0.9638000237256288,9.753172092312576,-0.321765198681876,0.7072256207466125,0.6380231976509094,1.1287899017333984,-0.3501677018236369,-9.746588037747143,-1.0255716394405812,50,jumping
1783067268228376800,5.6782156,-0.8392159049406647,8.96060834069252,0.4531862508147954,0.711676299571991,1.0458544492721558,1.102137804031372,-0.547026892822422,-9.750095753607154,-0.8982086305268109,50,jumping
1783067268248300800,5.6981396,0.3580285713918507,8.034381968557835,-0.0341027606099844,0.8757057189941406,1.056488275527954,1.3682888746261597,-0.7650428536184132,-9.747433256399631,-0.7567317560646682,50,jumping
1783067268268223700,5.7180625,0.3442782784588635,7.084100182574987,0.812218811617419,0.7673563957214355,1.2678145170211792,1.7195097208023071,-1.0465276990339158,-9.73134019973278,-0.613350582351163,50,jumping
1783067268288147700,5.7379865,0.2450947045207023,4.677710656496882,1.4772645098924635,0.4109235405921936,1.3377599716186523,2.1604409217834477,-1.4067314225077627,-9.69072002005279,-0.5305073909044266,50,jumping
1783067268308072000,5.7579108,-0.2979635403990745,1.233043081074953,1.8325299001812931,-0.1285991966724395,1.2683955430984497,2.4110023975372314,-1.8376644865907727,-9.617838323715327,-0.539062307151407,50,jumping
1783067268327995000,5.7778338,-1.8726254714652892,-1.8396879552423957,2.804247857424617,-0.7301945090293884,1.3670188188552856,2.0326287746429443,-2.2602152145147323,-9.518254498413205,-0.6816387403532862,50,jumping
1783067268347918800,5.7977576,-2.927436430197954,-2.490937110289931,1.353912270990014,-0.5635647773742676,1.3338598012924194,1.103587627410889,-2.535832483071089,-9.431887882080671,-0.8828532404847442,50,jumping
1783067268367841800,5.8176806,-1.9443071443632245,-3.44537426238656,0.2934603837609291,0.2398521304130554,1.3283275365829468,0.4214045703411102,-2.646873814193904,-9.391137354019284,-0.9853845174156128,50,jumping
1783067268387765800,5.8376046,-1.1088555603921413,-5.683371799874306,0.4816390959043055,0.7966771721839905,1.2053143978118896,0.1059171929955482,-2.669344004677236,-9.388875254306196,-0.9455154483638704,50,jumping
1783067268407689000,5.8575278,-1.6853791448011994,-8.133393546929955,1.465637200462818,0.6861996650695801,0.8819742798805237,-0.2205636948347091,-2.6424396311387417,-9.404881801733374,-0.8579588185291737,50,jumping
1783067268427612700,5.8774515,-2.881334604236484,-8.620521230313182,2.269884375613928,0.9090355634689332,0.3463273644447326,-0.5963051319122314,-2.5529046139031646,-9.438492979434132,-0.7536065367162227,50,jumping
1783067268447535900,5.8973747,-2.0740087522923947,-10.50624905219674,1.087851935330033,1.7589038610458374,-0.2860899567604065,-0.2584677040576935,-2.4570178895533084,-9.480246547058224,-0.5083053498379886,50,jumping
1783067268467459800,5.9172986,-1.830090982596576,-14.407142392259836,0.5664648394703865,2.453850030899048,-0.451925665140152,0.6189581155776978,-2.490096275551617,-9.48489583416879,-0.0810404346073977,50,jumping
1783067268487383800,5.9372226,-5.189534974241257,-20.160073466050623,2.769883231008053,2.150075912475586,-0.1483701914548874,1.1975980997085571,-2.6725749494224784,-9.42762145680785,0.3843277821114286,50,jumping
1783067268507306800,5.9571456,-10.147477699613573,-21.84983506371975,5.449458999103308,0.924540102481842,-0.3383110165596008,0.8183942437171936,-2.8736873043537137,-9.35035467725396,0.6951102894101292,50,jumping
1783067268527230700,5.9770695,-12.642637980556488,-19.265761989092827,5.44098810787797,-0.6730833053588867,-0.2838535606861114,0.1249124780297279,-2.946906854343414,-9.324148222851752,0.7391950033955276,50,jumping
1783067268547153700,5.9969925,-10.361023419660327,-14.991840807557104,2.407002689540386,-1.1758264303207395,0.3330448269844055,-0.0866607725620269,-2.947745058733225,-9.337736603221297,0.5365180294960737,50,jumping
1783067268567078000,6.0169168,-5.18294624350071,-8.90879573586881,-4.944407536494731,0.5154921412467957,0.494560182094574,-0.2642510235309601,-2.920678188109397,-9.352079016828537,0.4226586452778428,50,jumping
1783067268587000800,6.0368396,-2.602984403584897,-5.254443792003393,-6.173134507936239,2.3342416286468506,0.4066214561462402,-0.6842474937438965,-2.844572269028425,-9.360061832275989,0.6841281460162252,50,jumping
1783067268606924800,6.0567636,-2.159586848595738,-3.82606050965786,-2.022792944318056,2.07415509223938,-0.0340182334184646,-1.2105458974838257,-2.665477684637904,-9.371527229142188,1.1135947177432477,50,jumping
1783067268626847700,6.0766865,0.202390412043035,-1.371025318354368,0.9061679189682006,0.5285352468490601,-0.5199980735778809,-1.4191031455993652,-2.406851590631902,-9.40647403936088,1.3768530015945433,50,jumping
1783067268646772000,6.0966108,3.255535288880765,2.929639493200183,0.2865150946676731,-0.6623112559318542,-0.8307908177375793,-1.2131997346878052,-2.1338518110975624,-9.471196394640208,1.3832910718180238,50,jumping
1783067268666696000,6.1165348,5.882566338485479,7.082386948916316,-1.7556358994625507,-0.983587920665741,-0.99967360496521,-0.6044309735298157,-1.9333308461882173,-9.532405188840627,1.2513568825311958,50,jumping
1783067268686619000,6.1364578,6.185948396801948,9.693788175451754,-3.0069898593842983,-0.7902728319168091,-1.0570027828216553,-0.1590529829263687,-1.844362815185636,-9.566147299444674,1.1214064144074916,50,jumping
1783067268706542800,6.1563816,3.988598511523008,10.64813706474304,-2.4020272392153736,-0.798022449016571,-1.1560006141662598,-0.3664101362228393,-1.777852261315286,-9.590648118972778,1.0144372280944138,50,jumping
1783067268726465800,6.1763046,2.412178777004033,10.34686513044834,-1.610965708851814,-0.9990386962890624,-1.0433220863342283,-0.64251309633255,-1.6589029335469003,-9.62501391443312,0.8817814465347676,50,jumping
1783067268746389800,6.1962286,2.5310394035756585,10.484833339202403,-2.312107898837328,-0.9951704144477844,-0.9507660269737244,-0.7711219191551208,-1.504375511918962,-9.6640704980582,0.7162230739351362,50,jumping
1783067268766313000,6.2161518,3.076609631316364,10.51980879099369,-3.2105250575482844,-0.7208707332611084,-0.8608545064926147,-0.7921764254570007,-1.3435070507012308,-9.697252636691926,0.573311563559994,50,jumping
1783067268786236700,6.2360755,2.876221791267395,10.872353816407918,-3.2906267682671544,-0.3119381666183471,-0.7250013947486877,-0.9101495742797852,-1.1705028921402991,-9.724184482759236,0.4904585813716053,50,jumping
1783067268806159600,6.2559984,2.7236674232780933,10.538239935219288,-3.2759470855295656,0.0633617416024208,-0.6009563207626343,-0.9350277781486512,-0.9854771641351282,-9.745012166732549,0.4837097281659022,50,jumping
1783067268826083800,6.2759226,1.9337294901169837,9.866088861918447,-3.311312997943163,0.1787387728691101,-0.7607347369194031,-1.1086560487747192,-0.7806222616747022,-9.761493345934152,0.5237137487089261,50,jumping
1783067268846006800,6.2958456,0.7031893317736685,8.453335110381245,-2.545143916773796,0.1609481573104858,-0.6145563721656799,-1.289791703224182,-0.5399347791370004,-9.775384508642556,0.5663362081220373,50,jumping
1783067268865930800,6.3157696,0.3890853153694421,7.675614707627892,-2.641303612846136,0.2324936687946319,-0.2947905957698822,-1.3467493057250977,-0.2734154293968342,-9.784158182206747,0.6048849518228322,50,jumping
1783067268885854700,6.3356935,0.4928553768476471,7.052187625485658,-3.181235834699869,0.3972795307636261,-0.1731996983289718,-1.3540180921554563,-0.0096755029333697,-9.78382325116396,0.668670683839172,50,jumping
1783067268905777700,6.3556165,0.0260287780140526,6.362373469722271,-2.4861609819293022,0.3439844846725464,-0.0590074732899665,-1.3750629425048828,0.256786165227741,-9.775008661067483,0.744080072023347,50,jumping
1783067268925702000,6.3755408,-0.4529325683146715,4.904821960559487,-2.014368814843893,0.0887568518519401,0.0320321321487426,-1.2786961793899536,0.51892271504011,-9.76115958393514,0.787939379755035,50,jumping
1783067268945624800,6.3954636,-1.0465991568349302,2.4079624744832517,-1.481538533949852,-0.3129372596740722,0.2537429630756378,-1.2295355796813965,0.7569007559560239,-9.747087803962826,0.7692637592490762,50,jumping
1783067268965548800,6.4153876,-2.1681083009645343,0.3316016061067581,-0.8821744644403458,-0.6766899824142456,0.353505790233612,-1.4381769895553589,1.006621366711706,-9.731087686276435,0.6804631207026541,50,jumping
1783067268985471700,6.4353105,-3.2183784013971684,-0.5346820462405681,0.1563128072073683,-1.2869106531143188,0.3229366838932037,-1.8003937005996704,1.317382283233106,-9.704719319310785,0.5032896040352061,50,jumping
1783067269005396000,6.4552348,-2.9476293233990667,-1.7187492072224615,0.6215396609604358,-1.929600715637207,0.4658783376216888,-1.9054783582687376,1.676457879459858,-9.660291564041376,0.1965295206530019,50,jumping
1783067269025319400,6.4751582,-0.9927756505802272,-5.795117772135138,-1.8160475519359112,-1.8171545267105105,0.3384386897087097,-1.8685314655303955,2.03679706588164,-9.591518472066522,-0.156924070973508,50,jumping
1783067269045243400,6.4950822,0.472261392032355,-10.555788451391455,-3.9282793596386902,-1.5402880907058716,-0.1385553032159805,-2.1170036792755127,2.417240736568719,-9.4928073379457,-0.4625367378862574,50,jumping
1783067269065166600,6.5150054,1.19935737683326,-14.348949731010196,-3.454927103629708,-1.7834678888320925,-0.415919154882431,-1.255104899406433,2.7579589844584462,-9.37728944593072,-0.794032435933128,50,jumping
1783067269085090300,6.5349291,0.9806649415478108,-19.656627100551127,-1.1446890172522517,-2.2399935722351074,0.3600234091281891,0.4527726173400879,2.824469684459269,-9.318149859219789,-1.1682591318015008,50,jumping
1783067269105014300,6.5548531,-3.018607816463709,-18.795595961904525,2.75271114693284,-2.402054071426392,1.8343305587768557,1.5600156784057615,2.66007611785531,-9.310386239480971,-1.5527672023832797,50,jumping
1783067269124937500,6.5747763,-6.698865185958146,-13.750954611766335,1.4996872079722583,-1.3721741437911987,2.0746212005615234,0.9891279339790344,2.461577160292864,-9.3171801374048,-1.8169192202039064,50,jumping
1783067269144861400,6.5947002,-6.720497172051668,-7.123934764835238,-0.6427806019097566,0.3935339450836181,1.46654212474823,-0.4226238429546356,2.48246125062853,-9.31151144411862,-1.817560879108309,50,jumping
1783067269164784400,6.6146232,-2.731908597400784,-2.3592852450758217,-1.1410912119559944,1.427425503730774,0.9234799146652222,-0.6560773849487305,2.6461662504464387,-9.30960356467068,-1.5809661457769573,50,jumping
1783067269184708400,6.6345472,-0.9319353974312544,-0.1536293037444353,-0.3492326859958469,2.0039315223693848,0.726995050907135,0.4398728013038635,2.6990061524912714,-9.350304992893337,-1.2072979605741798,50,jumping
1783067269204631300,6.6544701,-0.7052510866090654,2.403179331859946,1.0658815110623836,1.4791637659072876,0.1453240811824798,1.578303575515747,2.516913555328548,-9.441084749493005,-0.8375343085292726,50,jumping
1783067269224555500,6.6743943,1.2546524169452489,3.112872492569685,4.068987807011604,0.0496534779667854,-0.546947181224823,2.513514518737793,2.120573519590497,-9.549235912132264,-0.6969044062852859,50,jumping
1783067269244478500,6.6943173,3.586843172737956,2.807341147264838,3.731571377146244,-1.3204014301300049,-1.695646047592163,2.9731686115264893,1.5711647366002202,-9.641140873369574,-0.8661611950114368,50,jumping
1783067269264402400,6.7142412,4.012545496560633,3.306789383038878,2.5932331171602008,-2.318601131439209,-2.2153687477111816,3.4980080127716064,0.910980506881699,-9.680751583746074,-1.2741774938873949,50,jumping
1783067269284325400,6.7341642,3.237480869013071,2.843937478256225,0.7807998101986944,-2.7120556831359863,-1.9143238067626955,3.793709516525269,0.1242772630591876,-9.64077613171041,-1.791751461199671,50,jumping
1783067269304249600,6.7540884,0.9122683547351508,4.5519618778467175,-0.9615917000263928,-2.299307584762573,-1.8866666555404663,2.515697479248047,-0.5709449440265074,-9.521426698708536,-2.277463724827021,50,jumping
1783067269324173600,6.7740124,0.4638447882775217,4.504695684280991,-1.1981199439927934,-1.5117381811141968,-1.9018245935440063,0.8841874003410339,-0.9797953191064298,-9.404729826042056,-2.600281282106042,50,jumping
1783067269344096500,6.7939353,1.9837252547770736,4.848075406464934,0.1179454114228487,-1.2715030908584597,-1.6844322681427002,0.0463697016239166,-1.152787568033859,-9.323885772523283,-2.811871191909909,50,jumping
1783067269364020200,6.813859,2.1567092473328118,4.687228426426649,1.3986132902428507,-1.4519696235656738,-1.0601141452789309,-0.0608880147337913,-1.2267113938353955,-9.246685628464816,-3.0272689695641395,50,jumping
1783067269383943400,6.8337822,1.417563197645545,5.729427448606491,1.9240318335756657,-1.6243902444839478,-0.8157030344009399,-0.2712213099002838,-1.2516153873369098,-9.153585904484986,-3.288727072125673,50,jumping
1783067269403867400,6.8537062,1.1532409378245472,6.270566123640537,1.3270163730189204,-1.5809475183486938,-0.6250519752502441,-0.4941616952419281,-1.230004736292362,-9.05187909567952,-3.5666420962303875,50,jumping
1783067269423790300,6.8736291,0.6641048372283578,6.104087859717011,0.7936036160618066,-1.0952844619750977,-0.1475168466567993,-0.6449387073516846,-1.156861247213557,-8.96515825908184,-3.802366330337524,50,jumping
1783067269443714300,6.8935531,0.3213791219737381,5.843506832250952,0.2575344993770122,-0.3209221661090851,0.1121849715709686,-0.8668487071990967,-1.0228802083995192,-8.925293281683325,-3.932334772509336,50,jumping
1783067269463637200,6.913476,0.1144530392624437,4.707546991834044,0.8576873811766504,0.3989080488681793,0.2174606025218963,-0.9856683015823364,-0.8418414311386644,-8.948276682385801,-3.923013401934504,50,jumping
1783067269483561500,6.9334003,0.0434322414260357,3.47437531594336,2.350781620624661,0.6817173957824707,0.3792632222175598,-0.926448404788971,-0.646621422181651,-9.006178251734376,-3.826358323560655,50,jumping
1783067269503484400,6.9533232,-0.0861430001771077,2.234191130942106,2.6302710544392465,0.5451165437698364,0.5143831968307495,-0.7383221983909607,-0.4606327308958396,-9.064847882845998,-3.7130484629839655,50,jumping
1783067269523408400,6.9732472,1.0595867948323487,0.0971691653758287,2.518954998028278,0.190374419093132,1.1898672580718994,0.0821586027741432,-0.3339940542012453,-9.095925158154964,-3.6500653525874016,50,jumping
1783067269543332400,6.9931712,2.2199007397830486,-0.7828951750427484,1.838025574988127,-0.2602572739124298,1.227019429206848,0.733851432800293,-0.3215980619540438,-9.088997404718398,-3.6683930364385247,50,jumping
1783067269563255300,7.0130941,0.5342451891932636,-1.602766035783291,1.976836956568062,-1.0080302953720093,0.7621262669563293,0.8679232001304626,-0.4031625752344727,-9.040956719648838,-3.777425950348377,50,jumping
1783067269583179500,7.0330183,-0.9902676863472908,-1.9505664970189327,4.570127064612508,-2.746321439743042,1.5980616807937622,0.7182644605636597,-0.4600199327597394,-8.890079344961046,-4.114031648352742,50,jumping
1783067269603102500,7.0529413,1.8058941144511105,-1.339786715003848,1.9238918405830856,-3.806023120880127,1.981870532035828,0.8523383736610413,-0.4138155232066288,-8.581784964683651,-4.727801259833574,50,jumping
1783067269623026400,7.0728652,4.041467055140435,-4.447787217622995,-5.03527263329029,-3.329496145248413,1.6665393114089966,1.5898457765579224,-0.4447774650402367,-8.209908046811819,-5.34508793952465,50,jumping
1783067269642949400,7.0927882,3.292677271056175,-2.654620775058865,-5.10819524616003,-2.814772844314575,1.8644241094589236,1.5501246452331543,-0.4892169472800567,-7.847395169612765,-5.860839659845829,50,jumping
1783067269662873600,7.1127124,2.519904553838074,-4.028557012423873,-7.182400397807359,-1.5582231283187866,1.4833991527557373,2.3414666652679443,-0.5794041082814335,-7.56341923803389,-6.215252232697606,50,jumping
1783067269682796500,7.1326353,-1.264850570354611,-5.377331336003541,-6.418738331022858,-0.7680063843727112,1.245719075202942,2.5097131729125977,-0.7850348904851824,-7.386606042578816,-6.40251083432138,50,jumping
1783067269702720500,7.1525593,-5.515262135356664,-5.19693151423335,-4.830734395563602,-0.4063884615898132,1.137382984161377,1.6795623302459717,-0.9462394517894832,-7.281049572607874,-6.500872424352169,50,jumping
1783067269722643500,7.1724823,-6.975318320816755,-3.434997245278954,-3.066138798445463,-0.5314294695854187,1.6279188394546509,0.9645014405250548,-0.9547262712363151,-7.193761749777197,-6.5961109139263625,50,jumping
1783067269742567400,7.1924062,-5.569062699127197,-3.3462890342563387,-3.725985685968399,0.0951861292123794,1.8603034019470213,0.3139574825763702,-0.8080429141722619,-7.14390495519638,-6.669488869348168,50,jumping
1783067269762491400,7.2123302,-3.64606809964478,-1.2225047359257937,-4.704955806297064,1.02614164352417,1.1875687837600708,-0.4865022003650665,-0.5862818850964308,-7.222443654382229,-6.607796675544977,50,jumping
1783067269782414300,7.2322531,-1.1313313768986613,-0.545779194316268,-3.273741684439778,1.689061164855957,0.4454333186149597,-0.5893124341964722,-0.3969175798976793,-7.404466693440079,-6.417687360665202,50,jumping
1783067269802338300,7.2521771,1.477214679401368,-0.3663397420108318,-2.2534330070286988,2.2174313068389893,-0.1081300228834152,-0.0451221168041229,-0.3254540067298337,-7.654534510198235,-6.121484400197863,50,jumping
1783067269822261200,7.2721,1.4551190213188527,-1.4673966113507746,-0.9508902732700109,2.182204008102417,-0.2725606560707092,0.4712648093700409,-0.3883525075828656,-7.919521079146862,-5.770681834536791,50,jumping
1783067269842185500,7.2920243,0.3693892292419448,-1.2955179496884346,1.5734633689314126,1.4320831298828125,-0.539348840713501,0.5867666602134705,-0.5188771223327144,-8.119680078876018,-5.474665336552262,50,jumping
1783067269862108400,7.3119472,-0.2753424702029675,-1.3518056540995835,2.683551101467013,0.5997910499572754,-0.7200189232826233,0.5446423292160034,-0.6833857301510871,-8.21677033379674,-5.309241550117731,50,jumping
1783067269882032400,7.3318712,-0.0590163987226784,-0.2770709744960069,1.6789041035681962,0.343524694442749,-0.8886356949806213,0.3471961319446563,-0.840754439619556,-8.25436619721949,-5.227708929812908,50,jumping
1783067269901955300,7.3517941,0.8549678200196474,-0.2396586509466171,1.6405699889987706,0.2752147614955902,-0.7809120416641235,0.5345074534416199,-0.9951784739382564,-8.277864561706782,-5.163039766025543,50,jumping
1783067269921879600,7.3717184,1.7309689295873043,0.3289110518485307,1.8146072899997236,0.2186939716339111,-0.8262528777122498,0.6340097784996033,-1.176861102060601,-8.289930847075581,-5.105138196676969,50,jumping
1783067269941802500,7.3916413,1.6295375767223537,1.2283107918560503,2.416260347229242,-0.1164519414305687,-0.8275203108787537,0.4467424154281616,-1.3558505455762146,-8.2832760653615,-5.071430572864413,50,jumping
1783067269961726500,7.4115653,0.5994543781414627,1.25953185954988,3.4672722059398886,-0.4566841125488281,-0.4823080897331238,0.2190264463424682,-1.4758815311014652,-8.242370054477453,-5.104456644153594,50,jumping
1783067269981650400,7.4314892,1.1717067149721083,0.9722177234590051,2.6808038485854864,-0.37937992811203,-0.4257845878601074,0.1094791889190673,-1.5438554355226457,-8.191334279245138,-5.166134809431433,50,jumping
1783067270001573400,7.4514122,2.14195942196846,0.9252274242252112,1.3806933104097845,0.0402997136116027,-0.654959499835968,0.1388794034719467,-1.6183773002825677,-8.168733740380405,-5.179093659725785,50,jumping
1783067270021497600,7.4713364,1.9593144516199823,0.9745791918933392,1.0586568205058573,0.4457422792911529,-0.7018804550170898,0.2393170744180679,-1.7225877624720334,-8.18860806915164,-5.113685660269856,50,jumping
1783067270041420800,7.4912596,0.6191684017844498,1.109242513883114,1.1032137551128864,0.5015903115272522,-0.6628245711326599,-0.0005724797956645,-1.8152217686362564,-8.23633252787888,-5.003817172318697,50,jumping
1783067270061344800,7.5111836,-0.4698661674588918,0.826287157523632,2.2408301305651666,0.0968605205416679,-0.3410747945308685,-0.2405595332384109,-1.8427828525178132,-8.27135591046512,-4.935503514549136,50,jumping
1783067270081267700,7.5311065,0.4251398676343262,0.5022732300668955,1.632848454836011,-0.2664471268653869,-0.3360435366630554,-0.2723451256752014,-1.8288902285046875,-8.273103630915283,-4.9377445714741945,50,jumping
1783067270101191700,7.5510305,0.6152256555080413,0.4877782562464475,1.5357476785212754,-0.6471911668777466,-0.1965060234069824,-0.2387326061725616,-1.8138230077542363,-8.235863741323351,-5.005095521691441,50,jumping
1783067270121114600,7.5709534,0.6832254250228404,0.6332967342495918,0.751414579629898,-0.7386355996131897,-0.3035021424293518,-0.2276288270950317,-1.7998212242782117,-8.172188849270343,-5.113350144705176,50,jumping
1783067270141038800,7.5908776,0.3764021402113139,0.6912871509253978,0.4572445862948894,-0.5916502475738525,-0.2016705423593521,-0.2415161281824112,-1.790776624818146,-8.111067148831486,-5.212876686862111,50,jumping
1783067270160961800,7.6108006,0.5682024769179522,0.3830179050892591,0.4174906680554151,-0.3978802561759949,-0.1283996701240539,-0.2854484319686889,-1.7612633839555083,-8.0691545912534,-5.287446482416987,50,jumping
1783067270180885800,7.6307246,0.615463263656199,0.3964239146292209,0.1900058545053005,-0.2964450418949127,-0.232666015625,-0.3012398779392242,-1.7338547141566871,-8.043653654772044,-5.335145222181081,50,jumping
1783067270200808700,7.6506475,0.5783677509710192,0.1282937869578599,0.3687602471560239,-0.3269033133983612,-0.1655979007482528,-0.2389941066503524,-1.712770571204275,-8.020480284455418,-5.3766819321841,50,jumping
1783067270220732700,7.6705715,0.6919057212151587,0.3679910163491964,0.4190028261840343,-0.3227999210357666,-0.0523489117622375,-0.1587605327367782,-1.6902878135003148,-7.992475840720534,-5.425278497570753,50,jumping
1783067270240657000,7.6904958,0.3973835534416139,-0.0235112239688634,0.2903536499172449,-0.3614083230495453,0.0169537421315908,-0.1219721361994743,-1.6737921673819425,-7.959205439281463,-5.479036975765228,50,jumping
1783067270260579800,7.7104186,0.6122006085984408,0.2715998496085405,0.8070230696052313,-0.4791556596755981,-0.0338962040841579,-0.2466877251863479,-1.6432035523727535,-7.92032538126707,-5.544249744910001,50,jumping
1783067270280503800,7.7303426,1.1699475963450967,-0.4490776464521884,0.7861363489210605,-0.6052894592285156,-0.0446401797235012,-0.1440183222293853,-1.617812944398075,-7.864937256044149,-5.629904998102784,50,jumping
1783067270300426800,7.7502656,1.2624096069432795,-0.4275029435038566,0.7710948471337556,-0.5655169486999512,0.0200687050819396,-0.0754592418670654,-1.601338633328676,-7.801367577931284,-5.72230329581499,50,jumping
1783067270320351000,7.7701898,1.3323314305618406,-0.6227659878849983,0.6623761137396097,-0.5253607034683228,-0.0024286955595016,0.1021674573421478,-1.601080420783907,-7.738533812877535,-5.807065984082222,50,jumping
1783067270340274000,7.7901128,1.2303202319823203,-0.4005851259618997,0.965685106819868,-0.6168791651725769,-0.1348332613706588,0.0347745940089225,-1.622071478625387,-7.670418308028578,-5.891006834572553,50,jumping
1783067270360198000,7.8100368,0.9997564493782818,-0.0297200154811143,1.2201011819154024,-0.6896765232086182,-0.2213672846555709,-0.062425460666418,-1.6415524241648614,-7.592521413877606,-5.9857595864564175,50,jumping
1783067270380120800,7.8299596,1.4028792771242558,-0.434772057723999,1.48808810172379,-0.7269881963729858,-0.0775876119732856,0.1378229558467865,-1.6633984914004802,-7.50784348128438,-6.085703477242588,50,jumping
1783067270400044800,7.8498836,1.2405819521471857,-0.683739219763875,2.050934750697017,-0.90829998254776,0.1649122536182403,0.3482203781604767,-1.6956296129196882,-7.399085000401735,-6.208764624243974,50,jumping
1783067270419968000,7.8698068,0.7551496745049953,-0.4261515288949012,2.2765450025469063,-1.0681047439575195,0.1592587530612945,0.2182863503694534,-1.7171699752070009,-7.263126377904415,-6.361501947584748,50,jumping
1783067270439891700,7.8897305,0.5349715307064354,0.0591962853342294,1.9020827443569897,-0.9005883932113647,0.0918861702084541,-0.1194594576954841,-1.706334839068353,-7.131817627039552,-6.51122021536529,50,jumping
1783067270459815700,7.9096545,0.4782365209192037,-0.4575923768192529,0.7691431285440922,-0.5607442259788513,-0.1749280095100402,-0.2832550406455993,-1.6855125619225202,-7.043740699657797,-6.611743367344141,50,jumping
1783067270479738600,7.9295774,-0.1748280129872262,-0.9767530288010836,1.521443843358755,-0.2629973292350769,0.0354964658617973,-0.3337312638759613,-1.648356551221758,-7.000428212153911,-6.666882486242056,50,jumping
1783067270499662800,7.9495016,0.6310647374138235,-1.065007650837302,0.4799140987426042,-0.0185101069509983,-0.1043973267078399,-0.2809000313282013,-1.607599739550054,-6.992827089500427,-6.684786976245046,50,jumping
1783067270519585800,7.9694246,0.5297966122865676,-1.344120944815874,0.5997685586571693,0.0067327409051358,-0.278763473033905,-0.2643159627914428,-1.5962638142824173,-7.00371205613017,-6.676103319051862,50,jumping
1783067270539509800,7.9893486,-0.4980690563753246,-1.9318805012494324,1.0594435869693757,-0.2485334277153015,-0.1040414571762085,-0.3737881183624267,-1.581594360677898,-6.99834205352962,-6.685218937921523,50,jumping
1783067270559432700,8.0092715,-0.6306644860498607,-1.9962217482566835,0.5140519306659698,-0.4719966351985931,-0.1979696899652481,-0.5467039942741394,-1.5320476549595594,-6.963479414463043,-6.732990742921829,50,jumping
1783067270579357000,8.0291958,0.4662077910818159,-1.8897054933428763,-0.5331202037513256,-0.4550021290779114,-0.5863969326019287,-0.5015647411346436,-1.5052914577201009,-6.914522199070453,-6.789246298629045,50,jumping
