time,seconds_elapsed,acc_x,acc_y,acc_z,gyr_x,gyr_y,gyr_z,grav_x,grav_y,grav_z,fs_hz,activity
1783067274838378500,0.0,-1.2069158293887972,-2.3648697672098877,0.0492722726911306,0.1507295817136764,-1.450613260269165,-1.5167497396469116,-0.6529299477413296,-8.298006016981601,-5.185282577493786,50,jumping
1783067274858302700,0.0199242,-1.9444385156579316,-2.0580729320138693,-1.070690372648835,-0.0261794365942478,-0.8301813006401062,-1.2834848165512085,-0.5340091519476845,-8.319594163933395,-5.164259078687429,50,jumping
1783067274878225700,0.0398472,-2.099927621924877,-0.9222545458942653,-2.556421097591519,0.137370765209198,-0.8960816860198975,-1.129655361175537,-0.4201191168628633,-8.333429797062278,-5.152458750778436,50,jumping
1783067274898149400,0.0597709,-1.896630324169993,0.4521598303765058,-3.282985898125172,0.5808629989624023,-1.4469314813613892,-1.2153819799423218,-0.3455397862946614,-8.377416238304972,-5.086245280158519,50,jumping
1783067274918073300,0.0796948,-1.4841314730525017,1.520153219026327,-2.944201102516055,1.0869568586349487,-1.6831220388412476,-1.3487173318862915,-0.2907200903431512,-8.469473175233603,-4.934966923454404,50,jumping
1783067274937996300,0.0996178,-0.9174611741378904,1.187995732602477,-2.7053537679523227,1.2651777267456057,-1.4171888828277588,-1.210079550743103,-0.220682458325196,-8.593560742673278,-4.719364563138782,50,jumping
1783067274957920500,0.119542,0.1137912508854642,-0.6442109269738197,-3.5897844868868587,0.9420650005340576,-0.9895982146263124,-0.957529604434967,-0.1437188081700354,-8.701854528653621,-4.519675519008934,50,jumping
1783067274977843500,0.139465,1.1864313328299672,-3.2978859456151723,-6.186693662211298,0.5966873168945312,-1.157878041267395,-0.6410574316978455,-0.0942264721205923,-8.769937884798646,-4.387447899733483,50,jumping
1783067274997767400,0.1593889,1.744015458165109,-5.448562342524528,-7.971518392887711,0.4997540414333343,-1.2686374187469482,-0.3437610268592834,-0.119699369817553,-8.817738331371546,-4.289936789052188,50,jumping
1783067275017690400,0.1793119,0.9625161213949324,-5.667209185102582,-8.04218533578515,0.3469119668006897,-0.71174156665802,-0.2942864000797272,-0.1516300014196895,-8.855269312864541,-4.210888971300423,50,jumping
1783067275037613600,0.1992351,1.5183983381830155,-5.439983314749599,-7.31725895010829,0.2081062048673629,-0.13880555331707,-0.2234633564949035,-0.1384402193131391,-8.878688766896724,-4.161741201771796,50,jumping
1783067275057536800,0.2191583,2.899979683473706,-5.193442503073811,-6.057196929204464,0.1323508471250534,-0.2731147706508636,-0.0589862838387489,-0.1233042259091045,-8.893591152474283,-4.130281064625084,50,jumping
1783067275077460700,0.2390822,3.0171184546887875,-4.65906557725966,-3.905429522188008,-0.2184075862169265,-0.671877384185791,0.2716422379016876,-0.1810368775647133,-8.892264872306585,-4.131007040812075,50,jumping
1783067275097383700,0.2590052,1.9156946517325937,-2.86621594555974,-1.4174913014531134,-0.9140819907188416,-0.8382964730262756,0.5111456513404846,-0.3166673640862107,-8.844871252968908,-4.223547377343476,50,jumping
1783067275117307600,0.2789291,0.3727075600096955,-0.7411503752470016,1.0611986139431595,-1.8815516233444212,-0.5613860487937927,0.677358865737915,-0.4849355801664292,-8.721182913979888,-4.458271494497359,50,jumping
1783067275137230600,0.2988521,-0.9770326494600624,1.969853381291032,2.690443199068308,-2.9053213596343994,0.0080257384106516,0.7799195647239685,-0.6389038335416466,-8.489114864292741,-4.867969901241362,50,jumping
1783067275157154800,0.3187763,-1.4814276209212838,4.249036331126094,3.197280376049876,-3.4948716163635254,0.4635385572910309,0.693047821521759,-0.7368001441482455,-8.14604786131978,-5.4101206759274,50,jumping
1783067275177078800,0.3387003,-1.9480179815799,6.195880592751503,3.765843649104237,-3.493868112564087,0.7152649164199829,0.4895626306533813,-0.7632656878780573,-7.73595022612512,-5.978534311378001,50,jumping
1783067275197001700,0.3586232,-2.47599117783159,7.61230046558082,4.651579605418443,-3.0221316814422607,0.8814273476600647,0.1531105488538742,-0.7114394198551773,-7.322003514286875,-6.484789889079332,50,jumping
1783067275216926000,0.3785475,-2.4079919928386806,8.20977536034286,5.377424274984002,-2.1020171642303467,0.8900606036186218,-0.2700753211975097,-0.585208995167911,-6.97780838406682,-6.865719297456741,50,jumping
1783067275236849000,0.3984705,-1.148904516055435,7.872704967436194,6.126403151899575,-0.994007170200348,0.7868786454200745,-0.4997436702251434,-0.4097205820431933,-6.766883075651526,-7.086028520289063,50,jumping
1783067275256772900,0.4183944,0.0376032612779177,7.262570497587323,7.01277623707354,0.0928049758076667,0.466197520494461,-0.5350638628005981,-0.2493406715273857,-6.706667384141683,-7.150442832532525,50,jumping
1783067275276695800,0.4383173,0.2303172056981362,7.116399108633399,8.058701001778244,0.9970696568489076,0.1188576444983482,-0.569520115852356,-0.1346987220967188,-6.788842978525161,-7.075581945076585,50,jumping
1783067275296619800,0.4582413,-0.3571208088971674,7.457495688316226,8.523696932852268,1.7325444221496582,-0.5076742172241211,-0.6304985284805298,-0.0726385626308154,-6.9801517323225735,-6.88785806402862,50,jumping
1783067275316542700,0.4781642,-0.942092268982157,8.03839997202754,8.282179502296447,2.3795199394226074,-1.7273647785186768,-0.8049837350845337,-0.1189881162756588,-7.259985157269239,-6.591573855018615,50,jumping
1783067275336466700,0.4980882,-1.573035060516745,7.059601116612553,8.328565405896306,2.2346537113189697,-2.7216317653656006,-0.9367961287498474,-0.2815734187480993,-7.57225896257162,-6.225109609845281,50,jumping
1783067275356390000,0.5180115,-2.771190806475281,6.126473294526338,8.918467819577454,0.6547313928604126,-2.718815803527832,-0.9706382155418396,-0.472952443036437,-7.767399257355928,-5.967763911038637,50,jumping
1783067275376313600,0.5379351,-4.294291769391298,5.311060582238436,8.240658574384451,-1.5102680921554563,-1.6394248008728027,-0.951699197292328,-0.5930218243433162,-7.723218754845857,-6.0142000835210085,50,jumping
1783067275396236500,0.557858,-6.241916952261328,3.6633448131382464,4.285411712843179,-2.3364737033843994,-1.0116775035858154,-1.180872678756714,-0.586046980362013,-7.4807491381317375,-6.313899069410562,50,jumping
1783067275416160800,0.5777823,-7.490605346235633,3.196343387460709,-0.5766682535767554,-1.833547830581665,-2.2707135677337646,-2.340691566467285,-0.5310178246445953,-7.2229416670322415,-6.611922815564275,50,jumping
1783067275436084700,0.5977062,-6.528990265333652,0.8309013733208179,-3.7291198923408975,-1.0058449506759644,-3.979771137237549,-3.2935564517974854,-0.5421349195297808,-7.067647060424089,-6.776786630028486,50,jumping
1783067275456007700,0.6176292,-6.451170528072119,-2.764629548263549,-6.833411603569984,-0.8458978533744812,-4.90012264251709,-2.854233264923096,-0.7224556847143918,-6.986803591427207,-6.843464795550704,50,jumping
1783067275475931600,0.6375531,-9.86213164872527,-3.272105023148656,-7.2178569111138575,-1.2203586101531982,-4.378714561462402,-2.3985846042633057,-0.9991643287040292,-6.892478125044703,-6.904042306110262,50,jumping
1783067275495854800,0.6574763,-10.450994197964668,-4.823811902824044,-9.542108252209424,-1.336342692375183,-4.655710697174072,-2.0953969955444336,-1.3082768934965132,-6.759485366615652,-6.983419794207811,50,jumping
1783067275515778800,0.6774003,-11.07362340772748,-3.6846670026302335,-10.03143607598543,-0.808959424495697,-4.504644870758057,-1.7822165489196775,-1.704679911468178,-6.660528148779273,-6.992983156844973,50,jumping
1783067275535701800,0.6973233,-10.846451313388346,-1.1645505596071482,-10.608777698779106,0.1260054260492324,-3.8147919178009033,-1.770308256149292,-2.0382439036890863,-6.67705842781961,-6.8871507925421,50,jumping
1783067275555625700,0.7172472,-7.679309470492601,-2.0635200915038583,-13.007936104559898,1.273972511291504,-3.920651197433472,-1.1887409687042236,-2.3477564275845886,-6.834380156341195,-6.629454380601644,50,jumping
1783067275575548700,0.7371702,-8.093930720591544,-3.3383266770750284,-13.598396736645698,2.325772762298584,-4.094552993774414,-0.6552672386169434,-2.742524976222217,-7.109819730243086,-6.172471660113335,50,jumping
1783067275595473000,0.7570945,-8.519694126951695,-2.26633691226542,-12.39240415958166,2.8671414852142334,-4.706042766571045,-1.216494917869568,-3.11971753615886,-7.472976166042685,-5.531038381159306,50,jumping
1783067275615395800,0.7770173,-5.001335292375088,-4.336510031917691,-9.999020830070972,2.434420108795166,-5.191212177276611,-1.05943500995636,-3.451393084284663,-7.836209174209832,-4.780385433551669,50,jumping
1783067275635319800,0.7969413,-5.400108985000848,-4.957411979496479,-5.739819078761339,0.557317852973938,-4.758072376251221,-0.887985110282898,-3.752774908694625,-8.0414570215106,-4.1739717377915975,50,jumping
1783067275655243500,0.816865,-5.5441153048753735,-3.3509207857102155,-4.900075350554287,-1.1396963596343994,-4.36041259765625,-1.2411078214645386,-3.946350146119297,-8.09306329010725,-3.8857466243356464,50,jumping
1783067275675166700,0.8367882,-3.3580537063300606,-0.1401291861802339,-5.594025875470042,-1.6546202898025513,-4.590648174285889,-1.8482507467269895,-4.037037255999445,-8.102659385970234,-3.770894502753019,50,jumping
1783067275695090700,0.8567122,-0.5011562087357044,3.350380102962255,-3.559685993482172,-1.7540289163589478,-4.618518829345703,-2.3685340881347656,-4.039297017624974,-8.14791014806032,-3.66960562709868,50,jumping
1783067275715013600,0.8766351,2.3199787783429024,5.7874821626901625,-0.5681956087857485,-2.0077579021453857,-4.447093486785889,-2.6848647594451904,-3.948335182456672,-8.2152026460886,-3.618215631601214,50,jumping
1783067275734937600,0.8965591,4.822193069450557,9.108023007705809,0.8796087056055665,-2.114793062210083,-5.071237087249756,-2.8635706901550293,-3.828150175413489,-8.281125024807453,-3.597027297621965,50,jumping
1783067275754860500,0.916482,6.067533614301682,10.497379517042637,2.1493366727381944,-1.9917532205581665,-5.579646110534668,-2.74971604347229,-3.742464234821498,-8.347385841700435,-3.533484507516026,50,jumping
1783067275774784800,0.9364063,5.674108881488442,11.567124717795847,3.239981745918095,-1.630074381828308,-5.250418186187744,-2.23128342628479,-3.701136783654988,-8.407824820572138,-3.432266066749394,50,jumping
1783067275794707700,0.9563292,5.79546790074706,11.780056689858435,2.5960534352779385,-1.492247223854065,-5.077386856079102,-1.5576682090759275,-3.7277751997336734,-8.444186173763871,-3.312069661529362,50,jumping
1783067275814631700,0.9762532,5.766864906597137,11.866333289819956,1.3013678447604178,-1.4255417585372925,-5.680388927459717,-1.1242281198501587,-3.848061621324718,-8.448161507135628,-3.16091463894397,50,jumping
1783067275834554600,0.9961761,5.0473547007501125,11.039329508459568,-0.206444948130846,-1.2681082487106323,-6.453580856323242,-0.9285160899162292,-4.047326594823598,-8.447756433466076,-2.902575545185804,50,jumping
1783067275854478800,1.0161003,2.808710097530484,9.729484342733024,0.8019199012473225,-1.3703179359436035,-5.599597930908203,-0.7570359706878662,-4.242536739973724,-8.446789634260535,-2.612085701668262,50,jumping
1783067275874401800,1.0360233,1.7895891685992478,8.009107242047786,-0.3710777303181588,-1.9655359983444212,-4.976230144500732,-0.6808974742889404,-4.382958187098801,-8.426745794141292,-2.4392655213721097,50,jumping
1783067275894325800,1.0559473,0.998541082239151,6.518180702027678,-3.4233500621050594,-2.540600299835205,-5.60639238357544,-0.7716076970100403,-4.514426220178604,-8.378475391969085,-2.3646325974531472,50,jumping
1783067275914249700,1.0758712,-0.8655980081707239,5.342953850105404,-4.1884371932566165,-2.2158620357513428,-5.418153285980225,-0.973888099193573,-4.629094509626925,-8.347975624287129,-2.247925349523127,50,jumping
1783067275934172700,1.0957942,-2.405355506855249,2.821314727559685,-1.5907003349363802,-2.1606879234313965,-3.705674886703491,-0.8469908833503723,-4.67205453043133,-8.341894843068719,-2.1806161926209926,50,jumping
1783067275954097000,1.1157185,-2.819484297262132,-0.0075058455854654,-1.1998594811365009,-2.013350486755371,-3.074702024459839,-0.595367431640625,-4.703546816281974,-8.310849131941795,-2.2308821525245905,50,jumping
1783067275974019800,1.1356413,-3.970842197819054,1.247934945258498,0.1271582070566713,-1.5207276344299316,-3.1544854640960693,-1.117560625076294,-4.703499762269854,-8.311427808612585,-2.2288180596016347,50,jumping
1783067275993943800,1.1555653,-3.885575067161023,0.7976414932757615,0.3761884974606335,-1.419251561164856,-3.371340036392212,-1.484054684638977,-4.6255122672259805,-8.372745323884487,-2.161514455657452,50,jumping
1783067276013866800,1.1754883,-2.227472344081104,-0.4933370594173669,-0.7794003186643124,-1.2012050151824951,-3.005288362503052,-1.236220359802246,-4.527767640049755,-8.442122226971387,-2.097682181085646,50,jumping
1783067276033791500,1.195413,-2.262438443522155,-2.4372329926311966,-4.409046275818348,-0.3632512390613556,-3.022465705871582,-0.8447831273078918,-4.4757428537800905,-8.50052765418887,-1.9695558596491811,50,jumping
1783067276053714400,1.2153359,-4.680162433563172,-4.097547546541691,-4.645826740980148,0.1866856664419174,-2.911340713500977,-0.7114394307136536,-4.456709652008116,-8.56837720157802,-1.700304180601984,50,jumping
1783067276073638700,1.2352602,-5.990289046579599,-5.659626182627678,-2.1773611363478005,-0.0518804267048835,-2.123685598373413,-0.796729564666748,-4.40997391205728,-8.635254689064622,-1.4679605288438498,50,jumping
1783067276093562600,1.2551841,-4.44213635225445,-8.442152622109651,-4.173955663439632,0.4232582151889801,-2.031752347946167,-0.7548726797103882,-4.324681939218938,-8.708710970419645,-1.2750976774722338,50,jumping
1783067276113485600,1.2751071,-5.390624532818794,-9.84377883043289,-6.250451556372642,1.726529836654663,-2.25613784790039,-0.6755666732788086,-4.256960109862685,-8.788048126506805,-0.9049194532770662,50,jumping
1783067276133409500,1.295031,-6.07950929877758,-10.51005195161104,-5.443102908074856,2.5412817001342773,-1.9860589504241943,-0.8516221046447754,-4.14552714907378,-8.880886569201946,-0.338894137735106,50,jumping
1783067276153332700,1.3149542,-4.830433659051359,-12.307629780876637,-4.881281510496139,2.8106229305267334,-1.4700437784194946,-0.7018944025039673,-4.005218514673412,-8.946897210726142,0.285761609419249,50,jumping
1783067276173256700,1.3348782,-2.738293622262776,-13.595803797543049,-4.894572369223833,2.2784087657928467,-1.414809226989746,-0.2574623823165893,-3.8978348292753098,-8.957126928317546,0.8643831524882465,50,jumping
1783067276193179600,1.3548011,-1.6958049694865942,-15.397679031741616,-3.902594591023028,0.9839273691177368,-0.9469114542007446,0.5672728419303894,-3.9004908967420455,-8.90960003798902,1.2552055207833648,50,jumping
1783067276213103600,1.3747251,-3.1076749239265915,-14.130594564855098,-4.384314277882874,-0.2906347513198852,-0.613728940486908,0.8894623517990112,-4.021808414946496,-8.838326361370086,1.3709113365858792,50,jumping
1783067276233026600,1.3946481,-3.611371757055819,-11.095506738233563,-5.375225888156891,-0.88313889503479,-0.1990585923194885,0.7211452126502991,-4.149732199548184,-8.791030941709876,1.2914658978186546,50,jumping
1783067276252950800,1.4145723,-2.6646289588540792,-6.7819520499676464,-5.781721114945412,-0.7974628806114197,0.0919870287179946,0.5697602033615112,-4.262394702132046,-8.757762878358363,1.1419077890358864,50,jumping
1783067276272874500,1.434496,-0.5442532999232411,-2.723364056417346,-5.005954184347391,-0.6066394448280334,0.1450321227312088,0.6083627343177795,-4.364458946073055,-8.724062268808483,1.0062905273221432,50,jumping
1783067276292797400,1.4544189,0.5108393983602524,1.070263671669364,-4.11336470887661,-0.2013324052095413,-0.015787174925208,0.4946843683719635,-4.467257057246566,-8.680531754639745,0.9286278072532266,50,jumping
1783067276312721700,1.4743432,1.945753543779254,4.846137131878733,-2.279005401311069,0.0269624963402748,-0.2448707818984985,0.0549197494983673,-4.51473134060502,-8.656058992162347,0.9274781988266856,50,jumping
1783067276332644600,1.4942661,5.3441404295414685,7.503127558678388,-1.098461446019262,-0.2154101729393005,-0.7146263718605042,-0.0348977372050285,-4.496294643421471,-8.661623056030272,0.9643863722462208,50,jumping
1783067276352568600,1.5141901,8.130152373051644,8.614870072683692,-0.5131259018622338,-0.8768517971038818,-1.0234172344207764,0.5496645569801331,-4.518649683092535,-8.651532454648613,0.9503671261787414,50,jumping
1783067276372491500,1.534113,9.246679198724031,9.1449986934036,-0.7167909369509666,-1.3996851444244385,-1.165153741836548,1.2192583084106443,-4.652207089667022,-8.590742178121209,0.8523626059573143,50,jumping
1783067276392415500,1.554037,8.292439030504227,9.121475778996944,-0.952802317436412,-1.5095906257629397,-1.2390625476837158,1.5481306314468384,-4.874715283848345,-8.479379652220011,0.7124844719287008,50,jumping
1783067276412338700,1.5739602,6.492174738633632,8.290080484679342,-1.1707096667587755,-1.2510900497436523,-1.3435131311416626,1.389438271522522,-5.109821970579028,-8.34813929041624,0.6071741587385535,50,jumping
1783067276432262700,1.5938842,5.849599303907156,6.061861413884163,0.5475497111201286,-1.2211942672729492,-0.904080331325531,0.902945637702942,-5.285914450544119,-8.242978541764616,0.5317859960054978,50,jumping
1783067276452186600,1.6138081,6.84296912098825,3.1442700858742,2.41734638890028,-1.2580643892288208,-0.2246768027544021,0.5973644256591797,-5.401659721574187,-8.17598356537819,0.3817749192908406,50,jumping
1783067276472109600,1.6337311,6.411574430742859,4.129046262133121,1.4907716417193413,-0.7052022218704224,-0.629520058631897,-0.214400365948677,-5.441774289819598,-8.154598832044005,0.2450249820190481,50,jumping
1783067276492033800,1.6536553,5.029175485458969,4.073739969974756,1.494640007585287,0.5150061845779419,-1.3428422212600708,-1.2240058183670044,-5.314684617954493,-8.234713986766337,0.3376722312573343,50,jumping
1783067276511956700,1.6735782,4.847582069990039,4.757223169150948,1.7135048768281935,1.5014551877975464,-1.568913817405701,-1.991688847541809,-5.032684370362758,-8.390724632689356,0.6619926673799753,50,jumping
1783067276531880700,1.6935022,5.346286793920397,5.864053361195325,0.1251356151878833,1.8168246746063232,-2.134021520614624,-2.39296555519104,-4.619796227666735,-8.576085876259206,1.1307731584940106,50,jumping
1783067276551803600,1.7134251,5.986833353167772,4.934240362745523,0.2586217100918292,1.3987194299697876,-2.0335118770599365,-1.918184280395508,-4.176966243432462,-8.726057242017983,1.6060130548804998,50,jumping
1783067276571727600,1.7333491,5.674995016673207,1.7840677748292684,0.9799098853968085,0.6286636590957642,-1.392459750175476,-0.7801069021224976,-3.8769492776349184,-8.800574430602788,1.920815063486248,50,jumping
1783067276591650800,1.7532723,3.102290016017854,-0.9533727377355098,1.903829880285263,-0.2318641990423202,-1.0659364461898804,-0.0562120452523231,-3.7696737287864086,-8.818112425380944,2.049596049439162,50,jumping
1783067276611574500,1.773196,0.2965221094191074,-4.815339842554927,2.2926190622523426,-2.039630651473999,-1.152925729751587,0.0432817637920379,-3.7254683840960254,-8.859443383678794,1.9497569342017171,50,jumping
1783067276631497700,1.7931192,-2.96458542663604,-4.332094553562999,5.068400995910167,-4.519843101501465,-0.1387352794408798,-0.3139117956161499,-3.679922730712593,-8.978469576075673,1.4197363039009272,50,jumping
1783067276651421400,1.8130429,-5.086179813706875,-2.008109169927239,3.693703711044788,-5.695478439331055,0.773059606552124,-1.090390682220459,-3.56466962711364,-9.12552710021436,0.4339003529233857,50,jumping
1783067276671345700,1.8329672,-3.09565744613558,-1.994440710058808,-3.157459237793088,-3.39530086517334,0.9030089378356934,-2.026337146759033,-3.2606489786326884,-9.234066969910264,-0.5201840767454355,50,jumping
1783067276691268600,1.8528901,-2.205480000242591,-3.4178988109618422,-5.7265615377813575,-0.9473845362663268,-0.9533767700195312,-1.954096794128418,-2.8908778008684517,-9.330029097583887,-0.8739533832576125,50,jumping
1783067276711192600,1.8728141,-6.426612425398826,-3.713710141763091,2.119532486104965,-1.186997413635254,0.176893725991249,-1.9237122535705569,-2.5447601781532168,-9.415342989993094,-1.022688777480647,50,jumping
1783067276731115500,1.892737,-5.9288896982431405,-4.19501364903748,-1.70580423932299,-0.3999336659908294,0.5998168587684631,-2.266526460647583,-2.140616921318322,-9.489344630271196,-1.2411584368608892,50,jumping
1783067276751039500,1.912661,-3.2211157174065708,-6.309708047461509,-4.057845066228508,1.6000601053237915,0.5228427052497864,-1.7224472761154177,-1.7224619441352784,-9.588090251183509,-1.1278457998052238,50,jumping
1783067276770962700,1.9325842,-1.6932706287033854,-12.67096157324314,-0.7960077545940876,1.6030234098434448,1.6419833898544312,0.1191778779029846,-1.5450367542617025,-9.6482352155447,-0.8335458964802325,50,jumping
1783067276790886700,1.9525082,-5.634558961388469,-16.12466059638262,-1.0929846220433712,1.149854063987732,1.7157565355300903,0.9305256009101868,-1.6463579247504472,-9.647125208476185,-0.6268005040980875,50,jumping
1783067276810809600,1.9724311,-9.164438137888908,-15.466608191061018,-1.0528489379446953,1.193863868713379,1.6857844591140747,0.7156298160552979,-1.7942714811965823,-9.629862523508072,-0.4655236082099377,50,jumping
1783067276830733600,1.9923551,-8.3641411616683,-11.820467026180028,-0.7250234163105488,1.5370944738388062,2.2650365829467773,0.3376017808914184,-1.8748120217241344,-9.621555298411844,-0.284880625333637,50,jumping
1783067276850657800,2.0122793,-4.990823250710964,-6.179498782271146,-1.6126637449413537,2.0455617904663086,1.9718745946884155,0.4981102645397186,-1.9430846168309448,-9.612207624351978,-0.0170395562948135,50,jumping
1783067276870580700,2.0322022,-1.1768050610244274,1.0553156933844088,-0.4890566421518102,1.8618093729019165,0.8773320317268372,0.8924112319946289,-2.0751190516218543,-9.579719897723198,0.3053012446097098,50,jumping
1783067276890504700,2.0521262,1.9240978845492005,6.422973776635527,0.6022129561346024,1.1792912483215332,-0.5525397658348083,1.399750828742981,-2.2954981248199937,-9.515383326891063,0.5987782324455678,50,jumping
1783067276910427600,2.0720491,2.290579957640171,9.052428546255827,5.293749381953478,-0.8698604106903076,-0.3371080756187439,1.6495671272277832,-2.582223355107009,-9.435948555648327,0.6821779617965221,50,jumping
1783067276930351600,2.0919731,4.6577407583966846,12.049500238215922,6.514238101881742,-3.327505588531494,0.2281622439622879,2.031169891357422,-2.9176050642743707,-9.358566625282169,0.2742208457618951,50,jumping
1783067276950274800,2.1118963,7.734639728048443,12.08574176442027,3.598133797559142,-4.40742301940918,-0.6159018278121948,2.764514446258545,-3.3641742350369688,-9.20027985112071,-0.4555942983372136,50,jumping
1783067276970198500,2.13182,7.213833646947145,12.781177851718663,2.1641658469490705,-4.285084247589111,-1.7287579774856567,3.210930824279785,-3.931683030602336,-8.908257975730299,-1.1641377410225568,50,jumping
1783067276990121700,2.1517432,5.351804096037149,12.222261527931687,1.6024154687799512,-3.620971441268921,-2.206570863723755,3.1015372276306152,-4.546753495548665,-8.524417063820362,-1.682770715868473,50,jumping
1783067277010045400,2.1716669,4.029770479866862,10.527496422886848,0.483182891280204,-2.510775566101074,-2.142902135848999,2.4130077362060547,-5.091448694020509,-8.141224386686087,-1.991978996120393,50,jumping
1783067277029972700,2.1915942,4.261325903856754,7.993481218370794,-1.5703396839529276,-0.9557983875274658,-2.1276168823242188,1.555745005607605,-5.494489396440983,-7.861800127062201,-2.042809896430373,50,jumping
1783067277049895700,2.2115172,5.082541164943575,5.619245072400569,-1.557255453713238,0.3355113863945007,-1.9056791067123413,0.9138917922973632,-5.759651906478405,-7.716716533344983,-1.8571756811380384,50,jumping
1783067277069819600,2.2314411,5.170869436737895,3.153447664064169,-0.87149875664711,0.79185950756073,-1.990972757339477,0.5145869851112366,-5.934320491120219,-7.654247509950399,-1.538414705773443,50,jumping
1783067277089742600,2.2513641,4.195061579832434,1.2778221340000628,-0.4730711009800434,0.655687153339386,-2.14865779876709,0.060001078993082,-6.033359542021155,-7.641909421902895,-1.170548265651986,50,jumping
1783067277109666800,2.2712883,4.270090225070715,0.198658532038331,0.0155547850716859,0.0015421431744471,-1.6896909475326538,-0.1341923475265503,-6.063197046402096,-7.657344306921958,-0.8792629609078169,50,jumping
1783067277129589800,2.2912113,5.841701828655601,0.6249421628803015,-0.5376320551525801,-0.6543731093406677,-0.9844531416893004,0.0227655824273824,-6.071544603508711,-7.662248445576429,-0.7724449465684592,50,jumping
1783067277149513700,2.3111352,7.399317055591941,1.479108091932535,-1.1246224538445473,-1.046985387802124,-0.6582919955253601,0.4135455787181854,-6.116623516163229,-7.622329692164063,-0.8107900209233164,50,jumping
1783067277169436700,2.3310582,6.4939335649997,2.495088969272375,-0.495094205283001,-1.0849084854125977,-0.8205778002738953,0.4871865212917328,-6.203637198227644,-7.542515566214918,-0.8920462354395539,50,jumping
1783067277189361000,2.3509825,4.638429616466165,2.2148691753566263,0.1954793174803256,-1.0888351202011108,-1.355949878692627,0.1466760784387588,-6.272771524730325,-7.483010653322935,-0.9095501087523996,50,jumping
1783067277209284900,2.3709064,2.062815742626786,0.8922054445892572,3.369310428881645,-1.92412793636322,-0.1280596405267715,-0.3304135203361511,-6.277359437042475,-7.46563690919578,-1.0146131691832094,50,jumping
1783067277229207800,2.3908293,1.743357578778267,0.1172498303741216,2.057326059169322,-2.337439775466919,0.7445908784866333,-0.7994353175163269,-6.179214120110869,-7.484805720046162,-1.4019135008320212,50,jumping
1783067277249131800,2.4107533,1.3748410772502422,-0.7261509590357541,0.4546462403647601,-1.8657820224761963,0.4051967263221741,-1.1796287298202517,-6.010464988645911,-7.536988327226043,-1.7995888768270611,50,jumping
1783067277269054700,2.4306762,-0.5054284792274236,-1.196874620106816,0.572317949412763,-1.034671187400818,0.2432129681110382,-1.5235764980316162,-5.7958104305744165,-7.640572035819291,-2.0495400814682245,50,jumping
1783067277288978700,2.4506002,-2.187358652618528,-1.8633499858587976,1.196183130711317,0.0539688542485237,0.1401874423027038,-1.9183331727981567,-5.523167209392786,-7.80967363398373,-2.161944079246372,50,jumping
1783067277308902000,2.4705235,-3.751601188740134,-3.6049528299242257,0.0442772408828139,1.7887974977493286,-0.6953511238098145,-2.531764030456543,-5.181613533592224,-8.084436916059255,-1.990763190589845,50,jumping
1783067277328825600,2.4904471,-3.9921190868645904,-6.932672188267111,2.101898191345483,2.366464853286743,-1.3356192111968994,-2.422568082809448,-4.788914192444086,-8.422240299415588,-1.5174137110598385,50,jumping
1783067277348748800,2.5103703,-3.382854093326628,-11.544814686310293,4.321858406230807,1.9422056674957275,-1.067167043685913,-0.510862410068512,-4.553325859676301,-8.623640239116549,-1.0346193807058035,50,jumping
1783067277368672800,2.5302943,-6.947062532669305,-20.08064161741733,4.013299237537384,1.1263796091079712,-0.8738899827003479,2.288346767425537,-4.7275136750638485,-8.565532333540917,-0.6727893712043762,50,jumping
1783067277388596700,2.5502182,-19.10717184807062,-24.34412089991569,5.729478886532784,0.4532053172588348,-0.2679468393325805,3.163773536682129,-5.231085128247738,-8.280018524870275,-0.4973998153442516,50,jumping
1783067277408519700,2.5701412,-27.50219447021484,-22.794172262084484,5.006320095050334,0.298827201128006,-0.1958693116903305,1.0846147537231443,-5.600485426872968,-8.039254543030262,-0.4187305120486765,50,jumping
1783067277428443600,2.5900651,-22.357345025396345,-18.546725245976447,0.8721744639515876,0.62803053855896,-0.3325377106666565,-1.0289907455444336,-5.575804574602842,-8.060784237793088,-0.3233038429586216,50,jumping
1783067277448366600,2.6099881,-9.958990432977677,-16.030295382511614,-4.101583085668087,0.9431986212730408,-0.6195151209831238,-0.7700726389884949,-5.410436902269721,-8.177927100661396,-0.1380989863937255,50,jumping
1783067277468290800,2.6299123,-2.585491709253192,-8.329539219364523,-4.287597824710607,0.7644243240356445,-0.5958256721496582,-0.0755404978990554,-5.350538606145978,-8.218135776931048,0.0661715768401045,50,jumping
1783067277488213800,2.6498353,1.6161293752253054,-0.2360503973215818,-4.516571415513754,0.6246469616889954,-1.4184606075286863,-0.0638111308217048,-5.340609332805872,-8.219970591142774,0.2834733523515984,50,jumping
1783067277508137700,2.6697592,5.465429890695214,4.664817272654176,-3.251406518512964,0.3968963623046875,-2.137754440307617,-0.163867175579071,-5.306963083791732,-8.227538396048546,0.5604729786444455,50,jumping
1783067277528060700,2.6896822,8.547256087616086,9.01198839931786,-0.9082393914800136,-0.4101020395755768,-2.143810272216797,-0.032058235257864,-5.255229389423132,-8.240607136458157,0.8033429197877645,50,jumping
1783067277547985000,2.7096065,10.929617087852954,11.473694738948344,0.9955659388858824,-1.7690256834030151,-1.6731683015823364,0.3812566101551056,-5.249224596050381,-8.242721352133154,0.820735807006806,50,jumping
1783067277567908900,2.7295304,12.409329575419424,12.365041520881652,0.293281520062685,-2.406940698623657,-1.856058478355408,1.0618932247161863,-5.339103604418039,-8.200477955165505,0.6453950952570885,50,jumping
1783067277587831800,2.7494533,14.48253519463539,8.069501797255873,1.330976216560602,-2.6786081790924072,-2.4120473861694336,2.000897169113159,-5.557999453321099,-8.065912248331308,0.469164412397705,50,jumping
1783067277607755800,2.7693773,12.130435477149486,7.372742352399229,1.2850818958699703,-2.9129462242126465,-2.633553028106689,2.3404576778411865,-5.89638385143578,-7.829736178803444,0.3134967346934601,50,jumping
1783067277627678700,2.7893002,8.803762412989139,6.3936173337697975,-1.438617091590166,-2.3739304542541504,-2.5734925270080566,1.9602962732315063,-6.216826934668421,-7.581290410289168,0.2132350649286992,50,jumping
1783067277647602700,2.8092242,6.34635289376974,5.3758431432724,-4.325318191295862,-1.259703278541565,-2.5222761631011963,1.0788226127624512,-6.439277261182665,-7.391610718998312,0.2649016854104585,50,jumping
1783067277667526000,2.8291475,5.369188361558318,5.591962513199448,-5.141613531637192,-0.3620725572109222,-2.1791255474090576,0.081413984298706,-6.504938358616829,-7.324467274051904,0.4564599752558395,50,jumping
1783067277687449600,2.8490711,6.249819688209891,5.58207474091351,-6.190195532852411,0.1610119789838791,-1.842073678970337,-0.4707139134407043,-6.446592552632093,-7.356625914856791,0.7013382240142673,50,jumping
1783067277707372500,2.868994,7.657514987313747,5.319484711712598,-6.848261966699361,0.5562311410903931,-1.4000778198242188,-0.4451792538166046,-6.346390303170681,-7.413363701122999,0.9673550127934664,50,jumping
1783067277727296800,2.8889183,7.766993014642596,4.673447738355398,-5.613710819149017,0.6158600449562073,-0.3777662813663482,-0.1943899095058441,-6.278098857232928,-7.441593770307302,1.174113045461476,50,jumping
1783067277747220700,2.9088422,7.372978499242663,3.498398581087589,-4.406753780966997,0.4749088883399963,0.4024528861045837,0.0223221592605114,-6.27044805021882,-7.436560452315211,1.2447615759193895,50,jumping
1783067277767143700,2.9287652,5.738516179469228,2.549107559707761,-3.677886548709869,0.458461582660675,0.5602027773857117,-0.2240215688943863,-6.2734700283885,-7.4331281397789715,1.250016719968617,50,jumping
1783067277787067600,2.9486891,4.628065458840132,1.300060269293189,-2.6881869445741176,0.40003702044487,1.0101536512374878,-0.6942253112792969,-6.2235015901267525,-7.47949475415647,1.222936040015146,50,jumping
1783067277806990600,2.9686121,4.293413817512989,0.4157721736997365,-2.012659672838449,0.2465816438198089,1.4881713390350342,-1.0779553651809692,-6.119291274067759,-7.5819164332330224,1.1131881097037344,50,jumping
1783067277826914800,2.9885363,3.4749025546878576,0.0961351461529731,-1.716003123384714,0.1997317969799041,1.5870304107666016,-1.4799253940582275,-5.957240178936719,-7.730645689976215,0.9585378654137252,50,jumping
1783067277846837800,3.0084593,1.7188538366407156,-0.3093979576051235,-0.3553846327543258,-0.0976216420531272,1.8338935375213623,-1.891220569610596,-5.723455388459563,-7.925159377294778,0.7773623830959201,50,jumping
1783067277866761700,3.0283832,0.5164525620669126,-1.0679419507235288,1.599277609145641,-0.9864347577095032,2.5990467071533203,-1.9036921262741089,-5.438181818285584,-8.148237480318546,0.4503081015625968,50,jumping
1783067277886684700,3.0483062,-0.7954542123645544,-1.6998685656636952,1.634142586299777,-1.476606011390686,3.2139194011688232,-1.605183243751526,-5.161918068519235,-8.337821310019493,-0.0756667467789957,50,jumping
1783067277906609000,3.0682305,-2.9976047759234903,-1.214202771526575,0.4536001653779298,-0.650164008140564,3.041879653930664,-1.8063690662384035,-4.864055358146131,-8.49413473828137,-0.6008436405427754,50,jumping
1783067277926532900,3.0881544,-5.448430825099349,-1.8833026405632496,-2.0548346807450053,1.7773727178573608,1.6787447929382324,-2.61299204826355,-4.45413746343255,-8.705653336414695,-0.7366550365891307,50,jumping
1783067277946455800,3.1080773,-7.734410010945797,-4.8167298356086015,1.003700072437525,3.427746534347534,0.7301924824714661,-2.747300624847412,-3.951090034122765,-8.968635579803586,-0.3505321512218564,50,jumping
1783067277966379500,3.128001,-8.918034104335307,-9.790018598672749,5.789896238094568,3.5414435863494877,0.6298743486404419,-1.860950827598572,-3.520592000456154,-9.149463271597028,0.2512727173021994,50,jumping
1783067277986303000,3.1479245,-10.74619879504442,-16.25548828573227,8.563804486835002,2.126782178878784,0.0012076422572135,-0.529327392578125,-3.309859584264457,-9.199362736275791,0.7660997422602027,50,jumping
1783067278006226700,3.1678482,-14.947980623042582,-21.13999635705948,10.866388186001776,-0.3747729361057281,-0.504108726978302,0.4098009169101715,-3.3021202221840618,-9.184960701435804,0.950194034634158,50,jumping
1783067278026146000,3.1877675,-19.236389764136074,-20.33581581740379,9.281378756183384,-2.3907134532928467,-0.4203765988349914,0.4384445250034332,-3.385075276507437,-9.176311531034113,0.7120191925045103,50,jumping
1783067278046070000,3.2076915,-19.49730396907925,-15.36164325724244,3.174233262461424,-2.58141827583313,-0.474686861038208,-0.4950735569000244,-3.384081297034025,-9.200772018551826,0.2533653239335864,50,jumping
1783067278065993000,3.2276145,-13.534129723918436,-9.689798813554644,-1.4596324070900677,-1.3148120641708374,-0.8825186491012573,-1.2641122341156006,-3.208222333563864,-9.266740574499964,-0.0720583150574471,50,jumping
1783067278085917000,3.2475385,-5.888175410538912,-4.861819854179024,-2.707968334364891,0.2055141329765319,-1.4365863800048828,-1.2241299152374268,-2.9700714568316933,-9.345521850270032,-0.1013279198899399,50,jumping
1783067278105841000,3.2674625,-1.9678607461690905,-0.2193400855392217,-1.563275736916065,1.0609976053237915,-2.409837484359741,-0.7829868197441101,-2.782085417716205,-9.402656526899335,0.1429157481588423,50,jumping
1783067278125764000,3.2873855,0.008616144914925,4.1893449557513,1.8848609759211536,0.5505954027175903,-2.8814902305603027,-0.4953691959381103,-2.6495702136710286,-9.43085094024837,0.4574163991978391,50,jumping
1783067278145688000,3.3073095,1.9186685529768464,8.440281567540765,3.0300480788886546,-0.4348802864551544,-3.211179494857788,-0.3110126554965973,-2.536372289036214,-9.452429734849929,0.6235040929012,50,jumping
1783067278165611000,3.3272325,4.875177640663087,10.584856724965572,1.1977356939155608,-0.9322754740715028,-3.570115327835083,0.3513032793998718,-2.4908523546159267,-9.46272550341487,0.6502883471913635,50,jumping
1783067278185535000,3.3471565,6.087999479225277,11.420039136606452,-1.17791221854873,-0.8504133820533752,-3.933837175369263,1.282578706741333,-2.597103528852761,-9.432851758676769,0.6683955932248383,50,jumping
1783067278205458000,3.3670795,4.7655680959090585,11.784978364169596,-1.9132102875709531,-0.8134434819221497,-4.017107963562012,1.7808172702789309,-2.837936484275758,-9.358305343997475,0.7339166976664215,50,jumping
1783067278225382100,3.3870036,2.930796846541762,11.580073046696183,-1.6547382150828838,-1.145977258682251,-3.68558406829834,1.6765753030776978,-3.1063214634910223,-9.268321706211566,0.7869900431409478,50,jumping
1783067278245305000,3.4069265,2.7734812555000183,10.812686990952493,-1.9015841471850872,-1.5431426763534546,-3.0127973556518555,1.3834280967712402,-3.33432299439162,-9.19151319181919,0.7541626362290232,50,jumping
1783067278265229000,3.4268505,4.478608472344279,10.091426726567745,-2.9841654486358165,-1.555032730102539,-2.169440984725952,1.1525315046310425,-3.5284096884697678,-9.127610920751094,0.6382972459506243,50,jumping
1783067278285152000,3.4467735,5.786707671186328,9.117071991080046,-4.849773442554474,-0.9400858283042908,-2.0094943046569824,0.8676552772521973,-3.692679044172168,-9.068289547732473,0.5482906291479245,50,jumping
1783067278305076200,3.4666977,4.48551605977565,7.716978983673453,-5.000651401764154,0.1360120177268982,-1.986942172050476,0.1748376786708831,-3.766208098502457,-9.032741849011185,0.6289893193792552,50,jumping
1783067278325000000,3.4866215,4.342034348297119,5.823994322529435,-4.720693473654985,0.5504528880119324,-1.954919457435608,-0.5104466676712036,-3.70293155811727,-9.040901774591209,0.8489703331705182,50,jumping
1783067278344923100,3.5065446,4.115584723013639,4.963738844430447,-4.320992729312181,0.6593205332756042,-1.5845868587493896,-0.8159857988357544,-3.5406770493686195,-9.07997004865408,1.0900180273227391,50,jumping
1783067278364846800,3.5264683,4.7792567217826845,3.4301907217800616,-3.769878603708744,0.3438903987407684,-1.5360780954360962,-0.7654821276664734,-3.3551553545400497,-9.123602269631624,1.2935264836102722,50,jumping
1783067278384769800,3.5463913,4.189710281932354,2.2805431322723626,-2.296289713589102,-0.2553615570068359,-1.3123711347579956,-0.6181324124336243,-3.192375652873516,-9.166565213045477,1.3975658270165323,50,jumping
1783067278404694000,3.5663155,3.3399519401893016,1.51425422411561,-1.7659702464722096,-0.8329403400421143,-1.119594693183899,-0.603145182132721,-3.0495056435525414,-9.21939430143535,1.368832484485209,50,jumping
1783067278424617000,3.5862385,2.2669226031988856,1.481557238650322,-1.6392612444877623,-1.132640361785889,-1.234495997428894,-0.8375589847564697,-2.890462498065829,-9.286804288363456,1.2533460105217993,50,jumping
1783067278444541000,3.6061625,1.3698197419568896,1.5859551862359047,-0.9397758087333292,-1.3997777700424194,-1.1965134143829346,-1.1983320713043213,-2.670170226368308,-9.372945279246569,1.0901620389033109,50,jumping
1783067278464464000,3.6260855,0.988313118213415,1.0186486352443695,-0.7958909232813864,-1.5126532316207886,-0.7123664617538452,-1.3768161535263062,-2.407176584802568,-9.467634902766346,0.8600849438376724,50,jumping
1783067278484388000,3.6460095,0.2043123200163245,0.1451098972022533,-1.0894856740117072,-1.4022464752197266,-0.5556133985519409,-1.4889706373214722,-2.128652196627855,-9.553274958389997,0.6116922206848859,50,jumping
1783067278504312000,3.6659335,-1.484736745469272,-0.5194844771087169,-0.0040998365342617,-1.639725923538208,-0.4479242265224457,-1.8872407674789429,-1.805345102266222,-9.632828972098231,0.3460222360493615,50,jumping
1783067278524235000,3.6858565,-2.3944968437105416,-1.0291653530836105,0.5552899499833583,-1.854619026184082,-0.2157114744186401,-2.411182641983032,-1.3889403297513725,-9.707781629490851,0.014829878605419,50,jumping
1783067278544159000,3.7057805,-1.5935203607931732,-1.9259253922373056,-0.9013029432803392,-1.393158793449402,-0.238605335354805,-2.664008140563965,-0.8901645133461803,-9.761220374211668,-0.3107617567716166,50,jumping
1783067278564082200,3.7257037,-0.1995791905472055,-3.5958757894992828,-2.4117536834597586,-0.058304063975811,-0.0726416781544685,-2.4675540924072266,-0.3834089502334594,-9.788310041189192,-0.4608391401881351,50,jumping
1783067278584006100,3.7456276,1.8836404942154883,-6.839062176677584,-2.43301274458766,1.9836218357086184,0.3567964732646942,-1.2466336488723757,0.0043371275907105,-9.802584650257227,-0.2823110671065748,50,jumping
1783067278603929000,3.7655505,-2.0170530854918063,-10.23181251785755,-1.19558107316494,3.878917217254639,-1.034970998764038,-0.0259588230401277,0.1153087153768632,-9.800921685481072,0.3146647920921445,50,jumping
1783067278623853000,3.7854745,-8.113566564431785,-12.154361127138138,6.7981322003960605,3.3185877799987797,-0.9819788932800292,0.8733025193214417,0.0483991476849885,-9.749891170945762,1.0524549701910466,50,jumping
1783067278643776000,3.8053975,-11.790873851948977,-10.155233136045933,9.813693488770722,1.3100652694702148,0.4902476072311401,1.3074315786361694,-0.1693606692257337,-9.689107324159146,1.5042964553333815,50,jumping
1783067278663700200,3.8253217,-8.496141401928663,-8.231868534207344,3.49951618694067,0.4983024895191192,0.928449273109436,1.5290279388427734,-0.4658046171084046,-9.657457217398283,1.6391884715124965,50,jumping
1783067278683623200,3.8452447,-2.616825881932676,-7.504425197273492,-4.7280993659973145,1.6534998416900637,0.2683064043521881,2.2096056938171387,-0.8371094341807067,-9.600498481857777,1.816600948034972,50,jumping
1783067278703547000,3.8651685,-1.279178663175553,-5.145547948476672,-4.765433948135375,2.8397157192230225,0.4616325199604034,2.709465265274048,-1.3261618020161985,-9.451001747873423,2.2561605322964486,50,jumping
1783067278723470800,3.8850923,-0.9440259404584764,-3.7220658821761607,-1.680209925469756,2.659043550491333,0.7514084577560425,2.749350547790528,-1.8720047092184424,-9.221589181131124,2.761941332092881,50,jumping
1783067278743394000,3.9050155,0.858321441296488,-3.4515468135416505,0.9381789679959416,1.5554015636444092,0.7233127951622009,2.7144148349761963,-2.4063228905826803,-8.979149375033378,3.123285165512561,50,jumping
1783067278763318000,3.9249395,5.519494073837995,-5.823143258658051,3.6607983435258262,0.2627377808094024,0.8407778143882751,2.951378345489502,-2.95320946161896,-8.772507443025708,3.239140326657891,50,jumping
1783067278783241000,3.9448625,8.012039203846454,-11.37571951788664,4.924755910563468,-0.8122623562812805,0.3216290771961212,3.0811243057250977,-3.522761453449726,-8.593568341457843,3.148193104536831,50,jumping
1783067278803165000,3.9647865,2.493520404781401,-5.169010657128691,3.390879578872025,-1.3718467950820925,-0.4891862869262695,1.463252305984497,-3.925553149545193,-8.48572113020122,2.958542931601405,50,jumping
1783067278823087900,3.9847094,2.6625454305782914,-2.1009411828815936,-0.9791475227221846,-1.3231935501098633,-0.4546164572238922,0.0889294371008873,-4.01347459410429,-8.509563193559647,2.7658202193528414,50,jumping
1783067278843012000,4.0046335,4.930229958060384,2.2650118011415,-4.74456563989073,-0.7224287390708923,-0.0079555409029126,-0.2291579842567443,-3.9746439281895753,-8.577473531225323,2.6075907283365725,50,jumping
1783067278862935000,4.0245565,5.107855638942122,5.700293708580732,-5.430234658673405,-0.2341070175170898,0.4185080230236053,-0.0925924330949783,-3.959536375428736,-8.61238994630575,2.5137974691346288,50,jumping
1783067278882859000,4.0444805,4.451350755323469,7.794350392645597,-4.688181197106838,-0.1255153119564056,0.6853874325752258,-0.2250940352678299,-3.9632328918591138,-8.631123872870207,2.4427191689573227,50,jumping
1783067278902783000,4.0644045,4.362122319819033,8.50918266980946,-4.620511097937822,-0.2902204394340515,0.6694908738136292,-0.4597350358963012,-3.934158773066103,-8.66884599302113,2.3545485719427464,50,jumping
1783067278922706200,4.0843277,5.004845930844545,8.751911229720712,-4.141848168300092,-0.3447250425815582,1.0323739051818848,-0.4591712355613708,-3.889896729752421,-8.721535380679368,2.230228072530031,50,jumping
1783067278942630100,4.1042516,5.779641386061907,8.68895179246068,-4.676971236306429,-0.1299748718738556,1.214543104171753,-0.3024375438690185,-3.871462370656431,-8.762423855906725,2.0981169192411,50,jumping
1783067278962553000,4.1241745,5.748816039687394,8.512954005041719,-4.081309528446197,0.0468462705612182,1.236103653907776,-0.2242194563150406,-3.877298821724951,-8.782900242224335,1.9994014012061057,50,jumping
1783067278982477000,4.1440985,5.589592861458659,8.076535933676361,-2.7364310432612893,-0.1119047775864601,1.4060542583465576,-0.1367788016796112,-3.8941988108605146,-8.797938236880302,1.8978620579220356,50,jumping
1783067279002400000,4.1640215,5.548245536547899,7.481335413587093,-2.602492528414726,-0.3858874440193176,1.5794682502746582,-0.0048766955733299,-3.937098041388392,-8.812361899030208,1.735492544491589,50,jumping
1783067279022324000,4.1839455,4.973036834129691,7.425657365506887,-3.108737584722042,-0.2364570945501327,1.9657021760940552,-0.0024082146119326,-3.995903281578421,-8.823272584623098,1.533951588884741,50,jumping
1783067279042247400,4.2038689,4.139382947230339,7.237225043928623,-3.9032664989352224,0.3820388615131378,2.251276731491089,-0.288248211145401,-4.036431399060786,-8.831163630133867,1.3740921585790813,50,jumping
1783067279062171400,4.2237929,3.1876474553078413,6.89421883123219,-3.288594970178604,0.8857946991920471,2.39202880859375,-0.7184051871299744,-4.007661816172302,-8.855069990900159,1.3026044008180495,50,jumping
1783067279082094300,4.2437158,2.006050776092708,4.874008304622769,-1.9629365876398976,0.9895966053009032,2.6928529739379883,-0.8496937155723572,-3.928146380908787,-8.894472026962042,1.276100424773991,50,jumping
1783067279102018600,4.2636401,0.5631228355661034,1.463914029932022,-0.2163829892992973,0.4817002117633819,3.198791980743408,-0.7042121291160583,-3.8612852600350975,-8.935918136072159,1.1875310377001762,50,jumping
1783067279121942500,4.283564,-1.5520397648915647,-0.7698556607276201,1.683400830465555,-0.2924938201904297,3.533518075942993,-0.5593452453613281,-3.823391874970496,-8.982026976296305,0.9355568758640438,50,jumping
1783067279141865500,4.303487,-3.478585042592883,-3.164554749011993,-0.0165465725880116,0.3920834958553314,3.1033828258514404,-0.6754199266433716,-3.769861068052053,-9.028666562396287,0.6646267422106117,50,jumping
1783067279161789400,4.3234109,-5.42843491577506,-6.353921867719293,-0.3690437402725219,1.9869598150253296,2.503254175186157,-0.97068589925766,-3.6538197366848575,-9.07551073115766,0.674603288758546,50,jumping
1783067279181712600,4.3433341,-8.31770323562026,-9.912863472574948,3.895020064115524,2.9572482109069824,2.553835868835449,-0.5222146511077881,-3.547361641699076,-9.092457189783453,0.9559321398947388,50,jumping
1783067279201636600,4.3632581,-11.144293273234366,-13.31311965934038,5.178325013440847,3.435635566711426,1.2697153091430664,0.0193804576992988,-3.5529625304460524,-9.032862260520458,1.3979481043323874,50,jumping
1783067279221559600,4.3831811,-14.694051454681157,-15.743082368707656,9.046460577762126,2.4013097286224365,0.3938231170177459,0.259839117527008,-3.603186112512648,-8.920337120580673,1.9013260807707903,50,jumping
1783067279241483500,4.403105,-15.292053588187692,-14.75661750870943,12.490066076910496,0.213481456041336,1.0804551839828491,0.5117043852806091,-3.7035426757529377,-8.840784860438108,2.0723665380433203,50,jumping
1783067279261406500,4.423028,-14.060870455765723,-12.5296709420681,6.681424221813678,-0.169418454170227,0.3250002861022949,0.2788963913917541,-3.808252465766668,-8.816281118300557,1.9851367290101944,50,jumping
1783067279281330700,4.4429522,-11.541911950606108,-11.18641976582408,4.11024014711529,0.6252402067184448,-0.3024014830589294,0.1114035844802856,-3.8354473466843366,-8.794391358053684,2.029390735147893,50,jumping
1783067279301253600,4.4628751,-8.348657176810503,-7.993143949240445,4.731584285503626,0.7645046710968018,-0.6089656352996826,0.0911563634872436,-3.83408862555176,-8.754446301156282,2.197684377930313,50,jumping
1783067279321177600,4.4827991,-4.80292255179137,-3.6103912215858696,4.144981790150702,0.7099625468254089,-1.6147834062576294,0.0346257016062736,-3.797798876291514,-8.717055020394922,2.4000173606976865,50,jumping
1783067279341101600,4.5027231,-1.522995748975873,-0.6320978798538446,2.0386440089225766,0.8172839283943176,-3.3703453540802,0.3658888638019562,-3.6944185813158743,-8.665634629759191,2.725518311841786,50,jumping
1783067279361024500,4.522646,-0.4289622024014592,-0.294974879977107,3.3291695571511983,0.078468844294548,-3.514655113220215,1.232290744781494,-3.625018881875276,-8.577036308851838,3.076366762471199,50,jumping
1783067279380948500,4.54257,-0.750519384355843,2.2039491374135016,3.046511722433567,-0.7525018453598022,-2.7899327278137207,1.254991888999939,-3.6545123951241374,-8.505188047215341,3.2367712594389912,50,jumping
1783067279400871400,4.5624929,3.718236094754934,3.1476778484910723,3.7945135710105298,-0.5910595655441284,-1.986847162246704,0.5522879958152771,-3.645063014255464,-8.490338268607854,3.2860385636940594,50,jumping
1783067279420795400,4.5824169,3.246289321629703,2.188731694537401,-1.2689838707670569,-0.7768111228942871,-3.3195481300354004,0.3426757156848907,-3.541225330901146,-8.497903150904179,3.378724738436937,50,jumping
1783067279440718600,4.6023401,1.6668386949822305,6.4881409530729055,-1.635500138388574,-1.2624210119247437,-2.537346601486206,-0.5212239623069763,-3.3248236369013786,-8.574090318527817,3.406012266074121,50,jumping
1783067279460642600,4.6222641,2.818722080717981,8.022162538453935,-7.245648588880896,-0.8888416886329651,-1.9520893096923828,-1.039647340774536,-3.013549656291306,-8.70944629895687,3.351778863844275,50,jumping
1783067279480565500,4.642187,5.095150471147894,9.949981781613824,-9.878008432292935,-0.2491727024316787,-1.8108879327774048,-1.1745288372039795,-2.688079977068305,-8.812287080228328,3.359794997039437,50,jumping
1783067279500489500,4.662111,6.207447111904621,8.7038904183954,-9.407411027950047,0.252292662858963,-1.59104323387146,-0.5402002930641174,-2.4174255916163325,-8.855772001689672,3.449889401723444,50,jumping
1783067279520412400,4.6820339,6.075988723435998,8.141395651599764,-8.829066365593672,0.3317113220691681,-1.501245141029358,-0.0312161557376384,-2.261876279594749,-8.843795732691884,3.5835198735341427,50,jumping
1783067279540336600,4.7019581,5.593327371811866,6.213018190035224,-6.913244434219599,-0.3602527678012848,-1.2183010578155518,0.3665128350257873,-2.192513112772256,-8.833471322554349,3.651444239725172,50,jumping
1783067279560260600,4.7218821,5.189274277478456,4.9189165368855,-6.159207689392567,-1.267461895942688,-0.7607778906822205,0.5834507346153259,-2.206398576392233,-8.871893115407229,3.548480124334991,50,jumping
1783067279580183600,4.7418051,4.827013329213857,4.366170426166057,-6.403994935399293,-1.7421202659606934,-0.3890936970710754,0.6230913400650024,-2.2789839201316235,-8.94942000720203,3.2991645872488617,50,jumping
1783067279600107500,4.761729,4.513475203064084,4.617919327878952,-6.69878452193737,-1.7795653343200684,-0.1441700309514999,0.3951633870601654,-2.3565987824708223,-9.03716667971611,2.9910642682388424,50,jumping
1783067279620030700,4.7816522,4.1022313204437495,4.965580088382959,-6.185819801986217,-1.6113158464431765,0.4077458679676056,-0.0162814036011695,-2.3983079264312983,-9.124010265910623,2.677865457046032,50,jumping
1783067279639954700,4.8015762,3.775525085163116,4.456817496296763,-6.143847038653493,-1.199954628944397,0.8692075610160828,-0.413850873708725,-2.3927234042972323,-9.206912421002984,2.3828550673641264,50,jumping
1783067279659877600,4.8214991,2.9085712784692643,3.576830312767625,-5.459627341896296,-0.6256754398345947,1.1887658834457395,-0.8647387027740479,-2.320495349562913,-9.277724325329064,2.1701441907063126,50,jumping
1783067279679801300,4.8414228,1.6943227681048214,2.1935931630939245,-3.553556696946919,-0.4203313589096069,1.881000518798828,-1.3379746675491333,-2.179896500044316,-9.34746655459702,2.01079329444468,50,jumping
1783067279699724500,4.861346,0.79242229732275,2.01747028799057,-2.261713928639889,-0.4862427413463592,2.355966806411743,-1.894857168197632,-1.960792707479,-9.431265950790047,1.837640521193296,50,jumping
1783067279719648500,4.88127,0.9906314781583844,0.8412848201692104,-1.98964470795393,-0.6388043165206909,2.4296858310699463,-2.383999347686768,-1.6369162887968125,-9.527897356027363,1.6462268457166849,50,jumping
1783067279739571500,4.901193,2.124635362201929,-1.1680658742517231,-1.835299511025101,-0.9105603694915771,2.6003150939941406,-2.6065051555633545,-1.2309994464181362,-9.623647886776924,1.428434574141353,50,jumping
1783067279759495400,4.9211169,4.674860820023715,-4.949132811450958,-2.410390578413009,-0.7623101472854614,2.6868109703063965,-2.495403528213501,-0.8074769508525729,-9.699939099296929,1.1956319265693425,50,jumping
1783067279779418400,4.9410399,3.9038536511734128,-9.603246903783084,-4.14445309010148,0.4905970692634582,1.6163382530212402,-2.2558724880218506,-0.3975453929398209,-9.732027597475051,1.1401787732861934,50,jumping
1783067279799342600,4.9609641,0.6622917233917862,-18.117033852517604,0.1205259294353425,0.4606615602970123,1.8330223560333248,-0.8904728293418884,-0.0948659299347549,-9.724687756106256,1.2616766164936124,50,jumping
1783067279819266600,4.9808881,-5.270422866901755,-29.431327134060854,5.515069243133068,-1.541757583618164,2.9720475673675537,1.6071901321411133,-0.2390838284670375,-9.733922032919526,1.1678957053165882,50,jumping
1783067279839189500,5.000811,-18.57298898352385,-25.458383287787434,6.34057314132452,-3.069803476333618,3.094478130340576,1.2629342079162598,-0.6337455739956349,-9.763763628953695,0.661569035140425,50,jumping
1783067279859113500,5.020735,-22.62052717527151,-12.332186714506149,2.2014672574698926,-1.7639107704162598,3.7165257930755615,-2.054586887359619,-0.5949986773742363,-9.788141114363071,0.0930759960443712,50,jumping
1783067279879036400,5.0406579,-10.018266797810792,-9.646963295912744,-4.688337848973274,1.4902081489562988,3.1097986698150635,-3.322979211807251,-0.0073032145650329,-9.806523158749938,0.0492729576777201,50,jumping
1783067279898960600,5.0605821,1.2435422632575035,-5.499499333557486,-1.894782650476694,2.0879201889038086,1.7089663743972778,-2.224236011505127,0.5386415244560688,-9.78029390799403,0.4754701614784076,50,jumping
1783067279918883600,5.0805051,6.069584701612591,-1.6288941642522812,1.195772796344757,-0.5815961360931396,0.6420701146125793,-0.2071333974599838,0.7721455252304673,-9.75388813162744,0.6601826953485608,50,jumping
1783067279938807600,5.1004291,6.19012305213809,1.7492875533491372,-0.7066133148729801,-3.146450996398926,0.0979309976100921,1.8664706945419312,0.5984860445659608,-9.784377377915382,0.2795471188185736,50,jumping
1783067279958730500,5.120352,3.5047964654311534,7.344908004534244,-3.587290916505456,-3.8129336833953857,-0.2596704065799713,2.9010634422302246,0.1153861097283195,-9.796570504534245,-0.429281680146791,50,jumping
1783067279978654700,5.1402762,1.4226808329202234,11.2418815408051,-4.932171155256032,-2.562178134918213,-0.3551116585731506,2.989490509033203,-0.4768215030221268,-9.73592811204493,-1.074581607933715,50,jumping
1783067279998577700,5.1601992,-0.7881929161246866,12.240038007640836,-4.245448535767197,-0.1451230943202972,-0.28178471326828,2.2381627559661865,-1.0031190576791762,-9.662231592193246,-1.3436654561333357,50,jumping
1783067280018501600,5.1801231,-2.114252499875426,12.576532061964272,-0.6108714788865298,2.464116096496582,0.2376561611890792,0.8360787034034729,-1.3039191366784273,-9.655904727259278,-1.110709298500046,50,jumping
1783067280038425300,5.2000468,-0.0960188262969255,11.250381658124924,2.932376809209585,3.443121194839477,0.2842438817024231,0.3047599792480469,-1.38165251083076,-9.69534651080966,-0.5115395094536245,50,jumping
1783067280058348500,5.21997,1.8422484533801675,9.879599500876663,5.99442863060236,2.411327362060547,0.3924293518066406,0.9900048971176147,-1.498979790355265,-9.69120517322123,0.0630514218258438,50,jumping
1783067280078272500,5.239894,1.177380230563879,10.491655878698824,5.3442123257339,1.229396104812622,0.3928775787353515,1.328321933746338,-1.7391196489475669,-9.643360302984714,0.3891518777996301,50,jumping
1783067280098195500,5.259817,0.776407566589117,10.463573109030722,2.35954886444807,0.9161214232444764,0.2136010080575943,1.0471291542053225,-1.970516082983464,-9.589690672117472,0.5703548691788688,50,jumping
1783067280118119400,5.2797409,1.0233347472339869,10.359422998726368,-0.4095756571471691,1.2952336072921753,0.153921291232109,0.9710184335708618,-2.159682710185647,-9.53506943961382,0.7672099685244261,50,jumping
1783067280138042400,5.2996639,1.6316097068212925,9.476761627551912,-1.2399695193372666,1.7248501777648926,0.3451194167137146,1.3399386405944824,-2.375907294052839,-9.456860995295644,1.0455898336619138,50,jumping
1783067280157966600,5.3195881,2.3402573040008545,8.343519229400158,-1.5522132217623292,1.773423433303833,-0.0254172198474407,2.1518797874450684,-2.70432530168742,-9.327087198913096,1.364717304251343,50,jumping
1783067280177889500,5.339511,0.3592638122752308,6.679282533609867,-1.1333305148266255,1.8901547193527224,-0.2207343280315399,2.474693775177002,-3.138632956770062,-9.131844028276204,1.711380870411545,50,jumping
1783067280197813500,5.359435,0.0984931074559688,7.151857375505566,-1.7031635155558584,1.5058668851852417,-0.3342564404010772,1.6656869649887085,-3.508883734744787,-8.925062980058788,2.0497237674720585,50,jumping
1783067280217736400,5.3793579,-0.5561091574117542,6.244676480102538,0.9721744688391684,0.9875169396400452,0.7163714170455933,1.0336674451828003,-3.742380648191273,-8.778041111755371,2.2607462526515123,50,jumping
1783067280237660700,5.3992822,1.2796134013310074,4.1276948475241655,1.2596047786556184,0.5564244985580444,1.890941500663757,0.8671303987503052,-3.965757734161615,-8.673684665223956,2.282616577545553,50,jumping
1783067280257583600,5.4192051,1.7821295002430677,1.410537829053402,-0.5552621851935983,0.3703079521656036,1.8792561292648315,0.9735641479492188,-4.209699761515855,-8.579075705724954,2.2018742308355868,50,jumping
1783067280277507600,5.4391291,2.461447980955243,0.0988192706704139,0.4230559009671211,-0.2038006484508514,1.8584964275360107,1.0528051853179932,-4.459858179166913,-8.48436094776392,2.0726003467991947,50,jumping
1783067280297430500,5.459052,2.60962837164402,-1.493333016639948,2.0745077878557145,-1.394277811050415,2.318892478942871,1.2604414224624634,-4.738222700604796,-8.406540041458607,1.7463389326766132,50,jumping
1783067280317354500,5.478976,1.3626438589781522,-1.4367314239740372,1.0240507134836168,-2.0576696395874023,2.3123836517333984,0.7866384983062744,-4.9927019040644165,-8.35241039186418,1.21677189136222,50,jumping
1783067280337278700,5.4989002,1.0245032064914703,-1.180254324695468,-0.840090057426691,-2.012193202972412,2.0399293899536133,-0.136497288942337,-5.082824073538184,-8.360938566234708,0.6557360181380063,50,jumping
1783067280357201700,5.5188232,1.7771072881668806,-5.285411177197099,-1.9690426494300364,-1.3943465948104858,2.286993265151977,-0.4924471378326416,-5.037859727174044,-8.412414486449956,0.1470552956489846,50,jumping
1783067280377125400,5.5387469,0.683054744631052,-9.59107423543036,-2.301414070865512,-0.1180510967969894,2.357064962387085,-0.5469455718994141,-4.950420513173937,-8.462553605103492,-0.2211765254524536,50,jumping
1783067280397048600,5.5586701,-2.098942702540755,-10.372467189216612,-1.6259505120158195,1.3779256343841553,1.7814435958862305,-1.1397231817245483,-4.804438801573217,-8.543222302055359,-0.3179914888294413,50,jumping
1783067280416972500,5.578594,-4.244740387497842,-12.901089010256529,-0.0754407331705093,2.2808220386505127,1.2662878036499023,-1.749664545059204,-4.540333691634237,-8.691317937070131,-0.1294129728466738,50,jumping
1783067280436895500,5.598517,-6.45029082262814,-19.827576372408867,3.8701287839651104,2.502864360809326,1.080857753753662,-1.33919095993042,-4.25912196407169,-8.831464658907056,0.1883420129463076,50,jumping
1783067280456819500,5.618441,-11.473546270388365,-24.135016377186773,6.335289063441753,2.1365437507629395,0.3235979378223419,-0.837456464767456,-4.078290765146911,-8.90137581500113,0.5508837509136647,50,jumping
1783067280476742400,5.6383639,-15.270559549260138,-23.85346387336254,9.659226565158368,0.2927716076374054,0.1486348658800125,-0.8340641260147095,-3.9367724626958367,-8.947398145985602,0.7850289722010493,50,jumping
1783067280496666400,5.6582879,-12.889999460965392,-16.040366694670915,8.055814048165082,-1.8203691244125368,0.3862840235233307,-1.1326603889465332,-3.770800979250669,-9.032760553711652,0.6005713629400358,50,jumping
1783067280516589600,5.6782111,-6.880711699405312,-8.989002076005935,1.890876875209808,-1.8018605709075928,-0.1383727341890335,-1.0726221799850464,-3.5623470293849704,-9.13375775294304,0.2335286420253105,50,jumping
1783067280536513500,5.698135,-2.462333823879063,-3.4056139144063,-0.3207879511475562,-0.453557014465332,-0.90234375,-0.8302595615386963,-3.3935841616556046,-9.200606014335156,0.0530858807291137,50,jumping
1783067280556436500,5.718058,-1.8759122380509967,-1.1535837599128484,-0.0599637625753879,0.4931976497173309,-2.398201942443848,-0.7612549066543579,-3.241693810532987,-9.25371158157885,0.1750345318773761,50,jumping
1783067280576360400,5.7379819,-1.560256389094889,0.8655524154633283,2.120998467004299,0.534009575843811,-3.010990619659424,-0.9932798743247986,-3.067735127726197,-9.303167394143342,0.4587540775423869,50,jumping
1783067280596284700,5.7579062,-0.4288029201865196,3.193744603139162,2.3771289448022843,0.0885345339775085,-2.520784616470337,-1.5005851984024048,-2.805164972269535,-9.371682711964844,0.6877484554052352,50,jumping
1783067280616207600,5.7778291,0.9289479060530662,5.416167554876208,2.4520903700232504,-0.3428074717521667,-0.9310271739959716,-1.818777561187744,-2.4615362437605857,-9.46251858266592,0.7562891999289393,50,jumping
1783067280636131600,5.7977531,1.8769779675863685,9.50227659255862,0.8438906187534332,-0.5608623623847961,0.2594309449195862,-2.2287302017211914,-2.07988655828461,-9.559438157194853,0.6794196760643273,50,jumping
1783067280656054500,5.817676,2.848183445262909,13.03667120065689,-1.0117629673838615,-0.698854923248291,0.5738639235496521,-2.5470075607299805,-1.6198083559989929,-9.656806644535065,0.5410031755534932,50,jumping
1783067280675978500,5.8376,4.941200264886021,11.672958251142502,-1.994938138186932,-0.6018326282501221,0.6889230608940125,-2.422962188720703,-1.1369636106319725,-9.732456052020192,0.3962102718785404,50,jumping
1783067280695901700,5.8575232,3.993597342723608,11.958550970268249,-2.8450281961023807,-0.5685206651687622,0.4794643819332123,-1.7220286130905151,-0.737632795580104,-9.775189278331398,0.2682682392341085,50,jumping
1783067280715825700,5.8774472,3.884853474888205,11.808914535552262,-3.337845615559816,-0.2665396928787231,0.2578513026237488,-1.1947269439697266,-0.456955065296404,-9.794342307090758,0.180042806759756,50,jumping
1783067280735748600,5.8973701,3.3793376096382737,11.32538049274683,-3.336881154441833,0.0192018412053585,0.3471740484237671,-0.6113096475601196,-0.2767514054191298,-9.801469967013595,0.1579794800442643,50,jumping
1783067280755672600,5.9172941,3.1151196869745847,11.244575017672776,-4.117618859189749,-0.0409591719508171,0.6648495197296143,0.2769409120082855,-0.2426761173379607,-9.802367792636156,0.1583574282448738,50,jumping
1783067280775595500,5.937217,2.679875335563719,9.92519103922844,-4.728806637483835,-0.146150529384613,1.0240336656570437,1.0343416929244995,-0.3788978660171851,-9.798447404322028,0.1313403789789881,50,jumping
1783067280795519500,5.957141,2.001952839254588,8.59085323728025,-4.684543132865429,0.0167467836290597,0.933262586593628,1.2127200365066528,-0.6107720005674288,-9.787056241735815,0.1042857376490719,50,jumping
1783067280815442700,5.9770642,0.6561035362761467,7.272083591341972,-3.25749372947216,0.520677924156189,0.9194996356964112,0.9213083982467652,-0.8232485935453325,-9.771030989608168,0.1399433356187772,50,jumping
1783067280835366400,5.9969879,0.6610756986655294,6.306043095213174,-2.4577836132287976,0.5663520693778992,1.029016375541687,0.4077489674091339,-0.9609493835348636,-9.75653601578772,0.2386575841452926,50,jumping
1783067280855289300,6.0169108,0.7908683458790182,6.858952287539839,-2.0189853687286377,0.4393107295036316,0.7770618200302124,-0.4638938009738922,-0.963550213683024,-9.754140060561896,0.3141642952241003,50,jumping
1783067280875213600,6.0368351,0.2628746913611888,4.32450102969408,-0.8184405356764793,0.6677663326263428,0.5044442415237427,-1.2647534608840942,-0.797679414133355,-9.765623577606677,0.4082837541731074,50,jumping
1783067280895137500,6.056759,-0.286265540353395,3.67975000449419,0.1500011763751506,0.3144172728061676,-0.0346484780311584,-2.037947416305542,-0.4786819265991449,-9.781522573006152,0.5128939562698825,50,jumping
1783067280915060500,6.076682,-0.2754487618553452,3.314092984050512,1.099130285191536,-0.6978141069412231,-0.4334674179553985,-2.5416059494018555,-0.0185891032747749,-9.79459832767844,0.4856815396955236,50,jumping
1783067280934984400,6.0966059,1.0184732786774635,2.383023263537884,0.5685235255658626,-2.0010578632354736,-0.5576308965682983,-2.005105972290039,0.4434861831206828,-9.794124864947795,0.2209639056150801,50,jumping
1783067280954907400,6.1165289,2.761208341643214,1.5995798069626093,-1.0574258174061777,-2.883983612060547,-0.558303713798523,-1.0758600234985352,0.7422569482494146,-9.774581375566123,-0.2774910082726739,50,jumping
1783067280974831600,6.1364531,2.676351545351744,-2.288680846020579,-2.3091934726953505,-2.62807846069336,-0.4125367999076843,-0.2680135369300842,0.8684135039828718,-9.732306414416431,-0.8357401185888796,50,jumping
1783067280994754600,6.1563761,1.7451041301846504,-7.504972309762239,-2.2181277387611567,-1.932786583900452,-0.4619446098804474,0.3220284581184387,0.8451226447664201,-9.685843353927137,-1.2808482038229705,50,jumping
1783067281014678500,6.1763,-0.2774402461998164,-11.029144799053668,-0.9676562607623636,-1.7566049098968506,0.003025688463822,0.3357339203357696,0.7618171695701778,-9.638651979163289,-1.639030796732753,50,jumping
1783067281034601500,6.196223,-0.7745180995807052,-20.534733292639256,-0.5745126829780638,0.1374493539333343,1.5973368883132937,1.0793856382369995,0.6687243137225508,-9.614103228840232,-1.8144515149161216,50,jumping
1783067281054525400,6.2161469,-5.708355434483289,-30.581156509876248,1.9016573585517704,2.3878772258758545,1.744495868682861,1.3973960876464844,0.4707401372818276,-9.676445410984757,-1.5215778450019657,50,jumping
1783067281074448400,6.2360699,-10.148409427505731,-22.04653369386196,4.659223398169875,1.169634461402893,0.5884723663330078,-0.0689262449741363,0.3597164148809388,-9.736492760190368,-1.114308345905319,50,jumping
1783067281094372400,6.2559939,-7.956156573104858,-17.583596837902068,4.601627533769607,-1.1995376348495483,1.1836804151535034,-0.7593920230865479,0.4813091332975774,-9.729305479034782,-1.1310824436388909,50,jumping
1783067281114295600,6.2759171,-2.7168659265697,-12.153954299902916,-2.97774389115572,-1.217498540878296,1.4305176734924316,-0.7183186411857605,0.658002136439085,-9.685953244042397,-1.3855388507448136,50,jumping
1783067281134219500,6.295841,-0.0277612095635384,-5.858951654142141,-5.647382787126302,0.4983531236648559,1.4604113101959229,-0.5565544962882996,0.8274245640557258,-9.664453359895944,-1.4436439798414706,50,jumping
1783067281154142500,6.315764,1.411549928705394,-0.9593623335391284,-5.183565836703777,1.972232818603516,1.2608826160430908,-0.496442973613739,0.9593081191338598,-9.689298462817073,-1.1694481223903597,50,jumping
1783067281174066400,6.3356879,2.628845113289356,0.6994803942531347,-2.9625901611655947,2.5424036979675293,0.537871778011322,-0.4622719287872314,1.0746856528300792,-9.722627900967002,-0.6970966409217566,50,jumping
1783067281193990400,6.3556119,3.0882758114516733,0.5776543420046567,1.3713976587980985,1.9064764976501465,0.0337556079030036,-0.1045841202139854,1.1364427285630254,-9.73757061855495,-0.2420823892285115,50,jumping
1783067281213913300,6.3755348,3.942734293709695,3.9497067630708216,3.461348076587915,0.3800082802772522,-0.1824714094400406,0.5687455534934998,1.094965201401338,-9.745320209768414,-0.0128001297684153,50,jumping
1783067281233837300,6.3954588,5.616449304202199,7.560783628833294,3.910548472636938,-1.334558367729187,-0.0652085915207862,1.0951606035232544,0.9264550663240252,-9.762101248699429,-0.1158885976240504,50,jumping
1783067281253760300,6.4153818,5.476171064940095,8.76819600956738,2.336228194615245,-1.9054995775222776,0.0814396515488624,1.2290302515029907,0.6980262499220669,-9.771218036612868,-0.454385580134578,50,jumping
1783067281273684200,6.4353057,3.5037434492468837,10.084712908142803,1.5680425129264592,-1.483190894126892,0.2440616637468338,1.23092782497406,0.4573137425409629,-9.764190329933166,-0.788580161876604,50,jumping
1783067281293607400,6.4552289,0.9774067434694618,11.202094304817914,1.4587139770708977,-1.0120586156845093,-0.1560854911804199,0.7080456614494324,0.2612933587201871,-9.749413616561888,-1.0252138389788568,50,jumping
1783067281313531400,6.4751529,-1.363815825366974,12.424988916844129,2.196210652115941,-1.1389176845550537,-0.3078271150588989,-0.0269984807819128,0.1890110530479811,-9.728069799759984,-1.224463907169551,50,jumping
1783067281333454300,6.4950758,-2.078429783605039,13.536991543090345,1.9363304663956165,-1.595041036605835,0.0780270770192146,-0.7178584337234497,0.2616795998251065,-9.68936042213738,-1.4893629439651963,50,jumping
1783067281353378300,6.5149998,-1.3240760817833244,12.850180660796164,0.3596399521112441,-1.8232136964797971,0.6029443740844727,-1.0351413488388062,0.4497435630150139,-9.625340662169457,-1.822347674993425,50,jumping
1783067281373301200,6.5349227,-0.3554309561140835,11.842605208230015,-1.225047698406875,-1.5070582628250122,1.0393797159194946,-0.9408928751945496,0.677002239659056,-9.546567569705845,-2.1389554178468884,50,jumping
1783067281393225500,6.554847,0.0535986845228821,9.845637610042097,-2.1687251176886257,-0.7052283883094788,1.485381841659546,-0.4859338402748108,0.8726580827500671,-9.4848613473773,-2.333720741838962,50,jumping
1783067281413148400,6.5747699,0.0591759731985628,7.818587592801451,-1.7561691295564177,0.2070913612842559,1.9045672416687007,0.0385293923318386,0.992327395356074,-9.469389637479184,-2.348689616781473,50,jumping
1783067281433072400,6.5946939,-0.184569727865979,6.693457773956656,-0.7853909373812377,0.902325451374054,2.057835102081299,0.2675521969795227,1.0488766002476215,-9.49961117274165,-2.1971857807584105,50,jumping
1783067281452995300,6.6146168,-0.540739738844335,5.671941474321485,0.3600415186494589,1.076541781425476,2.1388487815856934,0.2558206617832184,1.0869170656327158,-9.547705049303174,-1.9571233713164924,50,jumping
1783067281472919600,6.6345411,-0.4664893114369362,3.401682420176267,1.1631067905396222,0.8150898218154907,2.102301597595215,0.4415644705295563,1.102000287669897,-9.590694296202065,-1.7246964251890775,50,jumping
1783067281492842500,6.654464,-0.8102822175316512,1.3672855473041534,1.7796943820506332,0.2905694842338562,1.7231062650680542,0.5606240034103394,1.06391802896969,-9.620846857881546,-1.5740924606151878,50,jumping
1783067281512766500,6.674388,-0.8511760265212506,0.9077396983295678,1.9418027603268624,-0.4319983720779419,1.2472906112670898,0.2520509958267212,1.0284964408461004,-9.628020695033667,-1.5536429623045027,50,jumping
1783067281532689400,6.6943109,0.8141767407521605,-0.9562649520456792,1.3549918829202652,-1.132109522819519,1.1399093866348269,0.2400039136409759,1.028460638880357,-9.606204584544896,-1.683296931699663,50,jumping
1783067281552613400,6.7142349,2.2463933176502584,-4.80612076331079,-1.01335111335814,-1.1576967239379885,0.7740503549575806,0.5377061367034912,0.9872752995982764,-9.571060205927491,-1.894855715712905,50,jumping
1783067281572537300,6.7341588,2.3843071658685804,-7.883571813887357,-2.5209593235880137,-0.7206387519836426,0.1303545385599136,0.5837317109107971,0.8970959200445562,-9.544870118138194,-2.064236276949197,50,jumping
1783067281592460300,6.7540818,1.553451092994213,-10.719586682450773,-1.2802151666164396,-0.7669886350631714,-0.1057906225323677,0.8632091283798218,0.7644354623097926,-9.526679796931148,-2.197363037021458,50,jumping
1783067281612384300,6.7740058,0.6599021979067474,-12.441892120850085,-0.3626701135873794,-0.8941130042076111,0.0810803920030593,1.3408430814743042,0.5533594933774322,-9.502312832915782,-2.360135870555788,50,jumping
1783067281632307200,6.7939287,-0.5197968309935183,-12.303224823915958,-0.3746455058023333,-0.890932023525238,0.0783356875181198,1.5150569677352903,0.2824714635663665,-9.470992981022595,-2.5280247319296003,50,jumping
1783067281652231400,6.8138529,-1.2542087648309763,-12.70350892110467,-0.1907870680108666,-1.2424556016921997,0.2061498761177063,1.7352495193481443,-0.0126232650893682,-9.421459427046775,-2.7214605608835813,50,jumping
1783067281672154400,6.8337759,-1.6618724508769809,-11.550108116543292,0.0578401945501565,-1.98028302192688,0.2175296545028686,1.881503939628601,-0.3437202061846852,-9.324187970340253,-3.0185698225408792,50,jumping
1783067281692078300,6.8536998,-3.287204684863984,-9.270193345302342,-0.8039692349925637,-2.4202992916107178,0.6178130507469177,1.804541826248169,-0.6618810967642813,-9.15977189964354,-3.43960298550874,50,jumping
1783067281712001300,6.8736228,-4.747732871749997,-7.737048542755842,-2.49050982478857,-1.8686374425888064,1.372969150543213,1.346534013748169,-0.879389509896934,-8.975077595549822,-3.852927473795414,50,jumping
1783067281731925200,6.8935467,-2.9252722379013893,-5.837250109943748,-3.217890033358336,-0.7925782799720764,2.484559297561645,1.2178069353103638,-0.9470497452590614,-8.844892295756935,-4.128119502677023,50,jumping
1783067281751848400,6.9134699,0.0965711264174431,-3.0650287913769483,-2.8110066840350627,1.0003981590270996,3.0779266357421875,1.1163135766983032,-0.9108989660780876,-8.82412774014771,-4.180361438828706,50,jumping
1783067281771772400,6.9333939,-0.9361498733211308,-1.4406488896787166,-3.3701433725744483,2.903337001800537,1.0081298351287842,0.568659245967865,-0.8814980995487421,-8.97502557310164,-3.852563901180029,50,jumping
1783067281791695400,6.9533169,-1.3111639932401478,-2.039771551647782,1.551250368079543,2.5216453075408936,0.0203805044293403,0.8982475399971008,-0.9742510559175164,-9.168833157977462,-3.3397190082162616,50,jumping
1783067281811619300,6.9732408,-1.3920222214147449,0.6798205850154161,4.25912196407169,1.1895458698272705,0.689971923828125,1.9225757122039795,-1.2140663587305691,-9.255999984776974,-3.003811813870072,50,jumping
1783067281831542300,6.9931638,-0.7298096276737749,4.944041625791788,2.9808567624792457,-0.0094133308157324,0.8711836338043213,2.504424333572388,-1.581492946130037,-9.22607246402502,-2.9238454199686643,50,jumping
1783067281851466500,7.013088,-1.907523620236665,7.0069918084532015,1.2971253848850726,-0.7651827335357666,0.3636788725852966,2.273137331008911,-1.9987660259120168,-9.111195792523024,-3.0267864467442034,50,jumping
1783067281871389400,7.0330109,-1.7798567330054935,7.61983612178266,1.039287810908258,-0.964362382888794,0.1997864097356796,1.517095923423767,-2.3273960688620803,-8.975103314512968,-3.1939190829232333,50,jumping
1783067281891313400,7.0529349,-0.0784016288027167,7.814156332355737,0.3975394746556878,-1.2993406057357788,0.3550380170345306,0.9853805899620056,-2.526938397997617,-8.842465360870957,-3.405254725705087,50,jumping
1783067281911236400,7.0728579,1.715543104657531,6.175628078317642,0.3433466966971755,-1.187385082244873,0.8703923225402832,0.7398760318756104,-2.633270528516173,-8.706298064059018,-3.665600483110546,50,jumping
1783067281931160600,7.0927821,3.302765534350276,5.31491258149147,0.7600660881191491,-0.3156369030475616,1.1588032245635986,0.5778213739395142,-2.666057530352473,-8.614421159872412,-3.854122528798878,50,jumping
1783067281951084300,7.1127058,2.9533552998304367,5.766079893699288,1.4229086503267288,0.4151530861854553,1.0772844552993774,0.3838627934455871,-2.6618609554454684,-8.594230604758858,-3.901805194211006,50,jumping
1783067281971007200,7.1326287,3.0900285003378984,4.993866271668672,2.1209283243775365,0.5828758478164673,0.9789146780967712,0.5004413723945618,-2.649196119661629,-8.6158444706738,-3.862560102276504,50,jumping
1783067281990931200,7.1525527,3.645651627798378,4.16491427884996,2.7189871565073727,0.2592262923717499,1.1322314739227295,1.189117193222046,-2.714306889736652,-8.606158358439803,-3.8388752753064033,50,jumping
1783067282010854400,7.1724759,3.617113807839155,3.714990829223394,4.151022531619668,-0.0621537752449512,1.92429780960083,1.795976996421814,-2.855907609774172,-8.527635441344977,-3.910704539981485,50,jumping
1783067282030778000,7.1923995,3.781127727475762,4.013916492652893,2.7433833466172217,-0.1411840617656707,1.8500524759292605,1.808437705039978,-3.0128879775121806,-8.410269291114806,-4.044781294254959,50,jumping
1783067282050701000,7.2123225,2.786419647528231,4.201283230826259,2.203613329587877,-0.1088122427463531,1.276559352874756,1.5745199918746948,-3.165750680798292,-8.295367485171557,-4.163566663633286,50,jumping
1783067282070625000,7.2322465,2.4273370370388028,4.769555411979556,3.1626708349615336,0.1576163470745086,2.225940704345703,1.496878743171692,-3.2932898499965666,-8.196256538078188,-4.25981345346719,50,jumping
1783067282090548000,7.2521695,2.279573118196428,3.656529872426391,6.505430526047944,0.5555509924888611,5.926455974578857,1.3523309230804443,-3.18443170813173,-8.134734440144896,-4.45599361269325,50,jumping
1783067282110472200,7.2720937,2.2608958902552723,0.9536328499764204,5.78483778566122,-0.3776643276214599,8.82439136505127,1.0060248374938965,-2.6396283731102943,-8.103766470429301,-4.850949500596523,50,jumping
1783067282130395100,7.2920166,1.712920354938507,-8.64351865954101,-17.754375429368018,-2.633473873138428,0.8577973246574402,1.7202274799346924,-2.533532681696117,-7.792076602494716,-5.388425561469793,50,jumping
1783067282150319000,7.3119405,-1.5763099905341862,-4.2176545199126005,-1.582711089748144,-2.019019603729248,1.434359788894653,0.9096298813819884,-2.542165777745842,-7.47846950276196,-5.812079428330064,50,jumping
1783067282170242000,7.3318635,-2.7777406665101645,-4.682769693452119,-0.4803665186852216,-1.3166277408599854,2.5346598625183105,-0.0709608718752861,-2.380416880431772,-7.258011226847767,-6.150225341513752,50,jumping
1783067282190166300,7.3517878,-0.7978190417997538,-6.959333985221385,-3.029363019233942,-1.3057950735092163,3.125537157058716,0.0161575060337781,-2.001451757864654,-7.106600768196582,-6.454518669456244,50,jumping
1783067282210089200,7.3717107,0.5155186422176659,-7.933058606112003,-4.97827941095829,-2.066378116607666,2.36392593383789,0.4659457206726074,-1.665184351903945,-6.879268514859676,-6.787725372672081,50,jumping
1783067282230013200,7.3916347,1.6426159617431462,-7.539635042342543,-6.116814654821157,-2.635509490966797,1.141790747642517,0.7727794647216797,-1.5082413935668766,-6.526449348679185,-7.162475215631723,50,jumping
1783067282249936100,7.4115576,0.2006805393852293,-4.553466437190771,-5.1291760748684405,-2.6179771423339844,0.8414239883422852,1.0627914667129517,-1.501330591265112,-6.105967682114243,-7.525526437491178,50,jumping
1783067282269860000,7.4314815,-0.378733213507384,-0.450406264707446,-2.4188497792005537,-1.9802449941635127,1.628780722618103,1.0834767818450928,-1.446545984893292,-5.716458076918125,-7.835814621934294,50,jumping
1783067282289783000,7.4514045,-0.357002150953561,0.6310387261897326,-0.5848059673249721,-1.087614893913269,2.194704294204712,1.148066163063049,-1.2523502774827182,-5.442037324669957,-8.061404415518044,50,jumping
1783067282309707300,7.4713288,-0.2204769075494259,0.521636686706543,0.1485205824285745,-0.0637877136468887,1.7309294939041138,0.9887548089027404,-1.0421652660407126,-5.324255579376221,-8.169245781555771,50,jumping
1783067282329630200,7.4912517,-0.3708488169331103,0.8155939140737056,1.6387129629552364,0.8433427214622498,1.030708074569702,0.7505755424499512,-0.9106475486002862,-5.375948941734433,-8.151090531662106,50,jumping
1783067282349554200,7.5111757,-0.3069644468478858,0.9383288978606462,3.461411204952001,1.3314837217330933,0.8624411821365356,0.7105793952941895,-0.8458437255825847,-5.54552108002007,-8.043763544887303,50,jumping
1783067282369477000,7.5310985,-0.1106294623862951,1.237206045973301,4.206145868426561,1.2122117280960083,1.0320210456848145,0.8372851610183716,-0.7794148586463183,-5.742494435450435,-7.911172352996468,50,jumping
1783067282389401000,7.5510225,-0.0349862654462456,0.8227221585184336,4.30436074346304,0.7771390676498413,1.2568944692611694,1.028844714164734,-0.7096104508623481,-5.885710481730103,-7.811866175591946,50,jumping
1783067282409325000,7.5709465,-0.140609224782139,0.8909925616681575,3.448949198263884,0.4319002330303192,1.1633388996124268,0.8270447254180908,-0.628677696146816,-5.962809503501654,-7.76015820018649,50,jumping
1783067282429248000,7.5908695,0.2830162562338635,0.9023007221460342,1.6645435697823765,0.4698609411716461,0.4997373223304748,0.4343196153640747,-0.5697218685049563,-6.026041912484168,-7.715738628223538,50,jumping
1783067282449172000,7.6107935,0.4820505993146449,0.3815267897486686,1.7236159364759922,0.3799834549427032,0.3217484056949615,0.3412929773330688,-0.5564205614484846,-6.090201373183727,-7.666174094587564,50,jumping
1783067282469095200,7.6307167,0.2233865844510495,0.3444967435151338,1.4174597372710704,0.1281973123550415,0.4564793705940246,0.4667971134185791,-0.5443592079831286,-6.12484773915112,-7.639391301602124,50,jumping
1783067282489019100,7.6506406,0.1655475589446723,-0.1283604224532842,0.6018669922411441,-0.0769456923007965,0.33908411860466,0.6365589499473572,-0.5483205858947708,-6.122151924195886,-7.641269370433688,50,jumping
1783067282508942000,7.6705635,0.0728331810206174,-0.106667061561346,0.5296528199017048,-0.1183745935559272,0.0046077230945229,0.6176076531410217,-0.5986597571650519,-6.098056178337335,-7.656742249375581,50,jumping
