time,seconds_elapsed,acc_x,acc_y,acc_z,gyr_x,gyr_y,gyr_z,grav_x,grav_y,grav_z,fs_hz,activity
1783067153573817900,0.0,0.5346138033099472,1.1278963609486818,-0.7995958422139287,-0.1132856681942939,-0.1284031867980957,0.1675137430429458,-0.5262340244341641,-9.360956150767208,-2.8750545010536905,50,jumping
1783067153593742600,0.0199247,0.4256397069152444,1.3945049781411885,-0.5877049036368728,0.0915477648377418,0.0036905966699123,0.1973511129617691,-0.5664487651184201,-9.357918390506503,-2.8773028645023704,50,jumping
1783067153613666800,0.0398489,0.4373649237614124,1.894814214658737,-0.5075716287359595,0.3011475205421448,0.0501074902713298,0.1983943581581115,-0.600021072113514,-9.366817736276984,-2.841317358885705,50,jumping
1783067153633590800,0.0597729,0.7806889702353627,1.8899796341091395,-0.5803729533135891,0.4592835605144501,-0.1244216337800026,0.256072074174881,-0.6443691132102162,-9.38547684403956,-2.7691151692450044,50,jumping
1783067153653514500,0.0796966,0.4344038819987326,2.09837454726398,-0.0476356114000082,0.4792233407497406,-0.1938030272722244,0.1976818740367889,-0.6986638902384787,-9.40847076613605,-2.67636703518182,50,jumping
1783067153673439700,0.0996218,-0.0625663462892174,2.773964947363734,0.5804033484518528,0.3845877349376678,-0.1723638027906417,0.0495202839374542,-0.7315602707333863,-9.429695924994348,-2.5915327429831025,50,jumping
1783067153693363700,0.1195458,-0.0157075644806027,3.3362843575924632,1.0773331716641783,0.2433329075574875,-0.0421856231987476,-0.0243276488035917,-0.7386154499419033,-9.445837496978044,-2.5300144444420933,50,jumping
1783067153713288000,0.1394701,0.0740870535392314,3.794425600466132,1.3686603427886963,0.0890748128294944,-0.0555662512779235,-0.0957145541906356,-0.7292005558647215,-9.454617600283026,-2.4997709896087645,50,jumping
1783067153733212700,0.1593948,0.2643515589807182,4.072134288343787,1.3088432952076197,-0.0332844629883766,-0.0337764099240303,-0.1250244081020355,-0.7095232840355485,-9.458040560469032,-2.492476156425476,50,jumping
1783067153753136600,0.1793187,-0.1395361156579107,3.88290467890799,1.7327312630847096,-0.2189948409795761,0.2818995714187622,-0.1444942653179168,-0.6806275905493646,-9.453315285512804,-2.518328975084424,50,jumping
1783067153773060900,0.199243,-0.6072968352701514,3.988069519212842,1.5178572170436382,-0.310023158788681,0.4131200611591339,-0.2836471199989319,-0.6227243407003581,-9.442060901048778,-2.5748972500026226,50,jumping
1783067153792984800,0.2191669,-0.7323464526750146,3.07345584346056,0.8834270948499441,-0.3029499351978302,0.4778224229812622,-0.4066921770572662,-0.5337374223342165,-9.430061251175404,-2.638077344276011,50,jumping
1783067153812909600,0.2390917,-0.4092854785615578,1.3527262760758398,-0.1893146573707461,-0.1511710733175277,0.4180313646793365,-0.3059996962547302,-0.4363166933501139,-9.421035648676751,-2.6877675501182674,50,jumping
1783067153832833800,0.2590159,0.0292532016869634,-3.0556945613205437,-2.0959879443883893,-0.036698330193758,0.2184369266033172,0.0424330905079841,-0.395117033281736,-9.417796812886,-2.70543384745121,50,jumping
1783067153852757800,0.2789399,-0.7499294556386769,-7.825333559930324,-4.251812810102105,0.1685617119073867,-0.146271750330925,0.2347732335329055,-0.4253242477579042,-9.418454984533788,-2.698554317070544,50,jumping
1783067153872682800,0.2988649,-3.801003225290775,-11.1080131685853,-5.274227519881725,0.6830502152442932,-0.13831527531147,-0.1393672674894333,-0.4493031623037531,-9.439773666894435,-2.6190061485812066,50,jumping
1783067153892606700,0.3187888,-5.881755022102594,-12.755453043353556,-5.3427790780603885,0.9881669282913208,0.1029729545116424,-0.4277438223361969,-0.3903053221510723,-9.485781969353557,-2.457230363260209,50,jumping
1783067153912530700,0.3387128,-5.018499777665734,-13.503227220654487,-5.483578126326203,1.3927921056747437,0.232632040977478,-0.3188650906085968,-0.3053068341002799,-9.542908462676404,-2.2383209242232143,50,jumping
1783067153932455000,0.3586371,-2.3248446308135984,-12.31804829903841,-5.35611085332036,2.147954225540161,-0.1113683432340622,0.1159384176135063,-0.2815430966750718,-9.615532969382404,-1.9059514024838804,50,jumping
1783067153952379600,0.3785617,0.282165594221279,-9.789556826379895,-3.8910669425755735,2.830694913864136,-0.6466621160507202,0.5327697992324829,-0.3542910653639584,-9.697000707757471,-1.4188235729701817,50,jumping
1783067153972303600,0.3984857,0.1560955477274954,-7.3633216131031505,-2.2101117516964672,3.2498459815979004,-1.5175321102142334,0.9101769328117372,-0.5236055025614798,-9.75806454052925,-0.8224435607727617,50,jumping
1783067153992227800,0.4184099,-1.2838728123411536,-4.072671463960409,-1.1204717639058828,3.646871566772461,-2.377765893936157,0.8868547677993774,-0.7223186143312603,-9.779280931559205,-0.1195753415790852,50,jumping
1783067154012152600,0.4383347,-2.016389945407957,-0.6647118632107972,0.2319171699743717,3.3154749870300293,-2.2049665451049805,0.5898789763450623,-0.8566519737143069,-9.75006418942511,0.6105425757257268,50,jumping
1783067154032076500,0.4582586,-1.3886707190297545,1.9658926609665155,1.7729180197834968,2.2008216381073,-1.5977303981781006,0.3295959532260895,-0.9048248337961732,-9.692579968705774,1.1855675556074827,50,jumping
1783067154052000800,0.4781829,1.470406022299826,2.8123423165529964,1.4950805909596383,0.6255385875701904,-1.3625617027282717,0.7430757880210876,-0.9596926614720374,-9.645393270117044,1.4885438826672732,50,jumping
1783067154071924700,0.4981068,3.386658454045653,2.8613766888350245,0.8606443312861025,-0.8833461403846741,-0.8723688721656799,1.4328844547271729,-1.1355104892142116,-9.627092474272846,1.483279678528756,50,jumping
1783067154091849700,0.5180318,1.5430284831792116,4.730463757041097,0.4254888272024691,-1.6533565521240234,-0.2371339201927185,1.4452626705169678,-1.413143043115735,-9.62481166985929,1.2395295204848051,50,jumping
1783067154111773700,0.5379558,-0.1752127745211124,7.630004464575648,-0.2632394330203533,-1.7879083156585691,0.2451568841934204,0.699292778968811,-1.6240297730863094,-9.629013213202358,0.9027905514895916,50,jumping
1783067154131697700,0.5578798,0.8062266585305332,9.5749420157969,0.1249999695768579,-1.5232869386672974,0.6070981621742249,0.1098201721906662,-1.7015082956947385,-9.641230889740584,0.5673738806067035,50,jumping
1783067154151622700,0.5778048,2.7820196590036157,9.870563961505889,-0.3269873903095722,-1.3456597328186035,0.3206013739109039,0.1010472550988197,-1.7195926723092794,-9.650745737060904,0.2765596822393126,50,jumping
1783067154171546600,0.5977287,3.974120488837361,9.468819144114851,-0.6164297706007957,-1.2766457796096802,-0.3637533187866211,0.2958457469940185,-1.76113011296466,-9.647187167796492,0.024163765026885,50,jumping
1783067154191470600,0.6176527,3.885305310308933,8.971293400835991,-0.3977525328844785,-1.1249347925186155,-0.4653088450431824,0.3303410410881042,-1.8227007262147965,-9.633888710284232,-0.190622945224028,50,jumping
1783067154211394800,0.6375769,3.3553777651190755,8.804673098093271,0.4505962708542123,-0.9076452255249025,-0.1231836751103401,0.3698431253433227,-1.8934180841252208,-9.614810500326753,-0.3751787358961999,50,jumping
1783067154231319600,0.6575017,2.844255458164215,8.362420913746952,0.4721856233824044,-0.5715221762657166,0.0765306949615478,0.275800347328186,-1.957502726022899,-9.595283962079884,-0.5187232469452545,50,jumping
1783067154251243800,0.6774259,2.31344645396471,8.100899390560388,0.2320282291334122,-0.2548247873783111,-0.4573828876018524,-0.0141243804246187,-1.985441118784249,-9.585305588901042,-0.5919067757735028,50,jumping
1783067154271167700,0.6973498,1.9142448913156984,7.587928825390338,0.2125462606806308,0.0208259653300046,-0.9343146681785583,-0.24222993850708,-1.9672163107857108,-9.589629881840944,-0.5826002009090036,50,jumping
1783067154291091700,0.7172738,1.6049841502241788,6.719270260605216,0.7013385893404483,0.0366885885596275,-0.9867439270019532,-0.3247426450252533,-1.9228142744794487,-9.601439562100172,-0.5343428774140775,50,jumping
1783067154311016700,0.7371988,1.5376633028842508,6.247520179095864,0.975879168576002,-0.0988171324133873,-0.8505493998527527,-0.2867031097412109,-1.871055591800064,-9.613168578338623,-0.5064660786468536,50,jumping
1783067154330940700,0.7571228,0.89196242961362,5.4763131037592885,0.7430424726039171,-0.1267995834350586,-0.6417987942695618,-0.3617419898509979,-1.8198652105279265,-9.623069794628025,-0.5049692642178386,50,jumping
1783067154350864600,0.7770467,0.0315099676378071,4.508838775435089,0.3682219024956226,-0.026277856901288,-0.4593765437602997,-0.5445684790611267,-1.741568649534881,-9.637966919508576,-0.4969099494680762,50,jumping
1783067154370790000,0.7969721,-0.525967117126286,3.70638199083209,0.6454740787774325,-0.2516984641551971,-0.2751532196998596,-0.8670089244842529,-1.6098101090759038,-9.660312022307515,-0.5072087137077004,50,jumping
1783067154390713600,0.8168957,-1.063463490135223,3.1458816127240654,1.0932692842036484,-0.4364461898803711,-0.0941678583621978,-1.1593438386917114,-1.4151336324110626,-9.68713923895657,-0.5719320188350975,50,jumping
1783067154410637600,0.8368197,-0.633166166672483,1.2890028687059878,0.1910514911007136,-0.4696999192237854,-0.0176060423254966,-1.2269917726516724,-1.1787957233849913,-9.71345149182081,-0.6555266862362623,50,jumping
1783067154430561800,0.8567439,-0.271573326927796,-1.5410685812830924,0.877873625441268,-0.8946883678436279,0.0217493399977684,-0.9363080859184264,-0.9660792937692254,-9.727689860531688,-0.7804598376546055,50,jumping
1783067154450486800,0.8766689,0.3906142054371535,-5.77139144411087,-0.1449222656756639,-1.5041788816452026,-0.6065090894699097,-0.6504165530204773,-0.8209719538502395,-9.719691847515106,-1.011926341252029,50,jumping
1783067154470410800,0.8965929,-1.1789679381467402,-8.550404907035826,-1.219097411700338,-1.3650368452072144,-0.8714203238487244,-0.9457054734230042,-0.6898560952089726,-9.69700246132314,-1.289427085467428,50,jumping
1783067154490334700,0.9165168,-2.8393460588127373,-10.97636247241497,-1.5037630791090428,-0.794804036617279,-0.4990708827972412,-0.9422976970672609,-0.5150798489416017,-9.679461543935536,-1.4876421115219591,50,jumping
1783067154510258700,0.9364408,-2.2641054999515413,-17.03915912132263,-2.594644737523794,-0.4043996930122375,-0.14336858689785,-0.2648405730724334,-0.4051301855130121,-9.666364161953329,-1.6023909188605845,50,jumping
1783067154530183700,0.9563658,-3.5483643890008327,-22.476779214072227,-4.841276832365989,0.7798333168029785,-0.5082270503044128,0.0734240189194679,-0.4067072621040046,-9.66971990212202,-1.58161803381443,50,jumping
1783067154550107600,0.9762897,-7.959305392524599,-22.007113537621496,-5.922321425768732,2.4180121421813965,-0.8740837574005127,-0.6812796592712402,-0.3823926127977669,-9.71800374829769,-1.2587876170538366,50,jumping
1783067154570031600,0.9962137,-9.90717256745696,-20.074592984902857,-3.5292934855669733,2.857236385345459,-1.196752429008484,-1.4623830318450928,-0.188727194605302,-9.778408824899792,-0.719366778788343,50,jumping
1783067154589956900,1.016139,-6.8088190141052,-17.514691059458254,0.5148386971294879,2.207406997680664,-0.7080217599868774,-1.33602774143219,0.0924848982834257,-9.803898655465243,-0.2131695071455091,50,jumping
1783067154609880600,1.0360627,-4.370975196099281,-13.233381521236897,2.000750623857975,1.2571372985839844,-0.1986370980739593,-0.7541257739067078,0.293200782976672,-9.801531926333904,0.1199134418264962,50,jumping
1783067154629804500,1.0559866,-2.636005214177072,-7.0864826937973495,1.6568857485055923,0.5443036556243896,-0.2595435678958893,-0.2244019657373428,0.388448296107538,-9.794584299153088,0.2925926975483074,50,jumping
1783067154649728800,1.0759109,-0.7126284835092723,-1.3547539825111627,0.766185447782278,0.0271750558167696,-0.5462448596954346,0.3770982623100281,0.3775900713542476,-9.793398304238917,0.3423299208700657,50,jumping
1783067154669653800,1.0958359,0.2387103007132187,2.215798565161228,-0.3585749897608533,-0.2257499992847442,-1.0293257236480713,0.876133382320404,0.2550938099603168,-9.798234053832292,0.3160776180321351,50,jumping
1783067154689577700,1.1157598,-0.2982628338729031,4.715101352736354,-0.2542482807805761,-0.6036525964736938,-1.3253973722457886,0.97929447889328,0.0733575930537888,-9.803529237630965,0.2362919509924948,50,jumping
1783067154709501700,1.1356838,-1.7293747922636566,6.728837130373716,0.7787690350234509,-1.2618201971054075,-1.067659854888916,0.5746710896492004,-0.082437204461731,-9.806134451693296,0.05755556435592,50,jumping
1783067154729425700,1.1556078,-1.4093769685804842,9.774853178244827,0.3631113910814747,-1.6003361940383911,-0.9173764586448668,0.1038767397403717,-0.1447592936662957,-9.802836579191684,-0.2320286127259023,50,jumping
1783067154749351000,1.1755331,0.126828134852089,10.42820018235445,-0.7883779903680086,-1.1645457744598389,-0.9115806221961976,0.160718023777008,-0.1699236551370471,-9.792090144249796,-0.5064356835085898,50,jumping
1783067154769274600,1.1954567,1.2741669724933802,10.441922418236732,-1.224766251116991,-0.6413142681121826,-0.6444748044013977,0.4055615961551666,-0.2365797549579292,-9.78037398749292,-0.6772776225343347,50,jumping
1783067154789198600,1.2153807,1.2333026087939738,11.056126329481602,-1.1118811187583952,-0.1854630261659622,-0.5141279697418213,0.2749838531017303,-0.318268625270389,-9.772536717996,-0.7527533539529889,50,jumping
1783067154809123800,1.2353059,0.9134469700604676,11.428361559271812,-1.0271597854148595,0.1672786176204681,-0.4717266261577606,-0.0817587152123451,-0.3461708142071962,-9.771723063525556,-0.7509836408667266,50,jumping
1783067154829047600,1.2552297,1.369443163729459,11.137397083979844,-0.9052403557945042,0.428581178188324,-0.1787838190793991,-0.246703490614891,-0.313600304665789,-9.777641347658632,-0.6854075183022766,50,jumping
1783067154848971500,1.2751536,2.71279151673764,10.543082114553451,-0.5863648872047662,0.3561665117740631,0.0179312992841005,-0.0482530891895294,-0.2810307267061434,-9.7838209130764,-0.6068453286429867,50,jumping
1783067154868895700,1.2950778,3.47650180657804,9.842172564280032,-1.2330009954988956,0.4853300154209137,-0.0710846707224845,0.2357905060052871,-0.3017904234771617,-9.787705645555258,-0.5292812101103365,50,jumping
1783067154888820700,1.3150028,2.5552672513812777,9.173108351078628,-1.2138777773559093,0.5908531546592712,0.0491920039057731,0.2453091889619827,-0.3537988248676061,-9.79126070768833,-0.4200154738252982,50,jumping
1783067154908745000,1.3349271,1.888839962554723,8.854538075980544,-0.6222393336623907,0.3707067370414734,0.191549077630043,0.1427101045846939,-0.3908178747830912,-9.793514039573072,-0.3236202154314145,50,jumping
1783067154928669000,1.3548511,2.0372804654844106,8.672380596888065,-0.8354735035419464,0.1369770765304565,0.1950429826974868,0.0987742617726326,-0.4116174286404624,-9.794063490149378,-0.2779801800291054,50,jumping
1783067154948593200,1.3747753,2.2889617087885736,8.621631821903586,-0.9174690651834012,0.0792440772056579,0.3238199949264526,0.2749648988246918,-0.4433316136134788,-9.793145790782573,-0.2610768116263672,50,jumping
1783067154968518100,1.3947002,2.1278788741678,8.150219594046472,-1.1698504195809365,0.0186325684189796,0.3807591199874878,0.5734135508537292,-0.5249608992258087,-9.789351074674723,-0.2518564354742877,50,jumping
1783067154988441900,1.414624,0.4524488033857196,7.761384527111053,-0.8001829944521188,-0.2917153835296631,0.6556846499443054,0.5840615034103394,-0.6423387764263898,-9.781491593346,-0.2831934211653657,50,jumping
1783067155008366000,1.4345481,-1.4181843982838094,7.316551094099879,-1.1567647280365227,-0.4500477313995361,0.9213300943374634,0.3781237304210663,-0.7312102151867002,-9.772253809401391,-0.3725317285187542,50,jumping
1783067155028291000,1.4544731,-2.126733211264014,5.6855520665228365,-1.7858529046803713,-0.3076319992542267,1.2309002876281738,0.2110348790884018,-0.7766852144867181,-9.764821613574028,-0.4640982150493189,50,jumping
1783067155048215000,1.4743971,-1.69704357137084,3.900989786174893,-1.8356693672508,-0.1758227944374084,1.377689242362976,0.1253682971000671,-0.7953201376561075,-9.760049576866626,-0.5284555729411542,50,jumping
1783067155068139000,1.4943211,-0.1298229692865163,1.8033745328456163,-0.8399071020752191,-0.3211702108383178,1.4564827680587769,0.3796450197696686,-0.8184304526738821,-9.754218971017002,-0.5964637449581176,50,jumping
1783067155088063000,1.5142451,1.026511550639197,-3.397287984609604,-0.5162216028552502,-0.5574151873588562,1.219743251800537,1.3132288455963137,-0.9587255700055508,-9.734308401888608,-0.7031750109873711,50,jumping
1783067155107988200,1.5341703,-1.9206440908335147,-9.637444356939197,1.323361649903655,-1.30264151096344,0.9976431727409364,1.8943878412246704,-1.267385203398764,-9.68301602154672,-0.8962960749037563,50,jumping
1783067155127912000,1.5540941,-6.509129965087771,-14.975181933701036,2.061150439763069,-2.2971765995025635,0.742058277130127,1.6738675832748413,-1.600480116803199,-9.591271803829072,-1.2713627287276088,50,jumping
1783067155147836000,1.5740181,-9.86168624304533,-19.362149648702143,-0.1919429600477218,-2.159756898880005,0.762299120426178,0.7431889176368713,-1.8239630012355743,-9.476159570005535,-1.7452660427480935,50,jumping
1783067155167760100,1.5939422,-10.224723436379431,-20.125366894328597,-3.9256744378373023,-0.5960721969604492,1.2813204526901243,-0.356166660785675,-1.80868374516964,-9.416686805817484,-2.055489929783344,50,jumping
1783067155187685000,1.6138671,-6.885213102477788,-20.716624814271924,-5.012504336643219,1.1928412914276123,1.7733303308486938,-0.4219071567058563,-1.6611891447879372,-9.44567733798027,-2.0469484575398265,50,jumping
1783067155207608800,1.6337909,-6.415492480969428,-18.75644468573332,-4.738880872252583,2.584233045578003,0.9764307141304016,-0.7626376748085022,-1.5055739279232918,-9.53374082135856,-1.7353392536260186,50,jumping
1783067155227533000,1.6537151,-7.834049365827441,-15.198745189893245,-2.132041254544258,2.585524559020996,-0.0260293595492839,-1.5545732975006104,-1.2672085316576065,-9.648279054686428,-1.2146037535429,50,jumping
1783067155247458000,1.6736401,-4.435618933184444,-11.656964563196896,3.908167714980245,0.6923198103904724,-0.1634209752082824,-1.4072203636169434,-0.9692914607487618,-9.718318221074345,-0.8860869617089628,50,jumping
1783067155267382300,1.6935644,-0.5428500820618123,-6.100972358044982,3.952027314972877,-0.7830581068992615,-0.83128821849823,-0.6435338258743286,-0.7735119182128459,-9.734426475310324,-0.9016649815257638,50,jumping
1783067155287306000,1.7134881,0.2533095751583576,-0.3526660214453935,1.7377420769840477,-1.2161039113998413,-1.579502820968628,-0.0266355853527784,-0.7429237415950745,-9.717195939046144,-1.092953715448454,50,jumping
1783067155307230000,1.7334121,-1.6339251441568134,3.582784837257862,-0.5419307021945715,-0.9716143012046814,-1.893819808959961,-0.0848904997110366,-0.7779336801778525,-9.691141460335254,-1.2833482039451598,50,jumping
1783067155327155200,1.7533373,-0.6990324312899261,4.6762990361332895,-1.504611220370978,-0.5076895356178284,-1.264620661735535,0.1189437136054039,-0.8187416375149041,-9.671501524841783,-1.4007524942286311,50,jumping
1783067155347079000,1.7732611,1.5764007375575602,5.749768810367584,-1.5205582926958798,0.1698266565799713,-0.5131773948669434,0.4900122582912445,-0.9031810851771384,-9.660846859836578,-1.4222149689741432,50,jumping
1783067155367003000,1.7931851,1.8099609254986049,6.390075131118297,-0.5010286368332802,0.7332135438919067,-0.452303409576416,0.5332367420196533,-1.0207719840738922,-9.6636964040488,-1.3196119419813157,50,jumping
1783067155386928000,1.8131101,0.9901092809151858,5.758740052330493,2.0449742348574103,0.2774503827095032,-0.4785189926624298,0.2127576023340225,-1.1092208865731954,-9.670268183654546,-1.1941353313360363,50,jumping
1783067155406852000,1.8330341,0.7199673019647598,7.010476143437623,4.635162723624706,-0.8835954070091248,-0.3635781407356262,0.0153418686240911,-1.13326621741876,-9.66175462233126,-1.2395866574995218,50,jumping
1783067155426775800,1.8529579,1.7241591034419834,8.408922552680968,3.329336145889759,-1.5966984033584597,-0.3603884279727936,-0.0320269204676151,-1.1440141867306082,-9.625625908851625,-1.486249488119781,50,jumping
1783067155446700000,1.8728821,1.69281952393502,10.029024338668584,1.2008664662219584,-1.2618184089660645,-0.3893193006515503,0.0297584440559148,-1.159810160147026,-9.575621814754603,-1.7699381271898746,50,jumping
1783067155466625000,1.8928071,2.010136291840672,11.953107902431489,-1.4601109843872486,0.1177872493863105,-0.3241336047649383,-0.0951777175068855,-1.1664792626474052,-9.553968201351164,-1.879201488854736,50,jumping
1783067155486549200,1.9127313,2.669676889893412,12.483093899810314,-2.4225321209751067,1.527118444442749,-0.2055095136165619,0.0482297167181968,-1.1649211464852094,-9.586258944103122,-1.7079142172142865,50,jumping
1783067155506473000,1.9326551,3.436376716938615,11.611867530363796,-1.3409453835196792,2.0127313137054443,0.1365654915571212,0.6281697750091553,-1.2277261238358914,-9.635006316137313,-1.3526814140208063,50,jumping
1783067155526397000,1.9525791,3.141804572543501,10.072470681685209,-0.4775970539718866,1.706156849861145,0.2000683546066284,0.947333574295044,-1.38071961389482,-9.658124156874418,-0.9922932008255272,50,jumping
1783067155546322200,1.9725043,2.0298414015248416,8.54290315310359,0.2520687082517892,1.1228954792022705,0.2145527303218841,0.9361560940742492,-1.562223889775574,-9.65426105170548,-0.724624260925129,50,jumping
1783067155566246100,1.9924282,1.9811799542084332,7.245725161248445,0.5301281092632562,0.463389128446579,0.2658200263977051,0.8992870450019836,-1.7333800823822616,-9.634837973833084,-0.5793586982371285,50,jumping
1783067155586169900,2.012352,2.7610788700446487,6.265078047618269,0.5611129935810342,-0.129608005285263,0.2956787347793579,1.038307547569275,-1.913082277277112,-9.601996026939153,-0.5587186092577874,50,jumping
1783067155606094000,2.0322761,2.311146652589738,5.451271016961336,0.2987918079167604,-0.6486459970474243,0.3474116027355194,1.0217163562774658,-2.116468276228756,-9.55358592403531,-0.6480458289615809,50,jumping
1783067155626019000,2.0522011,1.483526200635731,4.937708915638924,-0.4551150999855249,-0.7922981977462769,0.6515717506408691,0.5438067317008972,-2.2626887650214136,-9.507340890210866,-0.8130636649437248,50,jumping
1783067155645943000,2.0721251,1.2248263107411563,3.6713755593806505,-1.4115917220205068,-0.654180645942688,1.138046145439148,0.053650863468647,-2.2999724937550723,-9.48135480056107,-0.9921868178416045,50,jumping
1783067155665867000,2.0920491,1.194295271138102,1.8436603660047053,-1.702817478597164,-0.5019460916519165,1.567193865776062,-0.2858768701553345,-2.2471454511918125,-9.474729244941472,-1.1619942992530763,50,jumping
1783067155685791000,2.1119731,0.3521652323164045,0.3799327985554933,-1.8885965091876684,-0.5110756158828735,1.4945539236068726,-0.7406666278839111,-2.1150455499492584,-9.483884026777744,-1.3239729136697946,50,jumping
1783067155705716200,2.1318983,0.3315890388861298,-1.3261854751527309,-1.8980838839791716,-0.4871391355991363,1.3478915691375732,-0.7650942802429199,-1.9172984336674213,-9.503236962023378,-1.4774411816336213,50,jumping
1783067155725640000,2.1518221,1.7138786785766482,-7.906782593604921,-2.277578437247872,-0.3181506991386413,1.3711575269699097,0.0086165275424718,-1.8030628365479409,-9.504899342277646,-1.605068467506766,50,jumping
1783067155745564000,2.1717461,-1.801357786195725,-13.287609955030678,-1.620574664196372,-0.070792980492115,1.31758713722229,0.092027448117733,-1.7833605033427475,-9.493967029374838,-1.689559353095293,50,jumping
1783067155765489200,2.1916713,-7.104774137291312,-16.173510259747506,0.2121798385210335,0.1648579239845276,1.0194191932678225,0.1002280935645103,-1.7518265703074634,-9.494275656932592,-1.7205271766804158,50,jumping
1783067155785413000,2.2115951,-9.178432760971784,-21.840889540719985,1.0129654750414192,-0.1387702524662017,0.8669534921646118,0.540064811706543,-1.78401838272959,-9.48529330905378,-1.7369120559006928,50,jumping
1783067155805336800,2.2315189,-12.40672845301032,-23.67058100260496,1.7321657381564377,-0.971214234828949,1.1627566814422607,0.4695487320423126,-1.8516399665817616,-9.444519400116802,-1.882251962466538,50,jumping
1783067155825261000,2.2514431,-13.54712364552617,-21.3290658074975,-0.6589619213819503,-0.7124587893486023,0.9200811386108398,-0.1538137346506118,-1.8411584661863745,-9.400213225400448,-2.101552008256316,50,jumping
1783067155845186000,2.2713681,-10.954573834455012,-16.947864985460043,-2.830290061175823,0.4234590828418731,0.0871979817748069,-0.7688097953796387,-1.7370893121637403,-9.409002681055664,-2.150248234625161,50,jumping
1783067155865110300,2.2912924,-6.178835934448242,-12.615928837329148,-0.9344517641663552,1.1525079011917114,-0.3041397631168365,-0.9602775573730468,-1.5689507138125598,-9.47507060572505,-1.982882812603563,50,jumping
1783067155885034000,2.3112161,-2.4465824202567337,-9.705089906188846,0.94462536765635,0.633898138999939,-0.2805129885673523,-0.4620054066181183,-1.4395060032539069,-9.53441535961926,-1.786935877611488,50,jumping
1783067155904958000,2.3311401,-0.6394543800964951,-6.140947810080647,2.3858866901449858,-0.3404500186443329,-0.6129584908485413,-0.1942980587482452,-1.402650144543499,-9.5461619115144,-1.7532189014486967,50,jumping
1783067155924883000,2.3510651,-1.1021813433252274,-0.937637408465147,0.5418206659488379,-0.571467936038971,-1.8380662202835083,-0.7441340088844299,-1.368784407559782,-9.538342762196065,-1.8212220319643613,50,jumping
1783067155944807200,2.3709893,-1.7345514642491937,3.620371932852268,-0.3009310119025409,0.0264737345278263,-1.7714815139770508,-1.1243371963500977,-1.246678223195672,-9.552604511782526,-1.8340978801503776,50,jumping
1783067155964731000,2.3909131,-0.0724914549108594,6.906438261336088,-1.180893791642785,1.1061629056930542,-1.097118616104126,-1.1394672393798828,-1.0770246902368965,-9.59916694099307,-1.693045880036801,50,jumping
1783067155984654800,2.4108369,0.8657580210380256,9.64532605009973,-0.5854436807066202,1.604675054550171,-0.589389443397522,-0.8939656615257263,-0.9048135086845606,-9.66388111296594,-1.4003965203978122,50,jumping
1783067156004580000,2.4307621,1.6403792887322604,11.032626211428642,1.333826345294714,1.284995198249817,-0.3416310846805572,-0.5560002326965332,-0.778466544945538,-9.71267232414186,-1.1083225494939832,50,jumping
1783067156024504000,2.4506861,1.2111007138580083,11.848078671205045,2.551594115826487,0.6235320568084717,-0.4682161808013916,-0.4026012718677521,-0.6947013432830572,-9.739235921418668,-0.913810323480144,50,jumping
1783067156044427800,2.4706099,0.9709194272767752,12.18917641993165,2.846851319876313,-0.0631692558526992,-0.5920726656913757,-0.2991456687450409,-0.6388734384033828,-9.748286658358571,-0.8562227154515684,50,jumping
1783067156064352000,2.4905341,1.536847602587193,11.806298215574026,1.2423989384412766,-0.2344419360160827,-0.5049982070922852,-0.1483893394470214,-0.6046053676964714,-9.74758406304717,-0.8885062247451394,50,jumping
1783067156084277000,2.5104591,1.5702030519612131,11.16094162569642,-0.5908785652369261,0.2685021460056305,-0.3506867587566376,0.0104911439120769,-0.6007010902669281,-9.747763511267303,-0.889186754355207,50,jumping
1783067156104201000,2.5303831,1.2460749966055154,10.673962410873171,-1.9935691879212856,1.0307365655899048,-0.489082008600235,-0.0501694977283477,-0.607720905901119,-9.758630357718468,-0.7551239555418491,50,jumping
1783067156124125000,2.5503071,1.168786589741707,10.232866995346546,-1.9475562092870475,1.265609622001648,-0.3630463778972626,-0.0504551529884338,-0.5994153978379443,-9.774675483590364,-0.5165261387597769,50,jumping
1783067156144049000,2.5702311,1.9165794717431068,9.174511203613877,-1.656640249311924,0.9855931997299194,-0.0674849525094032,0.2033333331346511,-0.6127871032495051,-9.783238144752383,-0.2883494522216729,50,jumping
1783067156163974100,2.5901562,2.1517738367572425,8.087611454442143,-1.2998147700995206,0.4426077604293823,0.2913325428962707,0.4782924056053161,-0.6812851046100259,-9.78180781968832,-0.1498739332662895,50,jumping
1783067156183897900,2.61008,1.379093473997712,7.388418644958734,-1.068526472613215,0.1155274808406829,0.5060817003250122,0.449679285287857,-0.7778493628952652,-9.775137255883216,-0.1095706740483641,50,jumping
1783067156203821800,2.6300039,0.7496081147298216,6.92469346447289,-1.7864403491795062,0.1136776134371757,0.4716034531593323,0.1906705051660537,-0.8392411855123937,-9.770202137568592,-0.0960010531782172,50,jumping
1783067156223747000,2.6499291,0.6013826427903026,6.260130069822073,-1.6275982792228458,0.0192729849368333,0.709210216999054,0.0553965345025062,-0.859058596464619,-9.768532743051647,-0.0903906111516058,50,jumping
1783067156243671000,2.6698531,0.6596124942451715,5.577535928440094,-1.649713664919138,0.0570433847606182,1.136149525642395,0.0074443677440285,-0.863718258838728,-9.76798738412857,-0.1038892400116194,50,jumping
1783067156263594800,2.6897769,0.6677029347855598,4.77469452843368,-2.1399474976241586,0.3199171721935272,1.2199029922485352,-0.1849897503852844,-0.8487643622696399,-9.769446935287116,-0.0887548905753996,50,jumping
1783067156283519000,2.7097011,0.2668792508274316,3.972048943260312,-1.7352438304275273,0.4183063805103302,1.3138169050216677,-0.534968912601471,-0.7772931903172284,-9.77574340508282,-0.0322750793919432,50,jumping
1783067156303443000,2.7296251,0.4170804067540913,2.249024542936682,-1.2402543276280165,-0.0338265895843505,1.2990906238555908,-0.8370011448860168,-0.6410880457129329,-9.785673262944815,-0.0041319061793255,50,jumping
1783067156323368200,2.7495503,2.0875148612059653,0.6239595815837383,-0.822961812493205,-0.542449951171875,1.2250157594680786,-0.6635009050369263,-0.4836988779783248,-9.794350490397214,-0.0844409089669585,50,jumping
1783067156343292000,2.7694741,3.59423912820816,-3.0814439196050167,-2.77850492888093,0.0242507420480251,0.8403518199920654,-0.1245742961764335,-0.4042647643227129,-9.796966810375451,-0.1624724806145764,50,jumping
1783067156363216000,2.7893981,0.1969728805063292,-6.796759158477187,-2.513548755070567,1.177175760269165,0.6719700694084167,-0.1573410481214523,-0.385366587107256,-9.798948924103378,-0.049743570864154,50,jumping
1783067156383141000,2.8093231,-3.677196812880039,-10.33726026675701,-0.5651753841817378,1.4478055238723757,0.0712601616978645,-0.2198151648044586,-0.3405728846022859,-9.7981259172827,0.2260971768503077,50,jumping
1783067156403065000,2.8292471,-4.919763509103656,-15.572423019707202,1.081903256058693,0.5291459560394287,-0.173286959528923,0.2452422231435775,-0.3404473585264757,-9.79129987065494,0.430034800069034,50,jumping
1783067156422988800,2.8491709,-7.1189856179952615,-18.596175797843934,1.61015322342515,-0.5499230027198792,0.5258147716522217,0.2227126061916351,-0.3977603508647531,-9.789478500446675,0.4222250761661678,50,jumping
1783067156442913000,2.8690951,-8.470608316743373,-18.62218000767231,-0.025046726440452,-1.033336520195007,1.0034288167953491,-0.080324962735176,-0.413526184871234,-9.79475088789165,0.249502985949628,50,jumping
1783067156462838000,2.8890201,-7.4225243281781665,-17.813316278636453,-3.845626795393229,-0.612133800983429,0.4427015483379364,-0.2198090553283691,-0.3888576806260272,-9.798712777259944,0.0665290576414205,50,jumping
1783067156482762000,2.9089441,-6.427189348503947,-15.651434012579918,-5.717786110651493,0.3156698942184448,0.3119781613349914,-0.3714122176170349,-0.3347844008613377,-9.800874339208006,0.034250477968005,50,jumping
1783067156502686000,2.9288681,-4.08607864254415,-11.393112551236152,-3.920024741512537,0.8952935338020325,0.5693451166152954,-0.494602769613266,-0.244433683328703,-9.80230641783774,0.1594825780835934,50,jumping
1783067156522610000,2.9487921,-0.1857494026372209,-8.2613594171077,-1.5262673179924486,0.7042235136032104,0.4426790475845337,-0.1940891593694687,-0.1759245943185873,-9.799600081488489,0.3275206569360569,50,jumping
1783067156542535200,2.9687173,1.703250317056477,-4.077043103173375,1.1978162848711014,-0.3112428188323974,-0.11470378190279,-0.0020798936020582,-0.1643770173279568,-9.798102536407113,0.3748749306440353,50,jumping
1783067156562459000,2.9886411,2.2647997658260164,0.386272522971034,2.3801532610595224,-1.784240484237671,-0.4253994822502136,0.1030889004468917,-0.1712199237589724,-9.803564308944344,0.1765544897199608,50,jumping
1783067156582382800,3.0085649,1.2553056201569734,4.04495577403903,2.6138369292497634,-3.003582239151001,0.1487007439136505,0.2164143472909927,-0.2015576692796312,-9.799867792513966,-0.3038813313418068,50,jumping
1783067156602307000,3.0284891,1.5893009895324706,5.95526157234013,0.4128553364049643,-2.9537465572357178,0.2951889634132385,0.4223127663135528,-0.2651578886612318,-9.761145555409788,-0.9056119655858724,50,jumping
1783067156622232000,3.0484141,0.6741736651696264,8.393615677955745,-0.8879916262865066,-2.0366873741149902,0.2685942649841308,0.2613558173179626,-0.328959640230611,-9.700999422004818,-1.3974233498059212,50,jumping
1783067156642155800,3.0683379,0.2994185249803587,9.77503788716197,0.1326930448301136,-1.0971742868423462,0.3780336678028106,0.0521157719194889,-0.3473024120530113,-9.652484105160832,-1.6968549169309437,50,jumping
1783067156662080000,3.0882621,0.988729663125053,10.390089355146884,1.4787573787987232,-0.5779023170471191,0.3678467869758606,0.0047329012304544,-0.3376565587641671,-9.624244683626294,-1.8521032001793385,50,jumping
1783067156682004000,3.1081861,1.5819840906478464,10.754693067145348,3.125869921308756,-0.6017420291900635,0.421978086233139,0.0646753013134002,-0.3313129253584891,-9.60248410271704,-1.9628864648878568,50,jumping
1783067156701929000,3.1281111,1.9583086355783044,10.648296054697036,3.600629121506214,-0.763709545135498,0.5808279514312744,0.2081671357154846,-0.336536395627819,-9.57359819997251,-2.0984170712314545,50,jumping
1783067156721853000,3.1480351,2.1526973813429477,10.036256043487787,3.2514182089507577,-0.7153795957565308,0.6092498898506165,0.3466599881649017,-0.3651264206983148,-9.538860648590326,-2.246601699703932,50,jumping
1783067156741777000,3.1679591,1.6944722595781088,9.726056121850013,2.638342424952984,-0.4145416617393493,0.7331801652908325,0.3622671663761139,-0.4030998121965676,-9.509380871605872,-2.362111554542929,50,jumping
1783067156761700900,3.187883,1.2755097654044627,9.503814469650386,1.936712305320054,-0.0189541820436716,0.821313738822937,0.2849932312965393,-0.4282616894492879,-9.496631280148028,-2.408519669974595,50,jumping
1783067156781626000,3.2078081,0.996548008725792,9.22986075039208,2.0347037468641997,0.1303735375404358,1.0599385499954224,0.2701758444309234,-0.4330127929665148,-9.49786169872582,-2.402812252113223,50,jumping
1783067156801549800,3.2277319,1.24993181816414,8.79281373347342,1.8670733902961012,0.2015850096940994,1.0424457788467407,0.3304512202739715,-0.4379982166962697,-9.503144023042916,-2.380928775476664,50,jumping
1783067156821474000,3.2476561,0.9010704496987164,7.968459005317092,1.6502018868274986,0.1822523325681686,0.955927312374115,0.3575946092605591,-0.4573949910836294,-9.509725739520787,-2.3508050015002486,50,jumping
1783067156841398000,3.2675801,0.1983645540604367,6.655794690516591,1.431417097083479,0.1244337186217308,1.1092735528945925,0.4146009385585785,-0.4826760012039914,-9.512974512183666,-2.3325343085333703,50,jumping
1783067156861322000,3.2875041,-0.3171963929289951,5.15907261596024,0.640452451223135,0.154458001255989,1.247230052947998,0.4356318712234497,-0.510598758004792,-9.515023261407016,-2.3181898490995168,50,jumping
1783067156881247000,3.3074291,-1.5042106767460703,3.549092411014437,0.3784272162981331,0.0951504036784172,1.459794282913208,0.2744355797767639,-0.5199372989101335,-9.51753729005456,-2.3057594065934417,50,jumping
1783067156901170700,3.3273528,-2.4423759084776044,2.850724946439266,0.5549763539895415,-0.2294886112213134,1.4754610061645508,-0.1020994707942009,-0.4676265718385577,-9.514537523716688,-2.3292298601604995,50,jumping
1783067156921094700,3.3472768,-1.375257549096644,1.5266180311262607,0.4407932177096605,-0.553859293460846,1.391784906387329,0.1033758595585823,-0.3864258138366043,-9.495418981748818,-2.420348785586655,50,jumping
1783067156941018600,3.3672007,-0.2262143186902627,-2.093773775470257,-1.0332593443989753,-0.6342620253562927,1.1990700960159302,0.7185404300689697,-0.4021139429643749,-9.461990174877643,-2.545473587119579,50,jumping
1783067156960943600,3.3871257,-2.5978803584441543,-5.502293348190188,-1.7868284717142582,-0.4921419322490692,1.2215018272399902,0.7592330574989319,-0.4871981913361698,-9.424955452468993,-2.665189515346289,50,jumping
1783067156980867600,3.4070497,-4.114400773926079,-7.64510675663948,-2.5341882229954003,-0.1048144176602363,0.6411638855934143,0.7080016136169434,-0.566562746886909,-9.40101051325798,-2.733205066952109,50,jumping
1783067157000791800,3.4269739,-4.371107005785405,-11.746261972284316,-2.358078207373619,-0.2979891002178192,-0.1823297142982483,0.957551658153534,-0.7063962380561977,-9.385112102380395,-2.755188058440387,50,jumping
1783067157020715800,3.4468979,-6.32904578513801,-16.023484533452987,-1.478755625233054,-1.336722493171692,-0.2952051162719726,1.3011516332626345,-0.9379544385250658,-9.321834100690484,-2.8972461668565868,50,jumping
1783067157040640500,3.4668226,-9.70922072238326,-17.88820171601176,-2.348740470185876,-2.022468328475952,-0.2840044796466827,0.8988953828811646,-1.170779444059357,-9.188274356028437,-3.22107041696012,50,jumping
1783067157060564700,3.4867468,-10.445249516832828,-16.44247450015545,-5.718766353860497,-0.9780045747756958,-0.9154438376426696,0.1223596408963203,-1.2972621630072594,-9.068044048538804,-3.5011546017974613,50,jumping
1783067157080488700,3.5066708,-8.892581683170794,-15.281628055763244,-7.6032386227250095,0.7811971306800842,-1.3082914352416992,-0.1911365836858749,-1.3670209050185975,-9.063362028202414,-3.4867031748577952,50,jumping
1783067157100412700,3.5265948,-6.156589031326771,-13.400350199025867,-6.250239959448575,2.022270917892456,-1.389990210533142,-0.1298954486846923,-1.424052121273428,-9.164999278903007,-3.1851582688406106,50,jumping
1783067157120337700,3.5465198,-3.398461120042205,-10.652509288477898,-3.597434417118132,2.313108205795288,-1.4102331399917605,0.1318224519491195,-1.5071081517532467,-9.297773426145314,-2.729542452791333,50,jumping
1783067157140261600,3.5664437,-0.4982790458641946,-6.885451002886891,-1.0893781219840049,1.8097786903381348,-1.1874829530715942,0.5996922850608826,-1.6380971691444517,-9.391678036767244,-2.298567010871321,50,jumping
1783067157160185600,3.5863677,1.5393914418511092,-3.203608410027623,-0.1757540417909622,1.1236618757247925,-0.9844228625297546,0.934504508972168,-1.8344769425958396,-9.427002448126672,-1.9841146924860773,50,jumping
1783067157180109800,3.6062919,1.3004523373506962,0.1984913587778806,0.8256985439807176,0.4218327403068542,-0.8675572872161865,0.7708215713500977,-2.035472247018665,-9.421554704114794,-1.805974778471887,50,jumping
1783067157200034600,3.6262167,1.3105015838086604,3.34016909007132,0.8353418399862944,0.118884690105915,-0.7356417775154114,0.4204589128494262,-2.1754072258010506,-9.40438378908336,-1.7307735531456767,50,jumping
1783067157219958800,3.6461409,2.1348189025640485,5.177364643976092,0.0969207435727119,0.2447579801082611,-0.4135856330394745,0.2514645755290985,-2.255576302667707,-9.396097606775164,-1.672155652221292,50,jumping
1783067157239882800,3.6660649,2.3407651073925195,6.770705848810076,0.1777029839016497,0.0989229977130889,0.1976458430290222,0.2403651475906372,-2.304403315809369,-9.39205680695176,-1.627691218203306,50,jumping
1783067157259806700,3.6859888,1.190720189130306,8.307883267873525,0.4587224037624895,0.0128317428752779,0.2191581130027771,-0.1714853793382644,-2.3180898958563803,-9.387517994478344,-1.6344246181115507,50,jumping
1783067157279731700,3.7059138,0.5614028799057007,10.65697737380266,0.6642958297558128,0.0501812249422073,0.3523054420948028,-0.8851532340049744,-2.203376013700664,-9.413936630326509,-1.6411295225776732,50,jumping
1783067157299655700,3.7258378,2.6540456055194137,10.938702896106244,0.4533500630743801,0.2656630277633667,0.3412177264690399,-0.991159439086914,-2.0062638343214987,-9.45968365150094,-1.6308482209295034,50,jumping
1783067157319579600,3.7457617,4.117169654117524,11.145738211345671,0.2772135978370905,0.5593560934066772,0.0897369384765625,-0.7192230820655823,-1.8384880779333408,-9.50541138345301,-1.5612540218301116,50,jumping
1783067157339503900,3.765686,3.682838325898349,11.054068812429904,0.6781858234204351,0.7109560370445251,0.1496070772409439,-0.5004059672355652,-1.7237825252145529,-9.545870819613336,-1.440589122315496,50,jumping
1783067157359427600,3.7856097,2.338853136291355,10.755573357111215,0.9041969111561776,0.7489385008811951,0.2082290351390838,-0.5619907975196838,-1.618797133129835,-9.583013094049692,-1.309864454948902,50,jumping
1783067157379352600,3.8055347,1.9371504044763743,10.238499448275563,0.6621411359399557,0.8070096969604492,0.0187093820422887,-0.5837413668632507,-1.5024531655542552,-9.620945642080905,-1.162080150905624,50,jumping
1783067157399276800,3.8254589,1.9291962306015191,9.5925115747571,0.6470427893988788,0.6728098392486572,-0.0136779760941863,-0.3494811058044433,-1.4101035292893649,-9.651469959682226,-1.015450715985894,50,jumping
1783067157419200800,3.8453829,1.4033949715614318,8.693130539450049,0.4373690154146403,0.3497334122657776,0.0954131931066513,-0.1079056188464164,-1.368080789335072,-9.667422146573662,-0.9163587658539414,50,jumping
1783067157439124500,3.8653066,0.2881682687021791,7.466279883274436,-0.1303367640275508,0.0029346540104597,0.2652775943279266,-0.0965414270758628,-1.3501461964547634,-9.6725378821522,-0.8885453146465122,50,jumping
1783067157459049700,3.8852318,-0.6045436641044915,7.018418042352796,-0.6232656810354441,-0.1158531010150909,0.3050774931907654,-0.3486486971378326,-1.302437812079489,-9.676879126226902,-0.9121657711435108,50,jumping
1783067157478973700,3.9051558,-0.4252840253453701,6.626102147564292,-1.1250374643862249,-0.2462371885776519,0.4235699772834778,-0.4053242802619934,-1.2181856306176633,-9.6839465803951,-0.9526805907528848,50,jumping
1783067157498897700,3.9250798,-0.1863851067248731,5.534223440936207,-1.1464829879969358,-0.3998177051544189,0.7517794370651245,-0.3033047020435333,-1.1401520314097404,-9.685469844439623,-1.030594801364839,50,jumping
1783067157518821600,3.9450037,0.1404558608513325,4.244431467679143,-1.967120010804385,-0.2099248170852661,0.7955169677734375,-0.5186543464660645,-1.0511502442680298,-9.68600175935924,-1.116611362150684,50,jumping
1783067157538746600,3.9649287,1.0586481257427482,3.1493601024895903,-2.75314077052176,0.2348766326904297,0.6440617442131042,-0.8186009526252747,-0.9007803807109592,-9.70034358844459,-1.123520703147724,50,jumping
1783067157558670800,3.9848529,4.172665623629093,0.0470592728167772,-1.9547325306572017,0.0870094075798988,-0.0806886628270149,-0.710498034954071,-0.7365376207545399,-9.718138188332318,-1.0888961836859583,50,jumping
1783067157578594600,4.0047767,6.519561342731118,-6.02644932424128,-2.741917950239777,-0.4438744187355041,-0.7756983041763306,0.3822166919708252,-0.6964144308112561,-9.718120068153738,-1.1151411434676497,50,jumping
1783067157598518500,4.0247006,3.998815077371895,-18.931017993307112,-0.3958714683782309,0.4681969881057739,0.1952204257249832,2.819209098815918,-1.0045664069432765,-9.685228436899184,-1.1651477948479354,50,jumping
1783067157618442800,4.0446249,-10.644455745881796,-30.80581165295839,-1.4173936862975358,5.10215950012207,-1.0331121683120728,1.6244467496871948,-1.549661783713847,-9.661434304335712,-0.652393575842306,50,jumping
1783067157638367700,4.0645498,-23.407050477683544,-20.6351377866745,0.9606219782114028,4.845228672027588,-2.721839666366577,-2.610426187515259,-1.4118432125635445,-9.69026935367584,0.5251291684648022,50,jumping
1783067157658291500,4.0844736,-8.539604111558198,-13.30235978039503,12.082793436008693,-1.7928943634033203,-0.0844443142414093,-2.42969012260437,-0.8336952418230473,-9.7331528021127,0.8608589238848536,50,jumping
1783067157678215700,4.1043978,5.401213731372356,-10.467526815092564,2.710461904746294,-5.292673110961914,0.1797844767570495,-0.2306501865386963,-0.5839306092625484,-9.78891502134502,0.0810271915333345,50,jumping
1783067157698139600,4.1243217,7.1132029429405925,-3.059501552388072,-10.653056400966644,-3.994670391082764,-0.8197878003120422,1.0759949684143066,-0.6919538712058216,-9.743341018649936,-0.8711344533793628,50,jumping
1783067157718065000,4.1442471,1.3287640934690832,-0.6066974811375141,-14.467963063925504,-1.0432143211364746,-0.4587195813655853,1.1397165060043335,-0.942399654430896,-9.667719083693624,-1.3481322262838482,50,jumping
1783067157737988600,4.1641707,-0.6922250162974,0.2663999428778886,-12.80315704381466,1.0728925466537476,-0.0700519010424614,0.3828870952129364,-1.0875649350821972,-9.65660849161446,-1.3181426000811158,50,jumping
1783067157757912600,4.1840947,1.942657185199112,-1.139302721104026,-8.05031837335825,1.7985193729400637,0.3166634142398834,0.367853581905365,-1.1476325964234768,-9.68533189727366,-1.023556281030178,50,jumping
1783067157777836500,4.2040186,4.505851284056901,0.468297310706973,-2.223157695752382,1.1559979915618896,0.4145483076572418,0.6575092077255249,-1.2428539887323975,-9.699889414936305,-0.7333820793330669,50,jumping
1783067157797761800,4.2239439,3.651084758763015,3.1299159818291664,1.7223276502311229,0.0179423261433839,0.5324611067771912,0.4580745697021484,-1.3487605873152613,-9.693470195543766,-0.6227903186086565,50,jumping
1783067157817685500,4.2438676,3.994873938530683,4.135172636058926,4.677481523916125,-1.5814388990402222,0.882321834564209,0.5250994563102722,-1.4245486726187169,-9.670119130572676,-0.7936375183314085,50,jumping
1783067157837609700,4.2637918,4.587288042771816,4.5537738957047456,5.230799881565571,-2.5370631217956543,0.6963918805122375,1.033721923828125,-1.5605680853925643,-9.602396424433588,-1.2365233244061469,50,jumping
1783067157857533700,4.2837158,2.7289573463797567,5.018915957251191,2.6115029333442448,-1.9069066047668457,0.2423100620508194,1.0874103307724,-1.7567616886220871,-9.497719075384737,-1.696319933271408,50,jumping
1783067157877457700,4.3036398,0.4215773528471588,5.029291805315017,1.00127036107257,-0.5683740973472595,0.247902512550354,0.6773436665534973,-1.9233401980496945,-9.418910327085852,-1.9378519768744704,50,jumping
1783067157897382700,4.3235648,-0.5003820094928145,5.695011384263634,0.8020635475017129,0.1983942836523056,0.5726568102836609,0.1641262918710708,-1.982255182224512,-9.398691130399705,-1.9762696780741211,50,jumping
1783067157917306600,4.3434887,1.0584360173620282,5.885264491528273,0.9025444677740336,0.3008449375629425,0.9219991564750672,0.2050110846757888,-1.9809521368019285,-9.403394778046012,-1.955095811011642,50,jumping
1783067157937230600,4.3634127,1.4855996459089218,5.926401388558745,0.5407653116770088,0.361081600189209,1.3070464134216309,0.3363272547721863,-1.989878370579332,-9.404876541036367,-1.9388292974740269,50,jumping
1783067157957154600,4.3833367,0.7694802515439688,5.994739596247673,0.2761366162553429,0.5589336156845093,1.6392284631729126,0.2145771980285644,-1.9894751966059208,-9.410366370624304,-1.9124232288464904,50,jumping
1783067157977079600,4.4032617,0.1138356380164623,6.580464431983232,0.686260554935038,0.6888827085494995,2.073676824569702,0.0358558893203735,-1.941808459415287,-9.42956323852539,-1.8663025520540768,50,jumping
1783067157997003500,4.4231856,0.1063539039589464,6.97081399513483,0.3981389018535614,1.0155012607574463,2.3368427753448486,-0.0974108278751373,-1.8539711860083044,-9.46063408409357,-1.7971010055340826,50,jumping
1783067158016927500,4.4431096,-0.1863198594689369,7.54915164322853,-0.2428754210360348,1.5714894533157349,2.351832866668701,-0.2186585515737533,-1.7435563162207603,-9.510602522355317,-1.6367226659208536,50,jumping
1783067158036851700,4.4630338,-0.4785962941423058,8.027001795178652,0.2983376344084739,1.9547514915466309,2.517841100692749,-0.2795311212539673,-1.6221658789105713,-9.57290787962079,-1.3778231618009509,50,jumping
1783067158056776400,4.4829585,-0.5902797225609422,7.884805155074596,1.160929592631012,2.0268824100494385,2.5080857276916504,-0.3316772580146789,-1.5022522361546753,-9.6313740971148,-1.0724932573523371,50,jumping
1783067158076700400,4.5028825,-0.701628219936788,7.38049895787537,1.605786844909191,1.8686106204986568,2.175905466079712,-0.3774412274360657,-1.3900062054172158,-9.677734866273402,-0.7613819930233061,50,jumping
1783067158096624600,4.5228067,-0.9951428181029855,6.130832658779621,2.355295298656821,1.3243135213851929,1.9564515352249143,-0.3113726079463959,-1.294312373290956,-9.707918992134928,-0.5014352814054116,50,jumping
1783067158116548600,4.5427307,-0.9044637453988194,4.685440373966098,2.9473095899254083,0.6970412135124207,1.8445132970809937,0.0488368235528469,-1.2482226761586963,-9.720297996714711,-0.3579802752707153,50,jumping
1783067158136472600,4.5626547,0.8339436636261641,1.4397300212681292,2.03416306411624,0.2715242505073547,1.2846760749816897,0.6650968194007874,-1.3063492864347994,-9.714390233975648,-0.3073447514023631,50,jumping
1783067158156397600,4.5825797,0.1596378965094685,-3.220247994661331,0.7939432232797146,-0.0149554926902055,0.6462457776069641,0.9225797057151794,-1.4656750482551753,-9.691533090001345,-0.310463833270967,50,jumping
1783067158176321500,4.6025036,-4.08369203966856,-6.929483036836982,0.6400035384118556,-0.3160857856273651,0.2268553078174591,0.7170897722244263,-1.6219899378217757,-9.665178751561044,-0.3519515165004879,50,jumping
1783067158196245500,4.6224276,-6.059226973727345,-10.009545731216669,0.3147679967382922,-0.7274214625358582,0.0272854138165712,0.668717086315155,-1.7491624656647442,-9.638619245937466,-0.4558760744206607,50,jumping
1783067158216169500,4.6423516,-5.9344122610569,-12.697882313394546,-0.8861468752026558,-0.905925452709198,-0.212415799498558,0.835803210735321,-1.8911856488980352,-9.602758828005197,-0.6171128574941307,50,jumping
1783067158236093400,4.6622755,-6.015107846015692,-15.312657984799143,-2.77438404955864,-0.6106163263320923,-0.4752702713012695,1.085176706314087,-2.082231952366978,-9.553220597854256,-0.7554175316609442,50,jumping
1783067158256018700,4.6822008,-8.272697388201951,-16.638457675504682,-4.318129741096496,0.0638918280601501,-0.6520645022392273,0.8286309838294983,-2.280644400689751,-9.505475680860876,-0.7842129796430468,50,jumping
1783067158275942700,4.7021248,-9.640335402205586,-15.992093369889258,-3.793448279866576,0.7927635908126831,-0.3896282017230987,0.318852812051773,-2.395017214322835,-9.485503152412177,-0.6778729580789804,50,jumping
1783067158295866400,4.7220485,-6.137272336438298,-13.755048603081702,-2.721779417574405,1.5092203617095947,-0.6979408860206604,0.294077605009079,-2.4481851792782545,-9.485915824866296,-0.4406615176213905,50,jumping
1783067158315790600,4.7419727,-1.5960802744090556,-11.169612423408031,-1.3700193561822176,2.365529775619507,-0.9242495894432068,0.7733039855957031,-2.558757139323652,-9.466910095623136,-0.0277456786342663,50,jumping
1783067158335715600,4.7618977,-2.723359672503173,-7.384704592871666,2.033990045636892,2.4426543712615967,-1.1478511095046997,0.3253133296966553,-2.6673350029423832,-9.424237075066566,0.4893489396292716,50,jumping
1783067158355639600,4.7818217,-0.7727893760919571,-3.3307471817314624,2.2019944962143896,1.611431121826172,-1.6592190265655518,0.0585537441074848,-2.670521816284954,-9.387102399414776,0.9596982144299894,50,jumping
1783067158375563500,4.8017456,1.8312410294145345,-1.4800906732290982,2.396760696989298,0.2384581416845321,-1.3910717964172363,0.3233666121959686,-2.6680148019000884,-9.357861691883206,1.217585691963136,50,jumping
1783067158395487500,4.8216696,3.079042703682184,1.8028163144409652,2.0931436608731744,-0.864644467830658,-0.927853226661682,0.8270224928855896,-2.745350555036962,-9.336320891204476,1.2110045600071548,50,jumping
1783067158415411500,4.8415936,2.132764600382745,4.0104759968101975,0.5381961918413639,-0.8638786673545837,-0.5268988013267517,0.869060754776001,-2.900704490616917,-9.306150793868303,1.0732513822432608,50,jumping
1783067158435336700,4.8615188,-0.0268827462285757,6.619059243315458,-0.5206019368313253,-0.1197374016046524,-0.1429788023233413,0.2120312452316284,-2.997892068432271,-9.283058672094343,1.003931250844896,50,jumping
1783067158455260400,4.8814425,0.6125377315983176,7.662605003929138,1.0228663990698754,0.2978827655315399,-0.1663323193788528,-0.3497813045978546,-2.9813007068544626,-9.286022198075056,1.0256725425317883,50,jumping
1783067158475184400,4.9013665,2.066363790497184,9.030499038520457,1.6588370287038383,0.6542525887489319,-0.4569645524024963,-0.7164422273635864,-2.872312216608226,-9.30747941212356,1.1362434796638785,50,jumping
1783067158495108600,4.9212907,3.747347038426995,10.634461590611934,1.4357446048937736,0.6361629366874695,-0.7819584608078003,-0.7258044481277466,-2.7157448135852813,-9.33381095421016,1.2942435458384454,50,jumping
1783067158515033600,4.9412157,5.117506679862737,10.665090537631512,0.785873460201174,0.1829303205013275,-0.9961286187171936,-0.2358210980892181,-2.595215815410018,-9.349178619211912,1.4241238713353872,50,jumping
1783067158534957600,4.9611397,4.6248941353276365,9.792572959330675,0.3229739168845117,-0.4924985766410827,-0.9648041129112244,0.126555249094963,-2.568124687127769,-9.353684698459505,1.4434979954995215,50,jumping
1783067158554881500,4.9810636,2.562197927427292,10.169564443737269,-0.9724595693908632,-0.7491334676742554,-1.098034143447876,-0.0993117317557334,-2.544990187516808,-9.370799499389529,1.371692403960973,50,jumping
1783067158574805500,5.0009876,3.179216896092892,9.786644153803586,-2.3910335515141488,-0.6083142757415771,-1.2816784381866455,-0.0903389379382133,-2.4859455856129524,-9.396538920801875,1.3021214396066962,50,jumping
1783067158594729700,5.0209118,4.606159624241292,8.225170497873425,-2.7437270454883573,-0.6141165494918823,-1.0059868097305298,0.402594655752182,-2.48459797039628,-9.403567796525358,1.2530370907031,50,jumping
1783067158614654500,5.0408366,3.6922219480544327,7.326953245648741,-2.766480144566297,-1.046640396118164,-0.6641703248023987,0.5867774486541748,-2.562907244740426,-9.3967417498976,1.1415656245347112,50,jumping
1783067158634578400,5.0607605,2.0267741229087117,6.264589387318492,-2.9536358703374863,-1.2995719909667969,-0.2921949923038482,0.3328965902328491,-2.645675252059102,-9.396205158802866,0.9392149599801748,50,jumping
1783067158654502700,5.0806848,1.160863980048895,5.878547165971994,-3.729088328158855,-0.6886788010597229,-0.0648102462291717,-0.1209032014012336,-2.6623282806962725,-9.408649045312403,0.7481579159215093,50,jumping
1783067158674426600,5.1006087,1.179562250778079,4.905195470046997,-3.7472728041470047,0.1886656731367111,0.1606905907392501,-0.4213115274906158,-2.6091993325769898,-9.426644720730184,0.7076836475182324,50,jumping
1783067158694350600,5.1205327,1.0037757680222392,3.276282016572356,-2.0463760644793507,0.2235142141580581,0.5974926352500916,-0.5797594785690308,-2.520502811992168,-9.44823403672576,0.7404881119459867,50,jumping
1783067158714275600,5.1404577,0.5108113413095474,2.6881097876846787,-0.5374865822672844,-0.0556724220514297,0.7854063510894775,-0.8770233988761902,-2.395048047852516,-9.482704461604357,0.715853948361799,50,jumping
1783067158734199600,5.1603817,1.519555691524595,1.4985802696436643,-1.1330185262680053,0.4188557267189026,0.5005016922950745,-0.7838450074195862,-2.2372176391564307,-9.521849308034778,0.7068499001078308,50,jumping
1783067158754123500,5.1803056,1.508664733545482,-2.183226082858443,-1.4621850141823292,1.2220525741577148,-0.0307791102677583,-0.3671619892120361,-2.132803471088409,-9.533549098178744,0.8561530112162232,50,jumping
1783067158774047500,5.2002296,-2.918378094473481,-5.165915613722801,0.0556008911907672,1.187928557395935,-0.4695243537425995,-0.3185725510120392,-2.071138165292144,-9.520566282486914,1.1133675579238682,50,jumping
1783067158793972500,5.2201546,-6.972779742249846,-5.623135065576434,2.352585893567652,0.2342798113822937,-0.5324515104293823,-0.4798751175403595,-1.9737533113390209,-9.520788400804996,1.276425126683712,50,jumping
1783067158813896700,5.2400788,-5.817580363833904,-7.607232076275348,2.2943254277788103,-0.455125629901886,-0.6186557412147522,0.1210877746343612,-1.9194317924343047,-9.533754849883913,1.2624106298565865,50,jumping
1783067158833820700,5.2600028,-4.501671368023753,-9.59053004555106,-0.2689887903273105,-0.3732717633247375,-1.2495794296264648,0.7492018342018127,-1.9813778148680925,-9.527469486004112,1.2132021431166675,50,jumping
1783067158853744400,5.2799265,-5.5556169420987365,-13.325395788067578,-2.1744377962470054,-0.3278872072696686,-1.114712476730347,1.143260836601257,-2.1393474859043957,-9.494488422900435,1.2034390931889414,50,jumping
1783067158873668400,5.2998505,-9.555438858425616,-15.861441037106513,-2.9912802490770813,-0.3834952712059021,-0.7670038938522339,0.4226313531398773,-2.2810452365756038,-9.465023258963226,1.1749795260976998,50,jumping
1783067158893593600,5.3197757,-9.44039852079451,-15.658170042836666,-4.053372889250516,-0.4301607608795166,-0.7332485318183899,-0.4436601400375366,-2.2497398515991867,-9.477654192477464,1.132745992936939,50,jumping
1783067158913517300,5.3396994,-4.725442129486799,-13.886652537500858,-4.4905216129779815,-0.3900879621505737,-0.4158089458942413,-0.5153458714485168,-2.1406793190300464,-9.509785360753536,1.0732470713943243,50,jumping
1783067158933441300,5.3596234,-0.9907954365484416,-10.91004144976735,-6.068883859866857,0.1699231714010238,-0.4196733236312866,-0.3810842931270599,-2.047596692315489,-9.53135421848297,1.0635057949069886,50,jumping
1783067158953365000,5.3795471,-1.080611608812958,-8.430025546464323,-5.611147106140852,0.6053504347801208,-0.3287161886692047,-0.5872939229011536,-1.956134068018198,-9.53935573863089,1.1595784702830016,50,jumping
1783067158973289200,5.3994713,-1.821507132516056,-5.278643582758307,-3.474530214244127,0.4417799413204193,-0.3313469588756561,-1.2159690856933594,-1.7771276003025471,-9.558971708726885,1.2799454097643497,50,jumping
1783067158993214200,5.4193963,-0.4588222108751535,-1.7509411657750606,-1.0831646542966364,-0.2132780253887176,-0.1982569098472595,-1.4869728088378906,-1.5030767042800783,-9.60071709304452,1.3180953999385236,50,jumping
1783067159013138200,5.4393203,0.8103655119009315,2.441835517990589,1.0155669627767057,-1.255406618118286,0.0523731745779514,-1.379278540611267,-1.2220184137135743,-9.658407649990917,1.179916105717048,50,jumping
1783067159033062100,5.4592442,1.4720143342792986,6.595329992681742,1.428852068901062,-1.7203435897827148,0.3532622456550598,-1.1095389127731323,-0.9835970494769511,-9.71811714554429,0.8724243470594286,50,jumping
1783067159052986000,5.4791681,2.332825546564907,8.1498893391788,0.3028466362655163,-1.468511700630188,0.3507338762283325,-0.7554039359092712,-0.8113102454051375,-9.757446116369962,0.551733280415088,50,jumping
1783067159072910000,5.4990921,1.5898793739423154,9.039866001802682,-0.0253729261875152,-1.0121359825134275,0.2687523365020752,-0.8124918341636658,-0.6672140552900732,-9.779225401979684,0.3032494814453646,50,jumping
1783067159092835000,5.5190171,0.8439280281543731,8.658792801040411,0.1491337641571648,-0.492829293012619,0.2852328419685364,-0.9607241749763488,-0.497067916508764,-9.792897368979451,0.1499917874922975,50,jumping
1783067159112759000,5.5389411,0.546085958710499,9.121974376168849,0.1579974358260631,-0.0872551724314689,0.303078293800354,-1.0093733072280884,-0.303074581536185,-9.801477565798162,0.0977335943255573,50,jumping
1783067159132683300,5.5588654,1.4028985663466154,9.29532369490564,0.4685457325100898,-0.2383739799261093,0.22342050075531,-0.9039488434791564,-0.1143690599065739,-9.8057375613302,0.0694011059463955,50,jumping
1783067159152607200,5.5787893,2.118118381523341,9.21641323979795,0.1734691457241773,-0.4714049994945526,0.158551275730133,-0.6428738832473755,0.0359150410462054,-9.806583949026464,-0.0033313252487641,50,jumping
1783067159172531200,5.5987133,1.6831031626932322,8.7228540620625,-0.1664127974718809,-0.5076954364776611,0.1913778334856033,-0.5157648921012878,0.1457674751949962,-9.805032627931237,-0.1023363114811945,50,jumping
1783067159192456200,5.6186383,1.0454732215449214,8.525750942772627,-0.4222235417962074,-0.409216046333313,0.0931878313422203,-0.4981901049613952,0.2456001150258816,-9.801710790032148,-0.1911409594824537,50,jumping
1783067159212380200,5.6385623,0.5795404114795848,8.318388879796862,-0.0708510490263812,-0.3661528527736664,0.0605773106217384,-0.4756249487400055,0.3405812871044501,-9.797107095628975,-0.2665812359952367,50,jumping
1783067159232304000,5.6584861,0.3440521415527909,8.06342744577825,0.1195300867984071,-0.3150844871997833,0.0689770579338073,-0.3859629333019256,0.4264317706083879,-9.791741184681651,-0.3321645372191444,50,jumping
1783067159252228400,5.6784105,0.1062103673024103,7.452091198924183,0.3961650079647079,-0.3787807822227478,0.2703793942928314,-0.2558293044567108,0.4891974753946065,-9.786436648532748,-0.3958655500940978,50,jumping
1783067159272152000,5.6983341,-0.4940398008592426,6.951106255102157,0.4079805699754506,-0.4626422226428985,0.2255888879299163,-0.2626735866069793,0.5402776377579197,-9.780153622740508,-0.4765145559648051,50,jumping
1783067159292077000,5.7182591,-1.2785751443244515,6.032457040223479,0.5274919155407697,-0.6293935775756836,0.2480975985527038,-0.3219597637653351,0.5996692630011587,-9.771301038721203,-0.5765727207804099,50,jumping
1783067159312001300,5.7381834,-1.9933684046521785,4.797964929383993,1.469268250441551,-1.069943070411682,0.5142431855201721,-0.4003150463104248,0.6743128544446081,-9.755758017152548,-0.7354457338646054,50,jumping
1783067159331925200,5.7581073,-1.235553310330212,2.733364056906104,1.3755062631607056,-1.401865005493164,0.5427021980285645,-0.4540388584136963,0.7662898580048233,-9.728323482260109,-0.9710356740675866,50,jumping
1783067159351849000,5.7780311,0.0825423088040202,0.830190594702959,0.9084007925868034,-1.429966926574707,0.4341846406459808,-0.2998587787151336,0.8565834385227411,-9.689634562903642,-1.2440374994285404,50,jumping
1783067159371773200,5.7979553,1.6803087096691132,-3.2471471075028178,-0.583489624029398,-1.0203101634979248,0.5060005187988281,0.3195424973964691,0.8701143896166235,-9.655953827098012,-1.4750751831546425,50,jumping
1783067159391698200,5.8178803,0.5196154830772429,-7.484169760230183,-0.8046380741648376,-0.8064842224121094,0.7564281821250916,0.4440129697322845,0.8043778888586908,-9.635867901402712,-1.6350535636648535,50,jumping
1783067159411622400,5.8378045,-0.9537078149087728,-10.667599305582046,-1.473582021987438,-0.5312432050704956,0.7539034485816956,0.4330998957157135,0.7534928472086787,-9.618621583047508,-1.7563456551671026,50,jumping
1783067159431546000,5.8577281,-1.298781481529027,-15.314052654027938,-2.716694661656022,0.08413977175951,0.6933234930038452,0.8436456322669983,0.6571355096723884,-9.61871393750608,-1.7941309036821127,50,jumping
1783067159451470000,5.8776521,-4.200554039768875,-18.31471447943449,-2.751119493827224,0.6475806832313538,0.8834920525550842,0.8593145608901978,0.5106405513199046,-9.64297627210319,-1.7095776203818618,50,jumping
1783067159471394000,5.8975761,-7.21300362586379,-18.552957418364286,-1.3661363772690296,0.5914976000785828,1.0219707489013672,0.2556823790073395,0.4333727488527074,-9.670639939576386,-1.5688554367445409,50,jumping
1783067159491319300,5.9175014,-5.266155857107043,-16.827903558039665,-0.4821234453551471,0.316904217004776,1.0807915925979614,0.1303740888833999,0.4377994061885401,-9.68428794117868,-1.480971986108273,50,jumping
1783067159511243000,5.9374251,-2.106863266406953,-13.515610901409389,-2.2488317968435583,1.0155460834503174,0.9494786262512208,0.3742498159408569,0.4180533799720928,-9.703058108100295,-1.3587814844615758,50,jumping
1783067159531167200,5.9573493,-0.5585914392141625,-10.29773957275152,-1.2892882615186274,1.6709294319152832,1.004230499267578,0.777536153793335,0.3306934782858938,-9.741280578988787,-1.0809716012317687,50,jumping
1783067159551091200,5.9772733,1.0021074694838374,-7.175877133518457,0.5575854405093937,1.531898021697998,0.0899741426110267,1.0876084566116333,0.1538430012940429,-9.77641618977785,-0.7539096113160252,50,jumping
1783067159571015200,5.9971973,0.7326166479185223,-3.642397302177548,1.884375822752714,0.4241815209388733,-0.5940809845924377,0.9908996820449828,-0.0546087018156424,-9.79116893775165,-0.54811234997157,50,jumping
1783067159590940200,6.0171223,1.3145095042757688,-0.5408505057424307,2.62385855704844,-1.0915988683700562,-0.5886025428771973,1.135700225830078,-0.2604623329898342,-9.783844293951988,-0.6155720577929169,50,jumping
1783067159610864000,6.0370461,2.297301374849677,1.6243331399470566,0.8303140018869191,-1.7234288454055786,-0.6037973761558533,1.575156807899475,-0.5371142052909359,-9.75010335239172,-0.904085486670956,50,jumping
1783067159630788000,6.0569701,0.7635140366159379,4.006974710690975,-0.4738343404375016,-1.5457959175109863,-0.3290439546108246,1.4845433235168457,-0.8494058019783347,-9.693501759725809,-1.2185665196940303,50,jumping
1783067159650712300,6.0768944,0.6981435196261853,5.142460503855348,0.3877713832266628,-1.3612630367279053,-0.019468804821372,1.3843488693237305,-1.1256581535678356,-9.626350715994834,-1.49553870999068,50,jumping
1783067159670636300,6.0968184,0.5051845874689519,6.019319326230884,-0.4996124864250421,-0.7192181348800659,-0.234061524271965,0.9546746015548706,-1.3653018261410297,-9.561391044828294,-1.6988633341439068,50,jumping
1783067159690561000,6.1167431,-0.5713618177317082,7.003812593895196,0.1180170153543353,0.0260735601186752,-0.0431490279734134,0.2588590681552887,-1.4864542169116437,-9.532387068662048,-1.759092761918157,50,jumping
1783067159710485200,6.1366673,-0.014182400739938,7.657894342020153,0.9649908409453928,0.4510242342948913,0.2109415531158447,-0.3075366914272308,-1.4754596524275838,-9.54317734274566,-1.7091386444427072,50,jumping
1783067159730409200,6.1565913,1.5971891124337911,8.11980633560419,2.0089263315290213,0.5692687034606934,0.3369130492210388,-0.467007964849472,-1.3851526279062032,-9.572188917696476,-1.6201679830916225,50,jumping
1783067159750333200,6.1765153,2.90985751888752,8.402287060189247,1.717959518149495,0.7242743968963623,0.0300158429890871,-0.3786046504974365,-1.2996072648286818,-9.602979192757608,-1.5047256405308842,50,jumping
1783067159770257200,6.1964393,3.2317838264152408,8.294619881674647,1.781373713439703,0.7295302152633667,-0.1594191193580627,-0.214491382241249,-1.244147535674274,-9.632080784079433,-1.3584976990841329,50,jumping
1783067159790181000,6.2163631,2.7325571244373914,7.854587126943469,2.297951363191008,0.3488295078277588,-0.2754985988140106,-0.0716966763138771,-1.2240604409351945,-9.649789459249376,-1.2464479215711357,50,jumping
1783067159810106400,6.2362885,1.7006182149872182,7.988261437895893,2.400511427824944,-0.138396069407463,-0.3069767355918884,-0.1665559560060501,-1.2119020933687683,-9.654776600012182,-1.2194220405448228,50,jumping
1783067159830030000,6.2562121,0.6652269000608474,8.228586443796754,2.679052621003985,-0.634833574295044,-0.1305240094661712,-0.2972138822078705,-1.1716007703796028,-9.650742229929566,-1.2887693522110582,50,jumping
1783067159849954000,6.2761361,0.3537205719996243,8.284283781099319,2.073814252633601,-1.0328514575958252,0.1319601386785507,-0.3742023110389709,-1.1069961962610482,-9.635211483320592,-1.4517707338042556,50,jumping
1783067159869878000,6.2960601,0.4799131488945335,8.019614607536793,1.5332581997931003,-1.1454198360443115,0.3830902278423309,-0.3013602495193481,-1.0313278648797422,-9.608317046654223,-1.6694287114754318,50,jumping
1783067159889802200,6.3159843,0.5406599516063928,6.7794853675931686,1.2616735477536916,-1.1681925058364868,0.4670490324497223,-0.0313175618648529,-0.9810434194713832,-9.570675006002189,-1.9000278576537968,50,jumping
1783067159909728300,6.3359104,0.590684796230495,5.429041649496555,1.0219612669236957,-1.1359498500823977,0.343762457370758,0.3277668952941894,-0.995155093062669,-9.521030977389216,-2.12838156299293,50,jumping
1783067159929652200,6.3558343,-1.0490066563680769,4.095167373406887,1.3298118489563464,-1.1326017379760742,0.8757272362709045,0.1788627654314041,-1.0300581372048705,-9.464912784326076,-2.35049009033218,50,jumping
1783067159949576400,6.3757585,-1.6890014269515872,2.1473498828351496,0.8699106106728315,-1.3849443197250366,1.3202223777770996,-0.1637985706329345,-0.9717050977617502,-9.404025477164984,-2.6058564518898724,50,jumping
1783067159969500400,6.3956825,-0.3968090414892882,-2.3594576790332797,-0.6389037604764104,-1.8832370042800903,1.391825556755066,0.0734731256961822,-0.8764574750330298,-9.316464682611825,-2.933544391684234,50,jumping
1783067159989424000,6.4156061,0.1768442481804639,-4.4570203253924845,-2.985466302101314,-2.2731409072875977,1.406386137008667,0.4982575476169586,-0.8446770929560065,-9.178406457486748,-3.348692880527675,50,jumping
1783067160009349400,6.4355315,0.4041252827867865,-5.903991403830051,-5.8113423462271685,-1.679783821105957,0.9552878141403198,1.2178713083267212,-0.901520896879956,-9.019965369546412,-3.741372932453453,50,jumping
1783067160029273300,6.4554554,-0.1019303884282708,-8.630915783077478,-6.920672538393736,-0.7555630207061768,0.3979431986808777,2.523658275604248,-1.1836059001456944,-8.890300294235349,-3.966360083968937,50,jumping
1783067160049197300,6.4753794,-0.7804821225516497,-10.554138930618764,-6.996848015579581,-0.3660851716995239,-0.1548914760351181,3.359934568405152,-1.7081405733160673,-8.762129256874323,-4.059275099031627,50,jumping
1783067160069121300,6.4953034,-5.051656197336316,-8.701343072000146,-5.7667877497076985,-0.5042609572410583,-0.1300574541091919,3.163562059402466,-2.293006015743315,-8.596614285025,-4.124406911894679,50,jumping
1783067160089045200,6.5152273,-6.7340241776227945,-5.049738381016254,-5.307965538832545,-1.1217889785766602,0.0105779059231281,2.771281719207764,-2.809413277363777,-8.376944529139996,-4.254924512381852,50,jumping
1783067160108969200,6.5351513,-7.148293545544147,-1.8013988488584756,-3.0268694488525387,-1.4470319747924805,0.3392079174518585,1.774666428565979,-3.168471337933838,-8.130497240966559,-4.475061885778605,50,jumping
1783067160128894200,6.5550763,-4.427061532719433,-0.0862473738670349,-1.8135995742619035,-1.6129887104034424,0.0331784822046756,1.2992348670959473,-3.384320366486907,-7.889586544132232,-4.740378125073016,50,jumping
1783067160148818200,6.5750003,-1.087535416726768,-1.4357155249297615,-1.3965958129405975,-1.9144904613494875,-0.6796859502792358,1.241838812828064,-3.614078093405068,-7.633221088534593,-4.9842514711052175,50,jumping
1783067160168742100,6.5949242,-1.1113266266807913,0.3063157736808061,-1.5183078834205863,-2.068026304244995,-0.988578736782074,0.7141557931900024,-3.8560429754674432,-7.349607560527324,-5.223464131850004,50,jumping
1783067160188666400,6.6148485,0.0026721418187022,-0.0020294600009918,-1.8855279153972864,-0.9718984961509703,-0.512429416179657,0.531872034072876,-4.016999845620989,-7.135983514547347,-5.395538608345389,50,jumping
1783067160208590300,6.6347724,0.9957625574365258,-0.6302449454635382,-1.422745568719506,-0.6855834126472473,-1.2108197212219238,0.4307911098003387,-4.176160480007529,-7.0195286339432,-5.427364656195044,50,jumping
1783067160228515300,6.6546974,0.5391390256494283,-0.3799000653296709,0.2756207756876945,-1.2957829236984253,-0.1503649353981018,0.6874462962150574,-4.354598646315932,-6.866899447152018,-5.4821109763830895,50,jumping
1783067160248439300,6.6746214,1.0079092145651578,-3.111126525685191,9.34960765827894,-1.1899210214614868,5.3934831619262695,1.037755012512207,-4.177383007539809,-6.649135232627391,-5.874423364040255,50,jumping
1783067160268363300,6.6945454,3.1788679365247487,-1.0660463462352752,0.2372638647645711,-3.671712636947632,2.359313726425171,0.971204161643982,-3.688234047462046,-6.300463249254227,-6.547631252917647,50,jumping
1783067160288287500,6.7144696,1.5860425722584128,-0.7365250535339116,-3.6950200543403615,-3.507547378540039,0.6823123097419739,0.6971099972724915,-3.695633510063588,-5.714352044549584,-7.06107995699346,50,jumping
1783067160308211200,6.7343933,-0.0473217231452465,0.7451888369828462,1.974301008349657,-2.4004273414611816,1.103315830230713,0.5465453267097473,-3.591565232823789,-5.248382300007343,-7.464953018584847,50,jumping
1783067160328136200,6.7543183,0.1190814297154545,3.743540631881356,-2.9091432331383227,-1.399162769317627,0.0839248225092887,0.0828539133071899,-3.5538629864171147,-4.930765964633226,-7.695973020523786,50,jumping
1783067160348060400,6.7742425,1.661019195048511,3.445363448731601,0.6276251183539628,-0.0866031348705291,-0.0941981673240661,-0.2862202525138855,-3.5394200350448486,-4.825620705811679,-7.768930120185017,50,jumping
1783067160367984400,6.7941665,2.0579124807551503,2.7757074071168897,0.1754091738760471,1.0348315238952637,-0.3646753430366516,-0.5014917254447937,-3.543065113548934,-4.928842303094267,-7.702180058470368,50,jumping
1783067160387908000,6.8140901,1.2876780498430132,2.141751916697621,1.2360019308805466,1.776771068572998,-0.4888230860233307,-0.8324391841888428,-3.535982754072547,-5.193909536063671,-7.529310047683119,50,jumping
1783067160407832300,6.8340144,1.2884978417932986,2.8153333150625226,1.4455600425958632,1.8204625844955444,-0.5936933159828186,-1.1700072288513184,-3.516901329244673,-5.541131905150413,-7.286812958440184,50,jumping
1783067160427756300,6.8539384,1.263282444255054,1.7406383829474448,2.7511703472316262,1.3371477127075195,0.1051863059401512,-1.1076730489730835,-3.424797630564868,-5.849686982190609,-7.086770278567076,50,jumping
1783067160447681300,6.8738634,1.360463884590566,-0.1463479145646095,1.912795277029276,0.9824631214141846,0.4826194047927856,-1.0006389617919922,-3.2499379072651267,-6.0787260394454,-6.975484325033426,50,jumping
1783067160467605200,6.8937873,0.9562395253434776,-0.6232172387838363,0.294769712793827,0.8664470314979553,0.0726203694939613,-1.0451819896697998,-3.080195088587701,-6.26804274264276,-6.884360285040736,50,jumping
1783067160487529200,6.9137113,1.448095114031434,-0.4260995064467191,-0.4807599019169807,0.9243330359458924,-0.3661838173866272,-0.8826298117637634,-2.979635988512635,-6.448700923088192,-6.760652072307467,50,jumping
1783067160507453200,6.9336353,1.0405161836594343,-1.142929679429531,-0.0790139154821634,0.90128093957901,-0.117990918457508,-0.5434151291847229,-2.9260996286362406,-6.61338587385416,-6.623553632125258,50,jumping
1783067160527377400,6.9535595,-0.2674202258363366,-0.99889705606997,0.1008849710285663,0.7253372669219971,0.265309065580368,-0.4693356156349182,-2.8498303356871006,-6.749337482088804,-6.518841796284914,50,jumping
1783067160547301400,6.9734835,-0.7877233258515596,-0.3136240508675575,-0.2154828255891799,0.449527382850647,0.4535254240036011,-0.5698891282081604,-2.7332497828766704,-6.854316444432735,-6.4589528525114055,50,jumping
1783067160567226400,6.9934085,-0.4843672787591814,-0.2543430098593235,-0.1592366222321987,0.1089580059051513,0.4986291825771332,-0.5780583024024963,-2.589937290485203,-6.920929728025198,-6.446964308553934,50,jumping
1783067160587150300,7.0133324,-0.0186129305332899,-0.5896896477133036,0.0236608615726232,-0.2797783613204956,0.5221328139305115,-0.4591078460216522,-2.451005789656937,-6.937080652359128,-6.483814906567335,50,jumping
1783067160607074300,7.0332564,0.2097673705518245,-0.2399398059755563,-0.1543774917632341,-0.3986852467060089,0.3009945452213287,-0.2577256858348846,-2.344647063392401,-6.905106135949492,-6.5568690368622535,50,jumping
1783067160626998300,7.0531804,0.85455492836982,0.4891512981653213,-0.5426765521258116,-0.1849236786365509,-0.3451452851295471,-0.1208518519997596,-2.3192079401008785,-6.879874079537391,-6.592343670347333,50,jumping
1783067160646922200,7.0731043,0.2593158298358321,0.0527262125372886,0.2990291238039732,-0.1658496111631393,-0.2604095637798309,0.0919007882475853,-2.3653154651507733,-6.858842981946468,-6.597874416467547,50,jumping
1783067160666847200,7.0930293,0.0790206374838948,0.9993091440021992,1.459425486341119,-0.3406442999839782,0.0989292040467262,0.0970479995012283,-2.388976180592924,-6.822456494313478,-6.627009910058975,50,jumping
1783067160686771500,7.1129536,0.2625637257158756,0.7184241641759872,1.6560533893346785,-0.4050955176353454,0.2014724314212799,0.0824309885501861,-2.376793429237604,-6.765130094504356,-6.689861795291304,50,jumping
1783067160706695400,7.1328775,0.874349323772639,0.6817389858573675,1.2951315807193515,-0.2338192909955978,-0.1425457894802093,0.1212779060006141,-2.383743979027867,-6.716024995073676,-6.736703041443229,50,jumping
