time,seconds_elapsed,acc_x,acc_y,acc_z,gyr_x,gyr_y,gyr_z,grav_x,grav_y,grav_z,fs_hz,activity
1783087540865221400,0.0,0.9808874982573093,-0.3930599911540746,1.149343053603172,2.1501870155334477,-1.3042733669281006,-0.3587438762187958,-1.882753189986944,-1.6114852026812732,-9.488347435927391,100,jumping
1783087540875183400,0.009962,1.49463898467198,-1.1877702532835304,1.4610036954432726,2.1986749172210693,-1.6879501342773438,-0.3295159339904785,-2.0170238593973218,-1.824135435193032,-9.422023490670323,100,jumping
1783087540885146400,0.019925,1.9119319381982087,-0.5719127296127379,0.7596931631535291,2.0338425636291504,-2.147463083267212,-0.4296669661998749,-2.190557156398892,-2.0307341125808653,-9.340661550757288,100,jumping
1783087540895109000,0.0298876,0.9613407940052447,1.6672824932269752,0.799716545984149,1.7169843912124634,-2.3899104595184326,-0.4684404730796814,-2.392175561156124,-2.2157044571369884,-9.248704567071796,100,jumping
1783087540905071400,0.03985,0.0956070306256413,2.7339091235682367,1.3560814317226408,1.3250473737716677,-2.3473095893859863,-0.344220906496048,-2.6014383431866763,-2.3656509807154533,-9.154594204744695,100,jumping
1783087540915034400,0.049813,-0.665540422989428,2.413968729160726,2.033158855509758,0.9754796624183656,-2.0965118408203125,-0.1537447124719619,-2.797822208291292,-2.4762179723247884,-9.0670240578413,100,jumping
1783087540924997400,0.059776,-0.968637526884675,2.153050724825263,2.871612251645326,0.7115632891654968,-1.8319910764694212,-0.0871365219354629,-2.971170942506194,-2.5549773285239934,-8.989695318967103,100,jumping
1783087540934960400,0.069739,-0.4792229016080498,2.038026169285178,3.336312414643168,0.4193002879619598,-1.7341161966323853,-0.2008963674306869,-3.125846248172224,-2.6097914532512423,-8.921236699768901,100,jumping
1783087540944922000,0.0797006,0.6814461403906344,1.4707453372567891,3.314554171821475,0.0237891860306262,-1.8136746883392332,-0.4534148573875427,-3.2728698700413106,-2.640611831189692,-8.85922535701394,100,jumping
1783087540954885000,0.0896636,1.6815093176305294,0.6804615132674574,3.326395416262746,-0.4570320248603821,-2.0761823654174805,-0.6871005892753601,-3.428378703922033,-2.6408637601241467,-8.800138961794971,100,jumping
1783087540964848400,0.099627,1.471476866401732,0.4987441791579127,3.119077192428708,-0.8817638754844666,-2.318866729736328,-0.8227524757385254,-3.601119243110716,-2.608784029774368,-8.740513052871822,100,jumping
1783087540974810400,0.109589,1.6493591523930429,0.3367120809882879,3.279581642639637,-1.2048319578170776,-2.452471971511841,-0.7654396295547485,-3.787979785327613,-2.547458038935065,-8.67940421191454,100,jumping
1783087540984773400,0.119552,1.662742365579307,0.2854834135323763,3.89860961304009,-1.4648202657699585,-2.5268442630767822,-0.5556784868240356,-3.986165439157188,-2.4579221449166533,-8.61623434677422,100,jumping
1783087540994736000,0.1295146,1.9337679224312303,0.0932438086256384,4.166387858533859,-1.6784300804138184,-2.657761812210083,-0.3051868975162506,-4.1967374040901655,-2.3405013418897984,-8.548674137720464,100,jumping
1783087541004698400,0.139477,2.75923061182946,-0.1694471967317163,3.988429000174999,-1.7633198499679563,-3.0187811851501465,-0.1596139669418335,-4.430981921033561,-2.203505923690647,-8.466483930289744,100,jumping
1783087541014661400,0.14944,3.9088539436787366,-0.4051772760577499,3.573111584505438,-1.7465226650238037,-3.490907907485962,-0.1419673264026641,-4.701035417982936,-2.062346809940785,-8.355679038271308,100,jumping
1783087541024624400,0.159403,4.686822183713317,-0.5881900568053126,3.369396353599429,-1.6533946990966797,-3.8469350337982178,-0.2500617802143097,-5.000911514005065,-1.931258277697861,-8.211669211265445,100,jumping
1783087541034587400,0.169366,5.107407310652732,-1.008849125763774,3.777719380337,-1.4883010387420654,-3.916624784469605,-0.391393631696701,-5.310764814162254,-1.8200499194450677,-8.040745073848962,100,jumping
1783087541044549000,0.1793276,4.92326187261343,-1.857259706159681,4.772678512436151,-1.269706964492798,-3.8499040603637695,-0.5913373827934265,-5.609499923455715,-1.737334665226936,-7.854016049057245,100,jumping
1783087541054512400,0.189291,4.942904730716347,-2.564282040224969,5.323259554076195,-0.7644099593162537,-1.8882609605789185,-0.678115963935852,-5.84806259585917,-1.691411410702765,-7.68828188149929,100,jumping
1783087541064475400,0.199254,5.4589270846724505,-2.7245681715101,6.7998156234383575,0.0336239300668239,-1.084949254989624,-0.4032034277915954,-5.939862343156338,-1.6981209913440047,-7.616088751947879,100,jumping
1783087541074437400,0.209216,5.988360708865523,-4.05644396725893,3.705391226229072,0.920535445213318,-0.2392375022172927,0.1735134273767471,-5.983571721023321,-1.74051680239439,-7.572176544985175,100,jumping
1783087541084400000,0.2191786,4.808408581987023,-5.414724954852462,2.322085687494278,1.436185598373413,-0.4426120817661285,0.4999078512191772,-6.014487668290734,-1.8106765264220532,-7.531120311975479,100,jumping
1783087541094363100,0.2291417,3.8040941770434378,-4.040171462371945,0.5696949074327945,1.5816727876663208,-0.9115721583366394,0.5654609799385071,-6.074545538890361,-1.8914630045346916,-7.462751124626398,100,jumping
1783087541104326100,0.2391047,2.6876912700116637,-2.1396569902449847,0.2052303116440773,1.701765060424805,-1.3141233921051023,0.5345942974090576,-6.167962073734402,-1.9786691404312848,-7.362845227763056,100,jumping
1783087541114288400,0.249067,1.174871462613344,-1.1684510741770266,1.8669670073121785,1.8031047582626345,-1.7697482109069824,0.3465508818626404,-6.288287658292055,-2.078086376994848,-7.232522565326094,100,jumping
1783087541124251400,0.25903,-0.7436708336353302,-1.1856509230419994,2.536155139154196,1.868581771850586,-2.7014825344085693,-0.0798700749874115,-6.447613127851485,-2.199899862022698,-7.054013671869039,100,jumping
1783087541134214400,0.268993,-2.7976252244144675,-2.588071204352379,0.9414315400511026,1.9262890815734863,-3.8551042079925537,-0.7004547715187073,-6.665905165642499,-2.3555063110589978,-6.796152424755692,100,jumping
1783087541144176000,0.2789546,-4.3076048399508,-4.257833677826822,-0.7315460960775614,1.9943279027938845,-4.821239471435547,-1.4437460899353027,-6.926138402584194,-2.5574109854117038,-6.454350327152014,100,jumping
1783087541154139400,0.288918,-7.316406132671236,-5.553071933791041,-1.1406570583224296,2.0057592391967773,-5.278278350830078,-2.219672679901123,-7.194550854328274,-2.8116701163798568,-6.04179828454256,100,jumping
1783087541164102400,0.298881,-11.685987244063616,-6.475284394109249,0.4006570221543312,1.8869516849517824,-4.859175682067871,-2.8845717906951904,-7.416000479367375,-3.1119968787789345,-5.61148671335876,100,jumping
1783087541174064400,0.308843,-14.466730891782044,-8.898888089838623,3.155599289140105,1.4426701068878174,-3.902461528778076,-3.367817640304565,-7.5504972126185885,-3.4379841521352525,-5.228828289231657,100,jumping
1783087541184027100,0.3188057,-15.37964068622589,-13.513173445129391,4.103514930513501,0.6318040490150452,-3.5342252254486084,-3.324204206466675,-7.613223425644636,-3.7472248733520495,-4.916046534407139,100,jumping
1783087541193990100,0.3287687,-17.458329120767115,-18.120673085802792,0.8501210375756025,-0.4098203182220459,-3.730695009231568,-3.12164568901062,-7.662681576296687,-3.997111780585348,-4.63430610679537,100,jumping
1783087541203953200,0.3387318,-21.426271797752374,-17.94737871212363,-3.0916026177868243,-1.3026089668273926,-3.6774091720581055,-3.281306028366089,-7.70008747010529,-4.200931933170557,-4.385339529277384,100,jumping
1783087541213915400,0.348694,-25.359706640458107,-15.692151807415485,-3.037680181202292,-1.923870325088501,-3.4954986572265625,-3.860218048095703,-7.70092625901699,-4.404029324439168,-4.179790360942483,100,jumping
1783087541223878400,0.358657,-29.16192333319187,-13.627212496763468,-4.408886409081519,-2.2455008029937744,-3.2825820446014404,-4.640453815460205,-7.648029950609803,-4.642940079627931,-4.015112132178246,100,jumping
1783087541233841200,0.3686198,-31.83440183650255,-11.870846967852115,-6.458976233386993,-2.1815669536590576,-2.9244604110717773,-5.370750904083252,-7.53150960355401,-4.934202953344583,-3.8859196428149936,100,jumping
1783087541243803100,0.3785817,-33.234488414168354,-10.602356141299008,-7.781208002477884,-1.9299546480178835,-2.4404101371765137,-5.936734676361084,-7.346180508688092,-5.275839046731591,-3.790715932293236,100,jumping
1783087541253766400,0.388545,-33.87340824899673,-9.269183875998854,-9.207768745571377,-1.788240909576416,-1.7861045598983765,-6.229165554046631,-7.093625551289319,-5.646093916359543,-3.737978906100988,100,jumping
1783087541263729400,0.398508,-33.107195913207526,-7.70849815557599,-10.319481448960303,-1.8336949348449707,-1.3980576992034912,-6.201993465423584,-6.789481276428699,-6.0098284443080425,-3.735679104726017,100,jumping
1783087541273691100,0.4084697,-30.621916390287875,-5.689022372981905,-12.2474929998219,-1.9530540704727173,-1.4489350318908691,-6.061942100524902,-6.464716238343716,-6.344235755485296,-3.758793146070838,100,jumping
1783087541283654100,0.4184327,-26.44363000416756,-3.1863562464535238,-14.73261820896268,-1.961215853691101,-1.4325439929962158,-5.959385871887207,-6.130830320692062,-6.646779024890065,-3.7952109056249257,100,jumping
1783087541293617200,0.4283958,-22.67395481407642,0.0972615198343992,-15.045920772790907,-1.771875500679016,-1.2659379243850708,-5.9761810302734375,-5.779335681113601,-6.929115957090258,-3.841486626848578,100,jumping
1783087541303580700,0.4383593,-19.11257750650644,3.6911855907440185,-14.458001641881465,-1.4049934148788452,-0.9527042508125304,-6.039975643157959,-5.399558365380764,-7.202282325363159,-3.8913092268988487,100,jumping
1783087541313543000,0.4483216,-15.60187473964095,6.630505935481191,-13.325255502814054,-0.9572667479515076,-0.7473023533821106,-6.00876522064209,-4.990953014570474,-7.468925429347157,-3.933945422576368,100,jumping
1783087541323506000,0.4582846,-11.925240236818787,8.717103535711765,-12.127367906272411,-0.6654400825500488,-0.6551634669303894,-5.851188659667969,-4.569312825620174,-7.720367457067966,-3.9607700088769193,100,jumping
1783087541333469000,0.4682476,-7.882334965568781,9.670955581396818,-10.909037241160869,-0.6323156952857971,-0.6074822545051575,-5.603256702423096,-4.146135051839053,-7.944288440656662,-3.983496804469824,100,jumping
1783087541343430700,0.4782093,-4.355627697102725,10.400639975255729,-9.229201994222402,-0.5612844824790955,-0.6252686977386475,-5.16935396194458,-3.7387197875961657,-8.1319854336977,-4.007890656492114,100,jumping
1783087541353394000,0.4881726,-2.0199203114911914,11.756484091091156,-7.271112115961313,-0.266891747713089,-0.6035793423652649,-4.684183120727539,-3.360000456483662,-8.288932483687997,-4.021738564580679,100,jumping
1783087541363357000,0.4981356,0.3964566478550433,12.7229980499506,-5.07835423464775,0.3468689024448395,-0.6408661007881165,-4.164620399475098,-3.01616217687726,-8.430343526372313,-4.000308530800044,100,jumping
1783087541373319000,0.5080976,2.3457529788076874,13.319403269654511,-3.037248219525814,1.1683180332183838,-0.8105920553207397,-3.663533926010132,-2.713262933641672,-8.571551739960908,-3.9162618818476793,100,jumping
1783087541383282000,0.5180606,3.961354238505661,14.07512460656762,-1.1813424121931195,2.080531120300293,-0.8535858988761902,-3.164156198501587,-2.4512112491011617,-8.721389834728836,-3.754902860634029,100,jumping
1783087541393244700,0.5280233,5.623080705040693,14.914354247772692,1.5129875651806592,2.924964427947998,-1.0506014823913574,-2.624969005584717,-2.2307963739372787,-8.880068238556385,-3.512594864222407,100,jumping
1783087541403207700,0.5379863,7.23519616844952,16.167129618799684,3.070067077805102,3.5486996173858643,-1.556033968925476,-2.073549270629883,-2.064169056931883,-9.038992141577602,-3.1947149094760414,100,jumping
1783087541413170000,0.5479486,9.124322400599718,17.93298310702443,3.0476053628891706,3.923554182052612,-2.18795108795166,-1.5082534551620483,-1.957429660786688,-9.18726313315928,-2.816564610423148,100,jumping
1783087541423133000,0.5579116,10.529419499903916,19.13123310713768,2.806736459369957,4.066154003143311,-2.670958995819092,-0.9095163941383362,-1.9093954054579136,-9.314706440767646,-2.400170797693729,100,jumping
1783087541433096000,0.5678746,10.818011985367535,19.06101566157341,2.8895266785204408,3.9904847145080566,-2.84416937828064,-0.2978516817092895,-1.9138265197731557,-9.41417745334506,-1.9700036034166808,100,jumping
1783087541443057700,0.5778363,10.150977816689014,18.795279151040315,3.2773113596200942,3.6866915225982666,-2.5870344638824463,0.2903238534927368,-1.9619103133320808,-9.481834693032502,-1.5543839899301528,100,jumping
1783087541453021000,0.5877996,8.971136748969554,18.437658137536047,3.872793034738302,3.136014699935913,-2.0127227306365967,0.8192337155342102,-2.046806126459688,-9.51731224912703,-1.1839548597138374,100,jumping
1783087541462984000,0.5977626,7.621562799444794,18.062833475774525,4.052157083719969,2.368194103240967,-1.3497992753982544,1.2338640689849854,-2.162483739081025,-9.52406289243102,-0.8867232137858867,100,jumping
1783087541472946000,0.6077246,7.044600531357526,17.649376593279836,3.4502246250271797,1.5016320943832395,-0.8191731572151184,1.5406162738800049,-2.3028842895485457,-9.50819370764792,-0.6792354786038398,100,jumping
1783087541482908700,0.6176873,6.895594795760512,17.288599161571263,2.729312735688686,0.6519582867622375,-0.3954702913761139,1.7976020574569702,-2.4646754185691475,-9.475120874607562,-0.563757261012122,100,jumping
1783087541492871700,0.6276503,6.96410134575367,16.817326049923896,2.30733060143292,-0.0184997171163558,-0.0895710811018943,2.0100553035736084,-2.6455601012468337,-9.42822176078856,-0.529187102086097,100,jumping
1783087541502834700,0.6376133,7.047723047292232,16.40987103819251,1.9713914045132692,-0.4569616317749023,0.0720647200942039,2.1891088485717773,-2.8423069544449446,-9.369420027729868,-0.5528264824792742,100,jumping
1783087541512797000,0.6475756,6.911704803562164,15.719852299767732,1.4903911179691551,-0.6905701756477356,0.1159757226705551,2.3449440002441406,-3.0528496932834384,-9.29935046620369,-0.6103722606601193,100,jumping
1783087541522760000,0.6575386,6.723712626966834,14.754567005920409,0.9336194049954414,-0.7453054785728455,0.0059474525041878,2.493379592895508,-3.2754639781877395,-9.21842457962036,-0.6799838858183473,100,jumping
1783087541532722700,0.6675013,6.697391021752357,14.08411338418722,0.2086678848773241,-0.6338729858398438,-0.27382293343544,2.643427610397339,-3.511156940373778,-9.126618987104296,-0.7395821030169725,100,jumping
1783087541542684700,0.6774633,6.766109753191471,13.53466514596939,-0.7572370021730661,-0.3816776573657989,-0.5328073501586914,2.7720181941986084,-3.75929232776463,-9.024587768650054,-0.7713110471677035,100,jumping
1783087541552648000,0.6874266,6.596278087186813,12.822993378663062,-1.320949912586808,-0.0481167398393154,-0.6545263528823853,2.839275360107422,-4.014879784727096,-8.914158139684796,-0.7673923393540084,100,jumping
1783087541562611000,0.6973896,6.118123983854055,12.0968032566607,-1.557321212425828,0.2646899819374084,-0.6800774335861206,2.8319013118743896,-4.270548490232229,-8.797743006569146,-0.7297400695689022,100,jumping
1783087541572572700,0.7073513,5.666089825683832,11.481586953502893,-1.8857880276381969,0.4388053119182586,-0.6601050496101379,2.7525634765625,-4.518668972314894,-8.677827171856164,-0.6688252898789941,100,jumping
1783087541582535700,0.7173143,5.420997459250688,11.072247443199156,-2.213502563178539,0.4919455349445343,-0.5889983773231506,2.6142737865448,-4.753314179013669,-8.556690270915627,-0.5995346037708222,100,jumping
1783087541592498700,0.7272773,5.308271828302741,10.805752223253249,-2.263115027609468,0.5021089315414429,-0.5585278272628784,2.4298975467681885,-4.970090259283781,-8.4372870618999,-0.5298709926970303,100,jumping
1783087541602461700,0.7372403,5.181555081403255,10.408120686399936,-2.261187274417281,0.5253711938858032,-0.6495334506034851,2.263444662094116,-5.168686247479915,-8.321424886491894,-0.4571295816130936,100,jumping
1783087541612424000,0.7472026,5.278837644025683,9.757186588650942,-2.3523382024168966,0.6150928139686584,-0.8718482851982117,2.1366281509399414,-5.352759789326787,-8.208588196384905,-0.3707667646728456,100,jumping
1783087541622387000,0.7571656,5.410706951382756,8.872844717043638,-2.451958852598071,0.7540832161903381,-1.1425551176071167,2.035928726196289,-5.525328771340846,-8.097720760524272,-0.2608212842290289,100,jumping
1783087541632349700,0.7671283,5.461343498164415,7.893027624496817,-2.3271955778539177,0.8847852945327759,-1.316453456878662,1.9600943326950075,-5.687744608131051,-7.987747643154859,-0.1258139163082465,100,jumping
1783087541642312000,0.7770906,5.3089264928191895,6.703888567078113,-1.769855125081539,0.9649050235748292,-1.3472837209701538,1.8929228782653809,-5.8405877299338576,-7.877644761925935,0.0247817439448903,100,jumping
1783087541652275000,0.7870536,5.031241770339012,5.344534981817007,-0.908336495178938,0.9406742453575134,-1.1992173194885254,1.8508641719818115,-5.985180909785628,-7.766418429625034,0.1752621118218638,100,jumping
1783087541662238000,0.7970166,4.576308968117833,3.829567640995979,0.1203495864877477,0.7382405400276184,-1.0015292167663574,1.8239243030548096,-6.123861650723218,-7.653408136516809,0.3067161346426234,100,jumping
1783087541672199700,0.8069783,4.575936043152213,2.561234635353088,0.8678396496176719,0.3866519033908844,-0.8894128799438477,1.7366315126419067,-6.255618145355582,-7.541323726081847,0.4075219760203734,100,jumping
1783087541682162700,0.8169413,5.021992880478501,1.9827491032212967,1.0566180081546306,0.039113949984312,-0.9068875908851624,1.5717694759368896,-6.375315368881822,-7.436141934642195,0.4791123904382809,100,jumping
1783087541692125700,0.8269043,5.638208716067672,1.599199283212423,1.0782032324969768,-0.1868006736040115,-1.069820523262024,1.410942792892456,-6.479770599612594,-7.341392689889669,0.5356384336499497,100,jumping
1783087541702088000,0.8368666,6.074580025681853,0.4072475064605474,1.0139058976966888,-0.2604399025440216,-1.342321515083313,1.3335076570510864,-6.572574555516242,-7.253617375802993,0.5972423646477982,100,jumping
1783087541712051000,0.8468296,5.955259234252572,-1.638118504193425,0.9739982502002268,-0.2123067378997802,-1.4314316511154177,1.2183927297592163,-6.655863079577684,-7.170598900854587,0.6726137954417616,100,jumping
1783087541722013700,0.8567923,5.626304343262315,-3.770150990909338,1.4694845235407352,-0.1790417581796646,-1.223742961883545,1.03680157661438,-6.726440006104111,-7.096831069332361,0.7485933116640895,100,jumping
1783087541731976700,0.8667553,5.149510422366857,-5.800684758612513,2.665482945334911,-0.350802332162857,-0.977047860622406,0.850744903087616,-6.784899793857336,-7.034779394567012,0.804613305049762,100,jumping
1783087541741939000,0.8767176,4.602684349346161,-7.683026445189118,3.4563808095693584,-0.7551977634429932,-1.0354421138763428,0.4715754687786102,-6.824055161681771,-6.9934297315686935,0.8334300880808383,100,jumping
1783087541751902000,0.8866806,4.506397227501869,-8.778399423673749,3.285459594762325,-1.309181571006775,-1.5065507888793943,-0.0534960217773914,-6.828623200249671,-6.987418508455157,0.8463345047742128,100,jumping
1783087541761865000,0.8966436,4.34617159423232,-9.348723276659843,2.460015317803621,-1.82455313205719,-2.273793935775757,-0.6799582242965698,-6.787358877447248,-7.0253709302306175,0.863885285968706,100,jumping
1783087541771826700,0.9066053,3.8818373419374224,-10.108267971253394,0.8363946369748562,-2.1241683959960938,-3.032102108001709,-1.2267297506332395,-6.695771896117925,-7.107837616515159,0.903142506732419,100,jumping
1783087541781789700,0.9165683,2.9564626181960105,-12.189819394010303,-0.9352607424616812,-2.2167251110076904,-3.3545596599578857,-1.410182237625122,-6.569761836183071,-7.216980128279328,0.9611476825859396,100,jumping
1783087541791752700,0.9265313,1.285994334539771,-16.3665427685976,-1.846494128125906,-2.2378182411193848,-2.9883198738098145,-1.3117821216583252,-6.43906391069293,-7.327524908056855,1.0080745611947028,100,jumping
1783087541801715000,0.9364936,-1.5778905377238988,-21.007228055036062,-1.4082184461951257,-2.3567512035369877,-2.2477195262908936,-1.2622463703155518,-6.318785087886452,-7.431697230193018,1.0065909715734422,100,jumping
1783087541811678000,0.9464566,-5.0740024691790335,-24.45330491273403,-0.6638122840225696,-2.51163101196289,-1.5511125326156616,-1.4389721155166626,-6.200742061308026,-7.538767027336359,0.9424373560927808,100,jumping
1783087541821640700,0.9564193,-8.630150643923878,-27.377719364762303,-0.4490016586065292,-2.445279121398926,-1.1276037693023682,-1.8290823698043823,-6.066057696530223,-7.660075193190575,0.8346183480173349,100,jumping
1783087541831602700,0.9663813,-12.774234900712964,-30.6647337877512,-0.0048200405675917,-2.175316333770752,-0.8628290295600891,-2.441471815109253,-5.895151094770431,-7.804251024413109,0.7150006194680929,100,jumping
1783087541841566000,0.9763446,-17.44896040391922,-33.98574400384426,1.683986521399021,-2.089761734008789,-0.8179911375045776,-3.376485586166382,-5.66256691225469,-7.984310654443502,0.5970892199127004,100,jumping
1783087541851529000,0.9863076,-21.535584405386448,-35.75779926931858,3.589215747088194,-2.455453634262085,-0.8368667960166931,-4.543756484985352,-5.339030539181828,-8.212910735759138,0.4617740464180707,100,jumping
1783087541861492000,0.9962706,-24.131677588152883,-34.96916233575344,5.365138209384679,-3.095477104187012,-0.5562087297439575,-5.652475357055664,-4.911034843724965,-8.484102589088678,0.2685678249688819,100,jumping
1783087541871453700,1.0062323,-24.744485661125186,-32.29286573545932,6.997388113805651,-3.5637640953063965,-0.0312359984964132,-6.470794677734375,-4.3872614372506735,-8.770535266169905,-0.0058703807375859,100,jumping
1783087541881416700,1.0161953,-23.29501633613109,-28.84381015421152,7.21190238662362,-3.644995927810669,0.3635609149932861,-6.9240498542785645,-3.7896898041158913,-9.038594082170723,-0.3353061597131192,100,jumping
1783087541891379700,1.0261583,-20.859383764433854,-25.590087759971617,5.24491842328906,-3.385389804840088,0.6968214511871338,-6.976842403411865,-3.1507170700564977,-9.262158507406712,-0.6751354228738695,100,jumping
1783087541901342000,1.0361206,-19.16174982595444,-23.46378651038408,3.697437052354216,-3.0281178951263428,1.1172860860824585,-6.747445106506348,-2.5029314994663,-9.429101466232538,-0.998872725346312,100,jumping
1783087541911304700,1.0460833,-19.370220726954937,-22.750059564113617,3.242935627287626,-2.755047559738159,1.55335795879364,-6.46420431137085,-1.8632057550825176,-9.539788869351147,-1.3004898928821087,100,jumping
1783087541921267700,1.0560463,-21.309729823386668,-22.203300126588346,3.553087618130445,-2.63852858543396,2.003873348236084,-6.401464939117432,-1.2258435249596833,-9.599927403971552,-1.584006536386162,100,jumping
1783087541931230000,1.0660086,-23.777328728187083,-19.65825674757957,4.202488514962792,-2.598561286926269,2.526020050048828,-6.613980293273926,-0.565118247167021,-9.613103696408867,-1.8545250204987824,100,jumping
1783087541941193000,1.0759716,-25.72143684284687,-14.912808771896362,4.42707585350573,-2.51098108291626,2.995256900787353,-7.004502296447754,0.139841217818018,-9.57688087490499,-2.1057478525109588,100,jumping
1783087541951156000,1.0859346,-26.518395030033588,-9.210636994484066,2.889720739787817,-2.114610195159912,3.3764374256134038,-7.404956817626953,0.8956498859547078,-9.488228193461897,-2.311221471391618,100,jumping
1783087541961119000,1.0958976,-26.226370232033727,-3.973555840691924,0.6799179079100489,-1.3073691129684448,3.739814758300781,-7.5737810134887695,1.6849055359400809,-9.350625895410776,-2.4284333078429103,100,jumping
1783087541971080700,1.1058593,-25.12774731184244,-0.0427343953549861,-0.9748198687814176,-0.1640794426202774,3.9952802658081055,-7.466964721679687,2.474409753859043,-9.176288150158523,-2.4173146785877644,100,jumping
1783087541981043700,1.1158223,-23.427805680942534,3.665402330189943,-1.9707270953856408,1.0669424533843994,3.979048252105713,-7.200851917266846,3.232415694577992,-8.977985591951011,-2.2622208552487195,100,jumping
1783087541991007000,1.1257856,-21.28521731342077,7.396578570538759,-2.969364477606117,2.116337776184082,3.7163121700286874,-6.824203968048096,3.934587812133133,-8.761272347784042,-1.9822931761473417,100,jumping
1783087542000969000,1.1357476,-19.43993431465029,10.850806001466513,-3.245772312018275,2.8233814239501958,3.325736284255981,-6.356653213500977,4.566555343605578,-8.526334880140423,-1.6181978520624338,100,jumping
1783087542010931700,1.1457103,-17.781536992537973,13.167415887898208,-2.8475083224803206,3.14714789390564,2.880876064300537,-5.72117280960083,5.116808760726451,-8.276959721821546,-1.2167987063039094,100,jumping
1783087542020894700,1.1556733,-16.261853729110957,14.156908571285008,-2.4936498763799664,3.1836202144622803,2.6647517681121826,-4.943641185760498,5.579374249783158,-8.023861159065365,-0.8115454424005001,100,jumping
1783087542030857000,1.1656356,-14.931882890200614,14.44178349753022,-1.7801643376499414,2.9247541427612305,2.54925274848938,-3.837887763977051,5.942703119540214,-7.789642653346061,-0.4196582213528454,100,jumping
1783087542040820000,1.1755986,-13.687142357069254,13.91271753760576,-0.8231447678446769,2.322767496109009,2.535184621810913,-2.479872465133667,6.191643978095054,-7.604594713509083,-0.0637572137413313,100,jumping
1783087542050783000,1.1855616,-12.48311961877346,13.789417321151497,-0.6513304035902023,1.405760645866394,2.691855192184448,-1.0406748056411743,6.321492008757591,-7.493415142959356,0.2405756744599901,100,jumping
1783087542060745700,1.1955243,-11.441207012319564,14.653959098267554,-0.5401976678568869,0.3396566808223724,2.7832555770874023,0.2982249855995178,6.338264279860257,-7.467762230786681,0.4788462137827649,100,jumping
1783087542070707700,1.2054863,-10.50725676793456,16.429928322315217,-0.9986101288873702,-0.5451729893684387,2.8131887912750244,1.4457546472549438,6.256351135805249,-7.524095527905225,0.6453153810843825,100,jumping
1783087542080670700,1.2154493,-9.77160557462573,18.008380585575104,-1.2547662525832652,-1.1262438297271729,2.7938461303710938,2.442251205444336,6.088575233286619,-7.650615290927886,0.7534806453142314,100,jumping
1783087542090634000,1.2254126,-8.805019135051966,19.356386262869837,-1.4742437007665634,-1.3781838417053225,2.6560075283050537,3.2845778465271,5.845336385765672,-7.831596127456426,0.8176340415991842,100,jumping
1783087542100595700,1.2353743,-7.473170811831951,20.59571529234648,-2.188163685391098,-1.3382010459899902,2.45556378364563,3.979657411575317,5.535961224514246,-8.04949887366891,0.8538448804043233,100,jumping
1783087542110558700,1.2453373,-6.168119894644618,21.461544186663627,-2.643586755347252,-1.0979050397872925,2.294853448867798,4.552594661712647,5.167492069259286,-8.28804751754701,0.880706145453453,100,jumping
1783087542120521700,1.2553003,-5.158145564243197,21.84985844459533,-2.3520775056540963,-0.8114508986473083,2.1439969539642334,4.972884178161621,4.7475399795264,-8.532410400661826,0.910618395571038,100,jumping
1783087542130484000,1.2652626,-4.192845365087687,22.18115142314434,-1.9333084882259368,-0.5434525012969971,1.9308624267578125,5.209551811218262,4.289062052044272,-8.768235757055878,0.9446527671199292,100,jumping
1783087542140447000,1.2752256,-3.215180774399638,22.4593698141098,-1.7963957798741756,-0.2896447479724884,1.6190484762191772,5.344218254089356,3.804753809995949,-8.985254121649264,0.9795241009496152,100,jumping
1783087542150410000,1.2851886,-2.373020632700622,22.15603101041317,-1.6541303123176097,0.0131004601716995,1.2317506074905396,5.4478044509887695,3.301970876841247,-9.177811414203047,1.017421577667445,100,jumping
1783087542160371700,1.2951503,-1.720618800486624,21.227171951687332,-1.5048013361155983,0.3694900274276733,0.8420430421829224,5.532028675079346,2.7845418709576126,-9.34235491067171,1.0663625725775956,100,jumping
1783087542170334700,1.3051133,-1.2009649581603703,19.99109052582979,-1.1270246926806866,0.6968966722488403,0.5493783950805664,5.564907550811768,2.256359269738942,-9.47590764107108,1.1342072245959192,100,jumping
1783087542180297700,1.3150763,-0.8327429095342754,18.90612437506914,-0.3933433381401002,0.9224995970726012,0.3512819409370422,5.521213054656982,1.7245833202034233,-9.576370002773404,1.220390447185561,100,jumping
1783087542190261000,1.3250396,-0.4617383175175636,17.948752338564393,0.3243136410556733,1.0643202066421509,0.2850973308086395,5.423604965209961,1.196159530640021,-9.643414663520456,1.3206529754668472,100,jumping
1783087542200222700,1.3350013,-0.0857264187328517,16.68040998057127,0.9318620399340988,1.104743242263794,0.1820501834154129,5.2664971351623535,0.677992054414004,-9.678415249752998,1.4279220945745703,100,jumping
1783087542210185700,1.3449643,0.5416814766738564,15.35991190340519,1.180528465461731,1.0618168115615845,-0.1173711493611335,5.083856582641602,0.1777760491378605,-9.684456283482907,1.5330005717702209,100,jumping
1783087542220148700,1.3549273,1.0980976542081684,14.110492857068776,1.1725121861360968,0.9656797647476196,-0.5293340682983398,4.83530330657959,-0.295591075646691,-9.665507837384938,1.6312471571192144,100,jumping
1783087542230111000,1.3648896,1.4900675851032137,13.218555708026884,1.44613068209067,0.8026801943778992,-0.9586026072502136,4.527151107788086,-0.7333501498248428,-9.62665525189936,1.7205001425430178,100,jumping
1783087542240074000,1.3748526,1.94067843247205,12.485773348152636,1.6665164772905408,0.6362780332565308,-1.2640457153320312,4.169564723968506,-1.129941968366876,-9.573677110427615,1.7995390463359653,100,jumping
1783087542250036700,1.3848153,2.46595727507323,11.83846445516348,1.775218990202248,0.5517170429229736,-1.3785480260849,3.779115915298462,-1.4835866986513138,-9.511151972931623,1.872796151857078,100,jumping
1783087542259998700,1.3947773,3.1310084532409905,11.042919641906025,1.8535098521068687,0.6003451943397522,-1.5050534009933472,3.400918960571289,-1.795044219134748,-9.44179845072031,1.949530578099936,100,jumping
1783087542269961700,1.4047403,4.15085009766221,10.341505064719914,1.1115149888597429,0.8647856712341309,-1.780718207359314,3.114760637283325,-2.0668468978390098,-9.364969478061797,2.048381705213338,100,jumping
1783087542279925000,1.4147036,5.121800577664375,9.154218357169627,0.2797463311851024,1.2967015504837036,-2.0778634548187256,2.977492094039917,-2.3081645680390297,-9.276023366630076,2.190470939420164,100,jumping
1783087542289886700,1.4246653,6.038657063907385,6.990513551861048,0.1112659336589276,1.6569105386734009,-2.391167640686035,2.9927854537963867,-2.5308517720490693,-9.170283941307664,2.381397562032193,100,jumping
1783087542299849700,1.4346283,6.8511383989185095,4.182213204175234,0.6141361067056655,1.6784605979919434,-2.667157888412476,3.124762773513794,-2.7450825517505404,-9.047979165631531,2.601725051173568,100,jumping
1783087542309813200,1.4445918,7.282432551398873,1.0195306787759064,1.9664988101661205,1.298621654510498,-2.840501546859741,3.258403778076172,-2.9567087019115683,-8.916355357468127,2.8154703854456544,100,jumping
1783087542319775200,1.4545538,7.143604510945082,-2.780116455730796,4.166234421537816,0.5489017963409424,-3.063030481338501,3.316100597381592,-3.1615979450330136,-8.788665381622314,2.9889868774428963,100,jumping
1783087542329738200,1.4645168,6.740017865079641,-6.844616888195276,6.2137739768385885,-0.5163171291351318,-3.4579780101776123,3.346177101135254,-3.3525217911660667,-8.679687120509147,3.097426501634717,100,jumping
1783087542339701200,1.4744798,6.150588329607248,-10.979518890619277,7.874863606774807,-1.6436089277267456,-3.789485454559326,3.360093832015991,-3.528638236528635,-8.598316412767767,3.128588532617688,100,jumping
1783087542349664300,1.4844429,4.675521329759061,-15.127393771862982,10.099776037240028,-2.592049360275269,-4.109857559204102,3.2081868648529053,-3.6883629345387217,-8.545874862390756,3.0877871511518955,100,jumping
1783087542359626000,1.4944046,2.78556332295984,-18.062932844495773,12.28207214577198,-3.247204542160034,-4.714528560638428,2.858361005783081,-3.81342285414189,-8.521383395212888,3.002360738278925,100,jumping
1783087542369589000,1.5043676,-0.298057648423314,-19.93334911547899,12.877905703067778,-3.3877627849578857,-4.968338966369629,2.3240301609039307,-3.8902988808125256,-8.520240070396662,2.905420120961964,100,jumping
1783087542379552000,1.5143306,-3.5802439206033942,-23.97544657747745,14.216667751199006,-3.142451047897339,-4.638906478881836,1.877920746803284,-3.929917774495482,-8.532276545149088,2.815382999423146,100,jumping
1783087542389514200,1.5242928,-5.944793954339623,-30.89489045085907,16.07293976149559,-2.7894842624664307,-3.971393585205078,1.3638440370559692,-3.950442091608047,-8.549882928988337,2.732017610733211,100,jumping
1783087542399477200,1.5342558,-8.48143132405281,-36.0887111395955,19.17921534001827,-2.6487202644348145,-3.965178966522217,0.6831034421920776,-3.9331037110552183,-8.581706638750433,2.6562024912923574,100,jumping
1783087542409440300,1.5442189,-12.098464467871189,-37.75614166299105,21.267066739702223,-3.170323610305786,-4.359345436096191,-0.2126667201519012,-3.8469188810303807,-8.646179403182863,2.5720000672563907,100,jumping
1783087542419402200,1.5541808,-15.502363395053148,-35.74175531249046,23.05276240799427,-4.199343204498291,-4.51752233505249,-1.534202218055725,-3.66187444832474,-8.7691470266819,2.4213921571597457,100,jumping
1783087542429365200,1.5641438,-17.369198884940147,-30.251338864576816,23.763134198617934,-5.059143543243408,-4.195347309112549,-3.086287498474121,-3.3577035777181385,-8.956555850431323,2.162477747731656,100,jumping
1783087542439328300,1.5741069,-16.874122872900962,-25.5798983743906,21.5052711001873,-5.178615093231201,-3.7028071880340576,-4.596037864685059,-2.931311810326576,-9.179719878172872,1.8194900936052203,100,jumping
1783087542449291300,1.5840699,-14.677622882449626,-22.26071186659336,16.73158253392577,-4.459400653839111,-3.3259072303771973,-5.967402935028076,-2.383756692378968,-9.399462699294087,1.4622554490700364,100,jumping
1783087542459253000,1.5940316,-12.15629355650544,-19.75432876536846,11.294670881706477,-3.067228317260742,-3.046339273452759,-7.065606594085693,-1.723491871704906,-9.582872224274276,1.1698421632092446,100,jumping
1783087542469216000,1.6039946,-11.03669565282464,-18.20382249365449,7.686174095565081,-1.4577633142471311,-2.849679708480835,-7.751113891601562,-0.9771087103709578,-9.707181910032034,0.9931067091654986,100,jumping
1783087542479179300,1.6139579,-11.37750581678152,-16.76272702925205,6.569026507645845,-0.2045772522687912,-2.7452621459960938,-8.052148818969727,-0.1818489976651966,-9.760538237166404,0.9323062035050242,100,jumping
1783087542489141200,1.6239198,-13.058601292914153,-15.397148285865782,7.140796467787027,0.3235481083393097,-2.605531692504883,-8.143983840942383,0.6310491014532744,-9.741370595359802,0.9369407314378768,100,jumping
1783087542499104300,1.6338829,-15.106016637313363,-13.27591601010561,8.965956715983152,0.1058599799871444,-2.372804880142212,-8.014275550842285,1.43736942961663,-9.655448215663432,0.9363113474931568,100,jumping
1783087542509067000,1.6438456,-16.53229096468091,-10.192466011375188,9.861242006409167,-0.6082959771156311,-2.1392040252685547,-7.516553401947021,2.2023954782307147,-9.516153142219782,0.8733111398313194,100,jumping
1783087542519029200,1.6538078,-16.884435008078814,-7.159998596385121,8.412596857279539,-1.384423017501831,-1.7978317737579346,-6.594949722290039,2.8835929045572875,-9.344729823109509,0.728913774812594,100,jumping
1783087542528992300,1.6637709,-16.91358862184882,-4.407686677902936,5.433176557344198,-1.9108480215072632,-1.179748296737671,-5.42863655090332,3.448299209922552,-9.165193340170385,0.5280865934982896,100,jumping
1783087542538955300,1.6737339,-16.826484338891504,-2.2937287770599126,2.3580361217975616,-2.08579421043396,-0.6158773303031921,-4.290112495422363,3.890912336535752,-8.996278204488753,0.3132943074565381,100,jumping
1783087542548917000,1.6836956,-16.958045018690825,0.8814443966001272,-1.0570037926018236,-1.9769916534423828,-0.239550843834877,-3.374802589416504,4.231068420498072,-8.846206300964951,0.1144364808532875,100,jumping
1783087542558880000,1.6936586,-17.342940992611645,4.461360400423407,-4.117031999212503,-1.747379183769226,0.2084537744522094,-2.6951024532318115,4.495505246609449,-8.715407837709783,-0.0499265992808621,100,jumping
1783087542568843000,1.7036216,-16.95971090607643,7.722147910743951,-6.087604342427849,-1.47645103931427,0.6700602769851685,-2.159664392471313,4.704988539522886,-8.602614986744523,-0.1687436333059333,100,jumping
1783087542578805200,1.7135838,-15.247518865412474,10.384302588438986,-7.967743550524115,-1.1279218196868896,1.044039249420166,-1.5770866870880127,4.866859017390013,-8.510390876555443,-0.2394303951486945,100,jumping
1783087542588768300,1.7235469,-13.179323767834902,11.854005723166464,-9.745597273144126,-0.6553817391395569,1.5373610258102417,-0.861779510974884,4.973797297108173,-8.44795575543046,-0.2525885674074292,100,jumping
1783087542598731300,1.7335099,-11.167136388683318,12.48401510630846,-10.108017795884608,-0.0920780748128891,1.8834795951843264,0.0164854750037193,5.0138878999561065,-8.425693654739856,-0.1975240663819946,100,jumping
1783087542608694000,1.7434726,-8.927835951903463,12.664337771189212,-9.61468249003291,0.3234866559505462,1.91239070892334,0.9242249727249146,4.976505387023091,-8.449644439169765,-0.0911116097693797,100,jumping
1783087542618656300,1.7534349,-6.87245357414782,12.949232571178674,-8.997852906459569,0.5024248361587524,1.811812281608581,1.7348231077194214,4.863719258059561,-8.515471540820599,0.0372532879296224,100,jumping
1783087542628619300,1.7633979,-5.217251833206415,13.640889139938354,-7.35295336382389,0.4291445016860962,1.7049446105957031,2.4407026767730717,4.683045587784052,-8.614711082729697,0.1619681843542493,100,jumping
1783087542638582300,1.7733609,-3.990271120910346,13.988296217942237,-5.442326663005352,0.1656351536512375,1.6260861158370972,3.042492151260376,4.441877116796374,-8.739009078049659,0.2642669859698042,100,jumping
1783087542648544000,1.7833226,-2.859812800519168,14.24312438097,-3.914923034459352,-0.1808410435914993,1.616612434387207,3.561373233795166,4.1466961928531525,-8.880562744075059,0.3330479324575513,100,jumping
1783087542658507000,1.7932856,-1.670282697956264,14.421557871103284,-2.575335641419888,-0.4796052575111389,1.577654480934143,4.003722667694092,3.803068048866093,-9.031761605802178,0.3665347531262785,100,jumping
1783087542668470300,1.8032489,-0.5942512565404177,14.618742823457715,-1.8287012818038464,-0.640927791595459,1.4470700025558472,4.396859645843506,3.4158173285126683,-9.185100986689328,0.3694350776776671,100,jumping
1783087542678432300,1.8132109,0.3578235503390431,14.587735106253623,-1.551664794099331,-0.6657067537307739,1.265371322631836,4.753110408782959,2.9886721124053,-9.333510509958865,0.3518705236861482,100,jumping
1783087542688395300,1.8231739,1.041245959238708,14.42751999437809,-1.1479191582798958,-0.6107622981071472,1.0517350435256958,5.078538417816162,2.5238696580767632,-9.470774369835851,0.3238646917117759,100,jumping
1783087542698358000,1.8331366,1.5878591201610863,14.179738827252388,-0.8089151669621467,-0.5650343894958496,0.7998753190040588,5.307887554168701,2.0270861114673315,-9.590502573022246,0.2890745150932111,100,jumping
1783087542708320300,1.8430989,2.2126136515147983,14.08678464922309,-0.5940051728248595,-0.5530698299407959,0.5827674865722656,5.410358428955078,1.509920724955946,-9.68654127306342,0.2478929386707954,100,jumping
1783087542718283300,1.8530619,2.829604124738276,14.144493326348066,-0.3459703231990337,-0.5985490083694458,0.4167383909225464,5.429388523101807,0.9836109318718314,-9.75517349526286,0.198727505621314,100,jumping
1783087542728246300,1.8630249,3.479042430971562,13.886491209459304,-0.1534849085713736,-0.6755928993225098,0.2773275077342987,5.410426139831543,0.4549302084052935,-9.79510160102546,0.1394193208778276,100,jumping
1783087542738208000,1.8729866,4.098295734560489,13.451610430663823,-0.1238590193808078,-0.7221548557281494,0.1727093458175659,5.32663631439209,-0.0702008962882682,-9.806139127868413,0.071336375724757,100,jumping
1783087542748171000,1.8829496,4.700751924866438,12.998081065499782,-0.1503133110642433,-0.6890531182289124,0.0970798358321189,5.133201599121094,-0.5813783309638499,-9.789401928079128,0.0012748238323918,100,jumping
1783087542758134000,1.8929126,5.223668714511394,12.60779579975605,-0.1675029307961464,-0.5723206400871277,-0.0202511101961135,4.834363460540772,-1.067184775680676,-9.748220607385038,-0.0606943692717235,100,jumping
1783087542768097300,1.9028759,5.661118467012048,12.179939805030822,-0.26212650334239,-0.4162361919879913,-0.2580881714820862,4.42015266418457,-1.516007497523725,-9.688173842701316,-0.1067303543222136,100,jumping
1783087542778059300,1.9128379,6.115611124250292,11.792034712421891,-0.5439315206229687,-0.2465854436159134,-0.5533570051193237,3.912872314453125,-1.917528150770068,-9.616452422314882,-0.1315325588165316,100,jumping
1783087542788022300,1.9228009,6.376874288761615,11.35980415587425,-0.5909001925468444,-0.0890104696154594,-0.7570294141769409,3.3795745372772217,-2.266478951084613,-9.540210309633611,-0.1336448473959229,100,jumping
1783087542797985000,1.9327636,6.561847409796714,10.704897647362946,-0.2242085683584213,0.0676092728972435,-0.7805587649345398,2.8652126789093018,-2.5627821570560334,-9.465150100213288,-0.1160673517244402,100,jumping
1783087542807947300,1.9427259,6.850964211395382,9.861411517757176,0.2108580883979797,0.2792813181877136,-0.7072880268096924,2.384735107421875,-2.809851084259152,-9.395140159919858,-0.080374253183091,100,jumping
1783087542817910300,1.9526889,7.422604992198944,8.893530946719645,0.1920236240684986,0.6035833954811096,-0.7325448393821716,1.9537721872329712,-3.012636048577725,-9.332419207590815,-0.0194913710353663,100,jumping
1783087542827873300,1.9626519,7.923928958716988,7.496412571209668,-0.2857552162110805,1.1807482242584229,-0.9780007004737854,1.3431519269943235,-3.16679989759028,-9.280841580566763,0.0880834484540857,100,jumping
1783087542837835000,1.9726136,8.386181144040822,5.33268555406928,-0.660574032753706,1.5722275972366333,-1.7763267755508425,0.8713502883911133,-3.2642356049478054,-9.243764772582054,0.2607421180455945,100,jumping
1783087542847798000,1.9825766,8.42969646064043,4.5458442717492575,-1.8661141898751257,2.0406715869903564,-2.055938959121704,0.7442355155944824,-3.329299028749764,-9.21124548177123,0.4889988475499674,100,jumping
1783087542857761000,1.9925396,7.489999197036028,1.4464707276999949,-0.0064706573188304,2.4651896953582764,-2.027392625808716,0.5060778856277466,-3.3755636440575123,-9.17555165257752,0.7649830862551927,100,jumping
1783087542867723300,2.0025019,5.989248597615957,0.4312351157695054,0.7193534809153527,2.5494446754455566,-2.1471333503723145,0.0086696930229663,-3.380765304353833,-9.14358473495245,1.0656731290087105,100,jumping
1783087542877686300,2.0124649,4.759486730168759,-0.3863140240252017,-0.5343675734639167,2.17460036277771,-2.2999608516693115,-0.4396620392799377,-3.333440366338193,-9.122108231681583,1.3585714949727057,100,jumping
1783087542887649000,2.0224276,3.788046713083982,-1.4930664746582507,-0.4404208772659301,1.4878491163253784,-2.102114677429199,-0.57965087890625,-3.251146990793943,-9.112947604626417,1.5983170935504138,100,jumping
1783087542897611300,2.0323899,3.2863118276774883,-4.720580660930276,1.2018472939528524,0.7090229392051697,-1.580508828163147,-0.2974714636802673,-3.1788720281779765,-9.108927847591042,1.7585827665694056,100,jumping
1783087542907574300,2.0423529,2.932593959091604,-8.045664994594455,3.509422663927078,-0.4745828211307525,-1.5592788457870483,0.0768589898943901,-3.1423855873018502,-9.109537503921985,1.819921032368392,100,jumping
1783087542917537300,2.0523159,2.937830106179416,-8.773425726914406,2.858081738942861,-1.979981064796448,-1.8932838439941408,0.1194861158728599,-3.1227821844264865,-9.127421535658836,1.7631762318395077,100,jumping
1783087542927499000,2.0622776,2.731260947147012,-7.02471217406094,1.8986952938757835,-3.4475131034851074,-2.1558079719543457,-0.1138842925429344,-3.0897923534944653,-9.17251038518548,1.5775357329368591,100,jumping
1783087542937462000,2.0722406,2.444236149391532,-5.895324113249778,0.9856536897458136,-4.517942428588867,-2.275238275527954,-0.4295583367347717,-3.033509325258433,-9.237827783748507,1.2770163705751298,100,jumping
1783087542947425000,2.0822036,2.402449264019728,-6.636009209072589,-1.267866557174921,-4.868393421173096,-2.045007944107056,-0.7911157608032227,-2.9529660082519054,-9.307727833926675,0.903648118166998,100,jumping
1783087542957387300,2.0921659,2.7317785412803293,-8.582243814367056,-3.6310067241132256,-4.404380798339844,-1.6360132694244385,-1.0044331550598145,-2.854930581435561,-9.367386476075648,0.521387534251064,100,jumping
1783087542967350300,2.1021289,2.633785492300987,-11.151239731371405,-5.478482849013805,-3.348856210708618,-1.4038130044937134,-1.0351383686065674,-2.75319630010128,-9.410164126050471,0.1977712460760958,100,jumping
1783087542977313000,2.1120916,1.7568574040815232,-12.991747186303138,-6.531396157431602,-1.8809043169021609,-1.396109938621521,-0.9241434931755066,-2.659171862491965,-9.439228892493247,-0.0119568918688164,100,jumping
1783087542987275000,2.1220536,-0.2643070622518658,-15.311366191422938,-5.292303274798393,-0.3827933669090271,-1.5314429998397827,-0.6784383654594421,-2.5838950877115128,-9.45979237257242,-0.07878904808457,100,jumping
1783087542997238300,2.1320169,-2.421139351442456,-20.31655231400728,-3.496101410061121,0.6595354676246643,-1.548330307006836,-0.4258053600788116,-2.5333617090433838,-9.473751339820026,-0.0227763201233232,100,jumping
1783087543007201300,2.1419799,-5.284808535128832,-26.890125232911107,-0.6448983247160911,1.1286001205444336,-1.220023274421692,-0.4002968072891235,-2.4958982398286462,-9.483184354075789,0.100516987099545,100,jumping
1783087543017164300,2.1519429,-10.725920561647415,-31.434810982275007,5.414897388809919,0.9320279955863952,-0.8691699504852295,-0.7306475639343262,-2.442786388974637,-9.494813417071104,0.2273384090830572,100,jumping
1783087543027126000,2.1619046,-16.059598633885383,-33.9556411265254,11.302374880212543,0.0957807749509811,-0.8290694355964661,-1.4305609464645386,-2.3404401132218537,-9.518573062843084,0.2991776288965717,100,jumping
1783087543037089000,2.1718676,-19.824015465056892,-33.88572529425621,15.253246010887622,-1.1768622398376465,-0.81596440076828,-2.3973584175109863,-2.156851870673895,-9.562751811787486,0.2686621704551391,100,jumping
1783087543047052000,2.1818306,-21.12245836228132,-30.723597480130195,18.20036563119888,-2.553231000900269,-0.5626447796821594,-3.3489015102386475,-1.8798352567136287,-9.624239422929286,0.1031569345485419,100,jumping
1783087543057014300,2.1917929,-19.772299306344983,-26.517836227107047,18.55599225601554,-3.480867624282837,-0.2611490488052368,-4.044625759124756,-1.522928236697614,-9.685936877429484,-0.1836375798487104,100,jumping
1783087543066977300,2.2017559,-17.34091971591711,-22.832290103554723,16.014139197480677,-3.6303999423980713,0.2795248627662658,-4.528791427612305,-1.1067037891857323,-9.729452194029092,-0.5323341679401695,100,jumping
1783087543076940000,2.2117186,-14.020075504040715,-20.08968066391945,12.311447877860068,-3.058286190032959,0.7583756446838379,-4.746769905090332,-0.6512929211240261,-9.74671078734398,-0.864769740653038,100,jumping
1783087543086902000,2.2216806,-11.008313607949018,-18.30085897256136,7.834980509197711,-2.0712058544158936,1.0318734645843506,-4.709476470947266,-0.1815861637442372,-9.7409286968112,-1.1187957204524428,100,jumping
1783087543096865300,2.2316439,-9.275298559486863,-16.37079808795452,4.058618973210454,-1.0043882131576538,1.3610029220581057,-4.396486759185791,0.2756440834980458,-9.72061363853514,-1.2665310707874595,100,jumping
1783087543106828300,2.2416069,-9.430732282304763,-13.66833127361536,3.153311470463872,-0.1942988783121109,1.7855204343795776,-3.9615516662597656,0.6999767264027148,-9.692941787755489,-1.3142653202563523,100,jumping
1783087543116790000,2.2515686,-10.44308094062209,-10.214494303309916,3.5468501850456,0.2226218283176422,2.183053970336914,-3.597923755645752,1.0899831021398303,-9.659773677647111,-1.2927093220084904,100,jumping
1783087543126753000,2.2615316,-11.249295616453884,-6.217386906638741,3.4295682059675454,0.3147459030151367,2.388671875,-3.221411943435669,1.44668524723351,-9.62025649077296,-1.236179917795956,100,jumping
1783087543136716000,2.2714946,-11.608847890281677,-2.457113751143217,2.349463523763418,0.2483680993318557,2.3898489475250244,-2.8184704780578613,1.7643392842695116,-9.575396189305186,-1.1701697146631778,100,jumping
1783087543146678300,2.2814569,-11.120326706713437,0.7065443412899971,0.3365180197209119,0.1231457293033599,2.346413373947144,-2.3345797061920166,2.0370245910272,-9.528578908550738,-1.1077500833682716,100,jumping
1783087543156641300,2.2914199,-9.782689863219856,3.5135505575120445,-2.031505827605724,0.0522179715335369,2.468780279159546,-1.7497557401657104,2.256516798388213,-9.485736961168053,-1.0484849705815316,100,jumping
1783087543166604000,2.3013826,-8.0385496096313,5.800303065818548,-3.741274440515041,0.1014475673437118,2.6405727863311768,-1.1065101623535156,2.417412878265232,-9.453107195720076,-0.982485508038476,100,jumping
1783087543176566000,2.3113446,-6.094199502909183,7.882886754232644,-5.3328007048815484,0.3037854135036468,2.7171008586883545,-0.4801275432109833,2.5168136020854117,-9.435526530843973,-0.8982587532788514,100,jumping
1783087543186529300,2.3213079,-4.692153607869148,10.118342790544032,-6.401219040945172,0.6253431439399719,2.625488519668579,0.0427875891327858,2.5592194961383936,-9.434050613072516,-0.787072241531685,100,jumping
1783087543196492300,2.3312709,-3.86499288238138,12.236222248744964,-7.056348252296448,1.017521619796753,2.415412187576294,0.4912501871585846,2.5516236341819165,-9.446827092537283,-0.6457984153609723,100,jumping
1783087543206454300,2.3412329,-3.608363222889602,13.852117815214395,-6.644279024767875,1.3694111108779907,2.2634191513061523,0.9046167731285096,2.4990999584794045,-9.471029221379755,-0.4738322946108877,100,jumping
1783087543216417000,2.3511956,-3.643496787852049,14.981665450501442,-4.94735703395009,1.525166392326355,2.116023302078247,1.3614624738693235,2.400307868076861,-9.504182133919,-0.2818787583702243,100,jumping
1783087543226380000,2.3611586,-4.035894515705109,15.44103886551857,-2.8539094216942784,1.404937982559204,1.9469707012176516,1.7905677556991575,2.253860146399587,-9.543673017308116,-0.0939513632399495,100,jumping
1783087543236343000,2.3711216,-4.159078704564273,16.12113125321269,-0.967758990484476,1.0543466806411743,1.6477365493774414,2.1340277194976807,2.0647508023425933,-9.586606150105595,0.0645469758795341,100,jumping
1783087543246305300,2.3810839,-3.724243810737133,16.981090378713606,0.3232172241210937,0.504460334777832,1.2562161684036257,2.363723993301392,1.8468902878366409,-9.629693596681951,0.1684918870345689,100,jumping
1783087543256268300,2.3910469,-3.2067648282319308,17.68999034321904,1.2529951512575148,-0.1381739228963852,0.9730793833732604,2.525876045227051,1.6093829697050153,-9.67150912362635,0.2053730993819423,100,jumping
1783087543266231000,2.4010096,-2.7178280496001244,18.52647039345503,2.3131214597940444,-0.7239692211151123,0.8050000667572021,2.69320011138916,1.3558265801787377,-9.710870827677846,0.176399627951812,100,jumping
1783087543276193000,2.4109716,-1.973667094360292,18.74995415467024,2.8145219986796377,-1.168242335319519,0.6190899014472961,2.899868965148926,1.0840713208127766,-9.74610989884138,0.0923378270960878,100,jumping
1783087543286156300,2.4209349,-0.8787333110105245,18.620539839249847,2.5119454115271567,-1.410321831703186,0.3608176112174988,3.096241950988769,0.7920932114988565,-9.774562086343764,-0.0297570184566779,100,jumping
1783087543296119300,2.4308979,0.4965130956375971,18.65680708441734,1.6254297030121088,-1.405778408050537,0.1209091022610664,3.2464730739593506,0.4830146220412105,-9.793324069958924,-0.1670614889052696,100,jumping
1783087543306080300,2.4408589,1.8351963429115712,18.310650883257388,0.8939911589622497,-1.1802997589111328,-0.0751078054308891,3.3409457206726074,0.1608195988410152,-9.800911748608948,-0.2943935181588866,100,jumping
1783087543316043300,2.4508219,2.8088787320956587,17.62876752049327,0.3728436805447563,-0.7799825072288513,-0.2520432472229004,3.2777745723724365,-0.1638843384401872,-9.797484696769711,-0.3909497575344517,100,jumping
1783087543326006500,2.4607851,3.4012148026645184,17.00863071206808,-0.0608241422643884,-0.270358145236969,-0.4168457686901092,3.0604679584503174,-0.4753506632845848,-9.785172912207246,-0.4413599116817116,100,jumping
1783087543335968500,2.4707471,3.740236621899903,16.221623425531387,-0.1406441134324297,0.2587846517562866,-0.6678410172462463,2.730948209762573,-0.7602035238284617,-9.767304078039526,-0.4384534496504813,100,jumping
1783087543345931500,2.4807101,4.231821576952934,15.218125597667694,-0.1939396502902731,0.6864960789680481,-0.9695904850959778,2.371209621429444,-1.0114704872433096,-9.746775669273733,-0.3842599045069888,100,jumping
1783087543355894500,2.4906731,4.854682841905952,14.211186104917523,-0.162288995540142,0.949721336364746,-1.2407386302947998,2.0881872177124023,-1.23075950018242,-9.724750884470344,-0.2912624718578532,100,jumping
1783087543365856500,2.5006351,5.336212559151649,13.186802140891553,0.2027723970979452,1.0436186790466309,-1.4079707860946655,1.9307671785354612,-1.427827986550331,-9.700545248496532,-0.1764359413742087,100,jumping
1783087543375819500,2.5105981,5.59214546855092,12.04112988475561,0.6777396870881318,1.0267778635025024,-1.4763888120651243,1.8327727317810056,-1.611037020522356,-9.67326385833919,-0.0540499491214519,100,jumping
1783087543385782500,2.5205611,5.735699953004717,11.042600492954254,0.9632745385468006,0.9784334897994996,-1.5362074375152588,1.733149170875549,-1.7825737368792294,-9.643038815945388,0.0678777231708634,100,jumping
1783087543395744500,2.5305231,5.815799910157919,10.33043538917303,0.8200222519099711,0.9864574074745178,-1.600153565406799,1.5865356922149658,-1.9398865514419967,-9.610977790296078,0.190629521095287,100,jumping
1783087543405707300,2.5404859,5.777281671193242,9.714530519229172,0.5239186966964975,1.1016050577163696,-1.7314602136611938,1.3989405632019043,-2.07868931132406,-9.578361468851568,0.3231801435137167,100,jumping
1783087543415670300,2.5504489,5.704271964561939,9.098807435593008,0.1360487119335681,1.2933379411697388,-1.9068883657455444,1.1908137798309326,-2.1946721905022857,-9.546075402274727,0.4756698487689718,100,jumping
1783087543425632500,2.5604111,5.563598003980517,8.438082596191764,-0.0905319193184375,1.5459145307540894,-2.0619795322418213,1.0075563192367554,-2.2878810739450155,-9.513528054413198,0.654815761487931,100,jumping
1783087543435595500,2.5703741,5.319805614230036,7.5497981244385235,0.0301344415009021,1.785179853439331,-2.180383920669556,0.8448905348777771,-2.3592254777126014,-9.47952524704635,0.8620045137234031,100,jumping
1783087543445558500,2.5803371,5.30538312112391,6.609231676784157,0.3075355977993458,1.9604450464248655,-2.28792405128479,0.7319011688232422,-2.4113918644100427,-9.442619119453427,1.092025275491923,100,jumping
1783087543455520500,2.5902991,5.377802460646629,5.321971852353215,0.6415278253696859,2.0529468059539795,-2.369654893875122,0.7133687734603882,-2.4502926729515195,-9.400942708718777,1.3374290459617972,100,jumping
1783087543465483500,2.6002621,5.513323860770464,3.5238077476322647,1.1072631766341623,2.01265287399292,-2.5204832553863525,0.8082486391067505,-2.485107381223142,-9.352640742364525,1.5883090558856725,100,jumping
1783087543475446500,2.6102251,5.522160078176856,1.2516700401335954,1.696546581634134,1.798240303993225,-2.7125332355499268,0.947403848171234,-2.52207546813637,-9.298132322585582,1.8314589099489151,100,jumping
1783087543485408500,2.6201871,5.472936905324459,-1.218495500284433,2.5414906549632548,1.4068853855133057,-3.0117945671081543,1.073275804519653,-2.560240948140621,-9.241322640126944,2.052682617277652,100,jumping
1783087543495371300,2.6301499,5.16573090480566,-3.425826096829772,3.4078608165502544,0.8202463388442993,-3.341055154800415,1.1922413110733032,-2.59615368078202,-9.18817498730719,2.237816043440997,100,jumping
1783087543505334300,2.6401129,4.476804637792706,-5.447946840974688,4.085536498491466,0.0791253820061683,-3.374706029891968,1.266171097755432,-2.6307255202084776,-9.145759156382084,2.367435672175139,100,jumping
1783087543515296500,2.6500751,3.631431671527028,-7.636339512816071,5.310868859058618,-0.6344645619392395,-3.0741500854492188,1.3525923490524292,-2.6722543391659856,-9.118133482831716,2.426741701494157,100,jumping
1783087543525259500,2.6600381,2.6940353783413764,-9.784944364148378,6.5690428742587565,-1.0359785556793213,-2.7758259773254395,1.4015196561813354,-2.7274048562407494,-9.101716601037978,2.4270208106964826,100,jumping
1783087543535222500,2.6700011,1.5630094871953129,-12.584227877163888,6.765908677661418,-1.012020230293274,-2.833463430404663,1.205488920211792,-2.780161463916301,-9.090779027438163,2.408073972033709,100,jumping
1783087543545184300,2.6799629,1.2336819635003804,-16.5599096239686,5.49503533988595,-0.8013911247253418,-3.340644598007202,0.8609972596168518,-2.799938762053847,-9.083635585424304,2.4121153563790023,100,jumping
1783087543555147500,2.6899261,0.5476815208062529,-21.242631386625767,4.276517627769708,-0.8032577037811279,-3.477339744567871,0.4011111557483673,-2.7742887724906207,-9.084869511133432,2.436973464912176,100,jumping
1783087543565110500,2.6998891,-3.834686299183964,-22.024558008897305,7.785354600763321,-1.2173120975494385,-3.367567300796509,0.0298039112240076,-2.7095649559065698,-9.10305690973103,2.44192611888349,100,jumping
1783087543575072500,2.7098511,-7.2058256970584385,-22.648142327427863,11.709416050446032,-2.001913070678711,-3.1921193599700928,-0.2515137195587158,-2.619828570879996,-9.14461115539074,2.3839028228513897,100,jumping
1783087543585035500,2.7198141,-8.731365869820117,-24.94696871988773,12.753310186105963,-2.732978582382202,-2.8108878135681152,-0.5329475402832031,-2.514798755131662,-9.209460936442015,2.2432214096158742,100,jumping
1783087543594998300,2.7297769,-10.411783300560712,-25.9934452732563,13.907232384192945,-3.18538761138916,-2.465725898742676,-0.9239978194236756,-2.392407470215857,-9.290503142881391,2.033063140050322,100,jumping
1783087543604961300,2.7397399,-11.981258476638793,-25.55961312673092,13.732645048093795,-3.345742464065552,-2.3317673206329346,-1.4205303192138672,-2.238054382241517,-9.379869525551795,1.7831285942830144,100,jumping
1783087543614923500,2.7497021,-12.396106521230935,-24.869243675172328,11.708000338429212,-3.336525678634644,-2.233238697052002,-1.909124493598938,-2.043922826108336,-9.470492630285024,1.51742043306157,100,jumping
1783087543624886500,2.7596651,-12.593884178781508,-24.01540449385643,9.852318695241213,-3.1724541187286377,-2.054171562194824,-2.386562824249268,-1.8106810564666984,-9.556689735269543,1.249594256772846,100,jumping
1783087543634849500,2.7696281,-12.894231399446726,-23.55954288635254,8.055103269547224,-2.871682643890381,-1.6300116777420044,-2.85711932182312,-1.5390641095928848,-9.63426806499064,0.9912377004232256,100,jumping
1783087543644811300,2.7795899,-13.408955530285834,-23.739428328859805,6.5975663734316825,-2.5294156074523926,-1.1270010471343994,-3.347437620162964,-1.2287447993591427,-9.700386843064429,0.7503884514525532,100,jumping
1783087543654774500,2.7895531,-14.06132170666456,-23.026601546299457,5.635741449171304,-2.1666321754455566,-0.8185519576072693,-3.909175157546997,-0.8710144802615046,-9.753310624000427,0.5335179708972573,100,jumping
1783087543664737500,2.7995161,-14.070338541334866,-20.52929022480249,4.585916754418611,-1.7655045986175537,-0.7401993274688721,-4.3718695640563965,-0.4632135046366601,-9.789532860982415,0.3476350415408611,100,jumping
1783087543674699500,2.8094781,-13.544778543704748,-18.171788356012105,3.812541687393188,-1.5003539323806765,-0.8075986504554749,-4.639457702636719,-0.0201689574863878,-9.804756733599303,0.1916105497555807,100,jumping
1783087543684662300,2.8194409,-12.980919502818583,-15.260232216513156,3.5777404133498667,-1.461963176727295,-0.8449832797050476,-4.70161247253418,0.4384455220723524,-9.796734755185248,0.0464824182103155,100,jumping
1783087543694625300,2.8294039,-12.294181101238728,-11.136793857389687,3.624861645486951,-1.600125074386597,-0.8206912875175476,-4.528943061828613,0.8895512037534267,-9.765634099000692,-0.1071807832371443,100,jumping
1783087543704587500,2.8393661,-11.053245805609226,-7.135314821505546,3.1442204015135764,-1.88881516456604,-0.8285270929336548,-4.109444618225098,1.3085459196962417,-9.7147783565104,-0.2849449044751934,100,jumping
1783087543714550500,2.8493291,-9.21562705785632,-3.570697509101033,1.820447248199582,-2.1807119846343994,-0.710442066192627,-3.51616644859314,1.674191395832598,-9.650085227325558,-0.4933111212585121,100,jumping
1783087543724513500,2.8592921,-7.482057882642746,-0.0860293472021818,0.7373053902566432,-2.367810010910034,-0.5241536498069763,-2.8144242763519287,1.974196671192348,-9.5786145668298,-0.7232392363075166,100,jumping
1783087543734475300,2.8692539,-5.9451920137465,3.2777620259970424,-0.4161034514807164,-2.417364358901977,-0.3593733012676239,-2.073093175888061,2.2029048890575766,-9.507623214283583,-0.960562430043891,100,jumping
1783087543744438500,2.8792171,-4.431973270158469,6.256463364008068,-1.913964320808649,-2.3108997344970703,-0.2009069770574569,-1.353200078010559,2.361288109330833,-9.443295411279797,-1.191165814005956,100,jumping
1783087543754401500,2.8891801,-3.0763971576094624,8.778507560223341,-3.421853101545572,-1.9933713674545288,-0.0555944144725799,-0.6297019124031067,2.4528569704815744,-9.39157223830521,-1.397225781407207,100,jumping
1783087543764363500,2.8991421,-2.2102572976469994,10.396369458329676,-4.337259388980269,-1.528886318206787,0.0154222389683127,0.094748206436634,2.477210782754421,-9.359081589066982,-1.562502122195065,100,jumping
1783087543774326500,2.9091051,-1.9101698969617484,11.53819789851904,-4.535108358201384,-1.0708236694335938,-0.010277884081006,0.7298843264579773,2.438240854499489,-9.348400620576738,-1.6830824121661483,100,jumping
1783087543784289300,2.9190679,-1.9128014145091172,12.93935532028675,-4.333427847993374,-0.7183476090431213,-0.0430797711014747,1.2590893507003784,2.344505462964624,-9.357030501756071,-1.766249940196425,100,jumping
1783087543794251500,2.9290301,-1.9107209549732505,14.105662368172409,-3.598745207455754,-0.4900823831558227,0.0144928321242332,1.7250070571899414,2.204609062626958,-9.38025589452088,-1.8223259015530344,100,jumping
1783087543804214500,2.9389931,-2.0386228200040755,14.870690462613103,-2.4258272169977424,-0.3347654938697815,0.1327278614044189,2.097548723220825,2.026202898892015,-9.413256831368804,-1.8588960751898589,100,jumping
1783087543814177500,2.9489561,-2.463041679887473,15.7750790969491,-1.1930094691112636,-0.1962200701236724,0.3325396478176117,2.33599591255188,1.8212458512313665,-9.451092933288216,-1.8789004600815475,100,jumping
1783087543824139300,2.9589179,-2.843669767230749,16.684854685020447,0.0358051806136965,-0.0740358531475067,0.5535053014755249,2.451068878173828,1.602874902985245,-9.489830952483414,-1.882632924608141,100,jumping
1783087543834102300,2.9688809,-3.0407763936519623,17.457308545547722,1.0127759438186883,0.0157327782362699,0.6740309596061707,2.4840903282165527,1.380397250072658,-9.526066633468863,-1.875885788435489,100,jumping
1783087543844065500,2.9788441,-2.9308970920458437,18.078724287867544,1.4578312028869986,0.0863307788968086,0.6288706660270691,2.467026472091675,1.1570931562732905,-9.55835971430838,-1.8626009210571648,100,jumping
1783087543854027500,2.9888061,-2.635259071984887,18.469318181169037,1.5932244465865193,0.1855885237455368,0.5081202983856201,2.4368796348571777,0.933729879632592,-9.586379940134286,-1.8438672867536543,100,jumping
1783087543863990500,2.9987691,-2.166516501728445,18.55994011685848,1.756235180529952,0.3472783267498016,0.3873235583305359,2.4091222286224365,0.7102434150036424,-9.611012861609458,-1.81504275880754,100,jumping
1783087543873953300,3.0087319,-1.3268087216176092,18.348797950822117,1.8077543553650377,0.5894500613212585,0.2851413190364837,2.409013032913208,0.485546149812825,-9.633604632645843,-1.7686990869142114,100,jumping
1783087543883915500,3.0186941,-0.2438746246738359,17.705521089828014,1.522013606070727,0.8934738636016846,0.2434183806180954,2.4384913444519043,0.257192353142146,-9.655317282760144,-1.6967906195230782,100,jumping
1783087543893878500,3.0286571,0.9572667494993656,16.84680465786457,1.2967659039229154,1.2061126232147217,0.2378241568803787,2.509294986724853,0.0230091036826022,-9.676021048092842,-1.595143578080833,100,jumping
1783087543903841500,3.0386201,2.071286487721652,15.988223834979534,1.105160213005543,1.4588545560836792,0.193909153342247,2.6051242351531982,-0.2204188937518745,-9.693868254950642,-1.466535172215849,100,jumping
1783087543913803300,3.0485819,3.015194500888884,15.099230338174104,0.8329629820257425,1.6527036428451538,0.1245196089148521,2.7024245262146,-0.4746473373208195,-9.70629051415026,-1.3164419336430728,100,jumping
1783087543923766300,3.0585449,3.6184278130471705,14.23588799997568,0.7169178512662648,1.7823960781097412,0.042604774236679,2.789475679397583,-0.7394003897745162,-9.71084744680226,-1.1502681325588375,100,jumping
1783087543933729500,3.0685081,3.759209325656295,13.286922557288408,0.9128203625947237,1.7946494817733765,-0.0744777545332908,2.821345090866089,-1.0114138616852462,-9.705346511298416,-0.9765658356659114,100,jumping
1783087543943691500,3.0784701,3.666691200956702,12.507696426147222,1.2658423578709364,1.696336269378662,-0.2828344404697418,2.755156278610229,-1.2829638808026909,-9.688972299602629,-0.8051078836336731,100,jumping
1783087543953654500,3.0884331,3.493657524040341,11.893512388646602,1.581094886723161,1.5129570960998535,-0.5729987621307373,2.563803672790528,-1.5432808505050837,-9.663014851525425,-0.6440642119795084,100,jumping
1783087543963617500,3.0983961,3.2722762880623337,11.507288380992412,1.713891830319166,1.3029879331588743,-0.8532450795173645,2.2646729946136475,-1.7797906820319591,-9.630981882926822,-0.4968893085388466,100,jumping
1783087543973579500,3.1083581,3.1665371550008654,11.21204286738038,1.8486387389391656,1.1449376344680786,-1.0258240699768066,1.9161317348480225,-1.984100663960725,-9.59700362547934,-0.3622884938586503,100,jumping
1783087543983542500,3.1183211,3.3597143330186605,10.618832644325494,1.996201874512434,1.0903931856155396,-1.0637630224227903,1.5784775018692017,-2.1537847381882367,-9.564335281586647,-0.2346682405144907,100,jumping
1783087543993505500,3.1282841,3.823755739846826,9.918153395676612,1.922054688283801,1.1442939043045044,-1.0088948011398315,1.317444086074829,-2.292513994442672,-9.534332942032814,-0.1060527655879035,100,jumping
1783087544003467500,3.1382461,4.605985436718165,9.144200821024178,1.59454298183918,1.278668999671936,-0.9687646627426147,1.1938611268997192,-2.411100918639451,-9.505575049582124,0.0317189570462564,100,jumping
1783087544013430300,3.1482089,5.479718528288602,8.173876948487758,1.1132616863965987,1.4747769832611084,-0.9429998993873596,1.2288490533828735,-2.5237770113572475,-9.474526415845752,0.1851438379595056,100,jumping
1783087544023393300,3.1581719,6.011639293122292,6.810033650591969,1.1190554673671722,1.6484107971191406,-0.9460300207138062,1.3584448099136353,-2.642847919678688,-9.437070837676524,0.3569698561191559,100,jumping
1783087544033355500,3.1681341,6.297523104149103,5.414015929800272,1.6141186199247837,1.6702975034713743,-1.115874171257019,1.4628183841705322,-2.7711630416855213,-9.391382853212953,0.5412611323699354,100,jumping
1783087544043318500,3.1780971,6.389234588640928,4.899243283644318,1.823182079990953,1.5488460063934326,-1.442844033241272,1.4579253196716309,-2.8999843596488235,-9.339737421649694,0.72783942357935,100,jumping
1783087544053281500,3.1880601,6.0969537700533865,4.814751229012012,2.115370690250397,1.3823940753936768,-1.8361754417419436,1.369992971420288,-3.018159488174319,-9.28592224483192,0.9125461487632244,100,jumping
1783087544063243300,3.1980219,5.678765182861685,4.3320986452162265,2.600150933724642,1.1375747919082642,-2.175577402114868,1.2711706161499023,-3.119513538019359,-9.23303061259985,1.0909593998260796,100,jumping
1783087544073206500,3.2079851,5.169233359968662,3.271131209680438,3.001137626224756,0.8104442954063416,-2.251086950302124,1.258735179901123,-3.208831405372917,-9.18196736483872,1.2511144520774482,100,jumping
1783087544083169500,3.2179481,4.622656293272972,1.3637111959487198,3.71942764262706,0.4479081928730011,-2.1012816429138184,1.3092271089553833,-3.2971672759518027,-9.13214973322451,1.3794742900088428,100,jumping
1783087544093131500,3.2279101,4.100786382332444,-0.5842623619675636,4.559982687216997,0.0498173236846923,-2.042163372039795,1.3208308219909668,-3.387912545759976,-9.084570820447802,1.470711727248132,100,jumping
1783087544103094300,3.2378729,3.877718508441746,-2.0915940933436152,4.392637577331066,-0.2614526748657226,-2.1417055130004883,1.1540075540542605,-3.469507125385105,-9.043688190439344,1.53121617257148,100,jumping
1783087544113057300,3.2478359,3.6143358675584194,-3.226540372803807,4.008004638260603,-0.3873800933361053,-2.3876664638519287,0.8114743232727051,-3.523955047148466,-9.01426569660008,1.57961341599375,100,jumping
1783087544123019500,3.2577981,3.02515095449686,-3.8334851067006586,4.021572560364008,-0.3467956483364105,-2.7742233276367188,0.3627231419086456,-3.535415475578606,-8.99958659838438,1.636674004473537,100,jumping
1783087544132982500,3.2677611,2.9022803616315125,-4.491535173934698,3.779538412457705,-0.1961615979671478,-3.18635368347168,0.0089611066505312,-3.50112975961715,-8.998144582882523,1.7163516445614395,100,jumping
1783087544142945500,3.2777241,3.4910789057239886,-6.41231911163032,3.382069372689724,0.0949602425098419,-3.513089895248413,-0.0606592483818531,-3.4373592982351777,-9.000953795084357,1.8269651056610048,100,jumping
1783087544152907300,3.2876859,3.975314667057991,-9.724957220697402,3.40199455486536,0.5193426012992859,-3.547938585281372,0.2588497102260589,-3.376914181883633,-8.99261208319664,1.974784115691483,100,jumping
1783087544162870500,3.2976491,3.392850586684048,-14.709812502914666,4.762592002707719,0.8276005387306213,-3.172703981399536,0.7918111085891724,-3.354244377174973,-8.960911123031376,2.1497671731099484,100,jumping
1783087544172833500,3.3076121,1.2390101727858185,-19.679054036414623,8.221585625123977,0.7822701930999756,-2.8192391395568848,1.2595655918121338,-3.3804739201918244,-8.907564732769131,2.3233766040876507,100,jumping
1783087544182795500,3.3175741,-1.4183210302755236,-23.69539980204105,11.451560064029692,0.4400076270103454,-2.789766311645508,1.3786855936050415,-3.4327807382732627,-8.847040413701533,2.473116791439056,100,jumping
1783087544192758500,3.3275371,-4.960231713092327,-27.397282143366336,13.91976804063916,-0.1155053898692131,-3.052187442779541,1.105078935623169,-3.4706498656794427,-8.799156380498408,2.5884017514809963,100,jumping
1783087544202721300,3.3374999,-9.227159090217947,-30.697649384403228,16.661728660976888,-0.9061627388000488,-3.5310943126678467,0.460574746131897,-3.4552266710981723,-8.784381420692801,2.6582822201758622,100,jumping
1783087544212683500,3.3474621,-13.436308816635607,-31.761995940983294,18.84690996955633,-1.885833978652954,-4.071815967559815,-0.4647337198257446,-3.3549756140589717,-8.82077024641335,2.666188755516708,100,jumping
1783087544222646500,3.3574251,-16.995138777810332,-30.59641019310951,19.555217228865622,-3.012150526046753,-4.449931144714356,-1.447292447090149,-3.1577544213473794,-8.91599646102786,2.589202546469867,100,jumping
1783087544232609500,3.3673881,-18.970809905469416,-28.73986111943721,18.912741162860392,-3.990034341812134,-4.36721658706665,-2.237689018249512,-2.879871253685653,-9.059645638027789,2.408222878985107,100,jumping
1783087544242571300,3.3773499,-19.820470924317835,-27.27254283401966,17.52960104382038,-4.633416175842285,-3.7878739833831783,-2.718266010284424,-2.559478731596469,-9.225413707855344,2.123951325460524,100,jumping
1783087544252534300,3.3873129,-19.277544781345128,-26.148385659599302,14.809756393700836,-4.637587070465088,-3.0473275184631348,-2.981861114501953,-2.227922572066635,-9.384409507068993,1.7718851696044209,100,jumping
1783087544262497500,3.3972761,-18.22880495921969,-24.650761083245275,10.320182875227928,-4.074667453765869,-2.4429140090942383,-3.230568647384644,-1.891466657796502,-9.517636658775803,1.4167922132730484,100,jumping
1783087544272459500,3.4072381,-17.606347598892448,-21.624700612688063,5.36472670597434,-3.213103771209717,-1.9953885078430176,-3.6059629917144775,-1.538137496267259,-9.621876200929284,1.1063515416819605,100,jumping
1783087544282422500,3.4172011,-17.35417901046276,-16.97686779258251,1.6538193466722964,-2.32816743850708,-1.659999132156372,-3.970722198486328,-1.1547961313772943,-9.699926239815351,0.8650306566115469,100,jumping
1783087544292385300,3.4271639,-16.838626027584073,-12.350014632141589,-0.6409690955083817,-1.607457160949707,-1.3563694953918457,-4.156826972961426,-0.7479823401588946,-9.753704591754078,0.6900501564763486,100,jumping
1783087544302347500,3.4371261,-15.6254262956202,-8.400885961219668,-1.9428888019979,-1.1234071254730225,-1.033026933670044,-4.132446765899658,-0.3358187854103744,-9.784572023704648,0.5654745497914031,100,jumping
1783087544312311600,3.4470902,-13.896574212056398,-4.895488315024972,-2.4292075070858,-0.8852989077568054,-0.7253022193908691,-3.941154956817627,0.0633258411533199,-9.795183434090015,0.4698522119987756,100,jumping
1783087544322274600,3.4570532,-11.746603333067894,-1.685031062015891,-2.9813492221713065,-0.8113788962364197,-0.3405705392360687,-3.636370897293091,0.4357955190202221,-9.789330031886696,0.3866332095095887,100,jumping
1783087544332236500,3.4670151,-9.656623104661705,1.306900928968191,-3.031751375675201,-0.8795799016952515,-0.076689638197422,-3.2041523456573486,0.7706933536607772,-9.771599729406834,0.3037082945961505,100,jumping
1783087544342199600,3.4769782,-7.649848982730507,3.900423384463787,-3.4514240639448164,-0.9812700152397156,0.0010024952935054,-2.66927170753479,1.0568162341404703,-9.74721172260344,0.2129665684519335,100,jumping
1783087544352162600,3.4869412,-6.009746026721596,6.122638246408105,-3.859361890757084,-1.0795758962631226,-0.0275705307722091,-2.1120455265045166,1.2885302827581762,-9.720974873062968,0.1128856529484037,100,jumping
1783087544362124800,3.4969034,-4.805536241421104,8.392519699412583,-3.94213720459938,-1.1554596424102783,-0.1007922813296318,-1.626864671707153,1.4689170989163218,-9.696012281242012,0.0038253735388905,100,jumping
1783087544372087600,3.5068662,-3.733067168661952,10.5695866751194,-4.042090447735786,-1.192052721977234,-0.1901738494634628,-1.1834039688110352,1.6044724013097584,-9.673855979013442,-0.1121488174406811,100,jumping
1783087544382050600,3.5168292,-2.8206024876371023,12.22863983079195,-4.266377342027425,-1.10662579536438,-0.197179302573204,-0.6759913563728333,1.6942802441373466,-9.656519644287227,-0.22679111393122,100,jumping
1783087544392012500,3.5267911,-2.1911551222920416,13.2453852627635,-4.298775052285194,-0.8909691572189331,-0.0871465131640434,-0.0648543462157249,1.7299718813739715,-9.647349664881824,-0.3259248391119763,100,jumping
1783087544401975600,3.5367542,-1.709309178704023,13.491958807665108,-4.23365756020844,-0.6097041964530945,0.2042027860879898,0.6310277581214905,1.7033235284231605,-9.649413611674309,-0.3973268548183143,100,jumping
1783087544411938600,3.5467172,-1.3102157526046037,13.5501993997097,-3.642591363444924,-0.3517983257770538,0.5427532196044922,1.301643133163452,1.611286611369252,-9.66351169513166,-0.436679243052192,100,jumping
1783087544421900500,3.5566791,-1.1693388167969885,13.854515524005889,-2.9970506491720674,-0.1752427071332931,0.7920349836349487,1.7847312688827517,1.4644240252807736,-9.686209849151968,-0.4507491233283653,100,jumping
1783087544431863600,3.5666422,-1.2608201457947492,14.412097968840598,-2.4729613086164,-0.0771180689334869,1.0082584619522097,2.088947057723999,1.280721947094798,-9.71228010995388,-0.4491620733326301,100,jumping
1783087544441826600,3.5766052,-1.5778088507898151,14.821527495515346,-1.5556553250402212,-0.0184843149036169,1.1661533117294312,2.23661208152771,1.0750264290917664,-9.73758932325542,-0.4405105648433789,100,jumping
1783087544451788500,3.5865671,-1.9486489729598164,15.194493377667664,-0.5052566297918558,-0.0185566805303096,1.2309707403182983,2.238367795944214,0.8621304051253944,-9.759206696301698,-0.4301278851799666,100,jumping
1783087544461751600,3.5965302,-1.9355176887080072,15.643430738866329,0.1051180785536766,-0.0452175885438919,1.146164059638977,2.097593307495117,0.6553678424127399,-9.77554291407466,-0.4238461014967411,100,jumping
1783087544471714600,3.6064932,-1.6560824692986904,16.006984649550915,0.410508590615727,-0.0807373970746994,0.9522324204444884,1.8146477937698364,0.4685584823938086,-9.786250186049935,-0.424424814700149,100,jumping
1783087544481676500,3.6164551,-1.1312249939147383,16.421107886999845,0.4819043592443689,-0.0638825148344039,0.7019892334938049,1.4611691236495972,0.3121087874663993,-9.792312847089766,-0.4284836981695145,100,jumping
1783087544491639600,3.6264182,-0.3876306595817208,16.555646121305227,0.4669628472328185,0.0320033393800258,0.5069091320037842,1.1613619327545166,0.1872658898810855,-9.795468096250294,-0.4291046065468341,100,jumping
1783087544501602600,3.6363812,0.6545490003105252,16.387281605243682,0.3721651236960664,0.2097863852977752,0.3666649162769317,0.9584506750106812,0.0863068033035378,-9.797390588745474,-0.4172062616234645,100,jumping
1783087544511564500,3.6463431,1.899197982700914,15.869865166580675,0.0158277202615514,0.4444162547588348,0.2040795981884002,0.8546043634414673,-0.0005960765788358,-9.799066413003205,-0.3855822756845504,100,jumping
1783087544521527600,3.6563062,3.0560294923633333,15.411466734075546,-0.5111725758373737,0.7360318899154663,0.0591700822114944,0.8460947871208191,-0.0825806041209492,-9.800805365625024,-0.3282944177875295,100,jumping
1783087544531490600,3.6662692,3.963087053647637,14.93047068531513,-0.7723620905905961,1.0548532009124756,-0.0843810364603996,0.9306036829948424,-0.168726207247097,-9.802240366864204,-0.2408341244667768,100,jumping
1783087544541452500,3.6762311,4.508910087105631,14.182275652253628,-0.8678881649345159,1.3232479095458984,-0.275491863489151,1.0787904262542725,-0.2669832774574868,-9.802233937123416,-0.1237605000429321,100,jumping
1783087544551415800,3.6861944,4.780899228292704,13.47049165674448,-0.9290519509494304,1.4813318252563477,-0.496224045753479,1.2280797958374023,-0.379758026510477,-9.79928327062428,0.0150656909470679,100,jumping
1783087544561378600,3.6961572,4.793346329672635,12.97900577815175,-0.8458113576829432,1.5281267166137695,-0.7010447978973389,1.3780256509780884,-0.5063787656895816,-9.7921748999238,0.1652599376423284,100,jumping
1783087544571340500,3.7061191,4.546735375370085,12.336525035971402,-0.5713269290814176,1.451346755027771,-0.8730045557022095,1.5197292566299438,-0.6458326829567551,-9.780264681899547,0.3157464133163914,100,jumping
1783087544581303600,3.7160822,4.208562866440415,11.54850886465311,-0.3075262819817289,1.2401211261749268,-0.9840882420539856,1.6212289333343506,-0.7953292708106339,-9.763782918176055,0.4543210635310039,100,jumping
1783087544591266600,3.7260452,3.9499186522558327,11.07211300316453,-0.1826888094902038,0.9335235953330994,-1.0094211101531982,1.6929103136062622,-0.9514804211828856,-9.74377999458909,0.5690535042567179,100,jumping
1783087544601228500,3.7360071,3.702897655847668,10.752013618803025,-0.0428173243980854,0.646255373954773,-0.9685871601104736,1.7121471166610718,-1.1108751565862447,-9.721460026231409,0.6554334549948573,100,jumping
1783087544611191600,3.7459702,3.691664606432616,10.425767402249576,-0.1022644426882267,0.4536408483982086,-0.9621523022651672,1.7019309997558594,-1.2696303519770502,-9.697481184750794,0.7192207213811576,100,jumping
1783087544621154600,3.7559332,3.904572613097727,9.982563031744956,-0.6020107115607708,0.3969698548316955,-1.023751974105835,1.6640517711639404,-1.4249280273251237,-9.671766897779705,0.7725979451730847,100,jumping
1783087544631116500,3.7658951,4.14781058383584,9.433477197098732,-1.104749659443274,0.4775348007678985,-1.1370388269424438,1.569778561592102,-1.5720989487104118,-9.64416928128004,0.8300150189403444,100,jumping
1783087544641079600,3.7758582,4.427332166354358,8.81379339313805,-1.4736837287962437,0.6875833868980408,-1.28549063205719,1.450733661651611,-1.706621400924772,-9.614504795378446,0.9050609075743704,100,jumping
1783087544651041500,3.7858201,4.546525239750743,7.876790190923214,-1.804775631815195,0.964406192302704,-1.3509236574172974,1.3266701698303225,-1.826711861552298,-9.582209376451372,1.007356841379404,100,jumping
1783087544661004500,3.7957831,4.540346843376756,6.296489669448137,-1.6371755242548882,1.1625181436538696,-1.1864771842956543,1.221406102180481,-1.9344081200309096,-9.546918867361544,1.1334950577385725,100,jumping
1783087544670967600,3.8057462,4.510456147503852,4.268390435415506,-0.927271497273445,1.166661024093628,-0.8569015264511108,1.097569704055786,-2.032457429242134,-9.509897004434466,1.265453066292405,100,jumping
1783087544680929500,3.8157081,4.6775890759438274,2.1529922726362942,-0.2641105167664587,1.0124127864837646,-0.4917280972003937,0.923907995223999,-2.1195342396706343,-9.474459780350326,1.3829502955563366,100,jumping
1783087544690892800,3.8256714,4.672086971396207,-0.0043202012866735,0.4606194695554673,0.780137300491333,-0.3007743954658508,0.6730322241783142,-2.1898981079682707,-9.444395481476189,1.4758411990910767,100,jumping
1783087544700855600,3.8356342,4.39664038323164,-1.9592945778757331,0.9464708493925632,0.4432738423347473,-0.5377903580665588,0.3520714938640594,-2.2325819421797988,-9.423638524651526,1.5430495259672403,100,jumping
1783087544710817500,3.8455961,3.984804672197997,-3.546221239492297,0.5148644160926342,-0.0786309242248535,-0.980473518371582,-0.0821396559476852,-2.234044854339212,-9.417482924631235,1.5781171860866248,100,jumping
1783087544720780500,3.8555591,4.3486710098326204,-4.81803799559772,-0.4790519289553165,-0.5843580365180969,-1.2440593242645264,-0.4413960874080658,-2.190148429467529,-9.428958258369564,1.5711067228026687,100,jumping
1783087544730743600,3.8655222,5.479951168000698,-6.978482337805628,-1.5216029794432222,-0.8567923903465271,-1.130440354347229,-0.524499773979187,-2.1241781199537217,-9.451128004601598,1.5278877588011324,100,jumping
1783087544740705500,3.8754841,7.253294719719887,-10.937309395921227,-2.4038263975918293,-0.827293336391449,-0.7242332100868225,-0.2777086496353149,-2.0705963135004044,-9.4728120131433,1.465898481747508,100,jumping
1783087544750668500,3.8854471,9.008543811821935,-16.0810155159235,-3.400249172502756,-0.5876877307891846,-0.4670171737670898,0.0667130276560783,-2.0533884274594483,-9.484869530683754,1.411116213463247,100,jumping
1783087544760631600,3.8954102,9.06730345930457,-20.59949831801653,-3.710841892850399,-0.5437783002853394,-0.5149301290512085,0.04881152510643,-2.055435423117131,-9.49053062518537,1.3694628913432358,100,jumping
1783087544770593500,3.9053721,7.27262719669938,-23.01259406373501,-2.933564557689428,-0.9247549772262572,-0.8687310218811035,-0.4130936563014984,-2.03127143432796,-9.50320832045078,1.316581049852818,100,jumping
1783087544780556800,3.9153354,4.413217424023151,-24.457901592874524,-1.2514987752199171,-1.6756383180618286,-1.3381009101867676,-1.053992509841919,-1.9479379020810128,-9.533925530275702,1.2166332135438918,100,jumping
1783087544790519600,3.9252982,1.3021113566040992,-26.19893277453184,0.4564392612613737,-2.522719621658325,-1.574463129043579,-1.5929657220840454,-1.803996025744825,-9.582561843150854,1.0442765591062604,100,jumping
1783087544800481500,3.9352601,-1.15690939720422,-28.423943404674528,2.390617371928692,-3.2822437286376958,-1.594609022140503,-1.9210426807403564,-1.6200651072390375,-9.63937386369705,0.792623665113747,100,jumping
1783087544810444500,3.9452231,-3.168735249567032,-30.0048506598711,3.218863846826553,-3.7870090007781982,-1.3505202531814575,-2.1097817420959477,-1.4158618005551398,-9.69236194204092,0.4731450795317068,100,jumping
1783087544820407600,3.9551862,-5.047656314045191,-31.31909201472997,3.0828982100665567,-4.049979209899902,-0.9536358118057252,-2.2264208793640137,-1.2025566843312232,-9.732038703390955,0.1079738698435947,100,jumping
1783087544830369500,3.9651481,-6.73996467358768,-32.80613440679311,2.585709151396155,-4.153284072875977,-0.6018891930580139,-2.4326648712158203,-0.9781933638025074,-9.753643801477551,-0.2827861190061084,100,jumping
1783087544840332500,3.9751111,-8.91961465152502,-33.281642964053155,2.0130828666865823,-4.101096630096436,-0.1887669116258621,-2.838474750518799,-0.7246789137218147,-9.756077166104316,-0.6813081932246685,100,jumping
1783087544850295600,3.9850742,-11.98057341698408,-32.3956433883667,2.6945897973537445,-3.918837785720825,0.2847577929496765,-3.372089147567749,-0.4228879239890724,-9.738713358849289,-1.07191954911761,100,jumping
1783087544860257500,3.9950361,-14.806216529136895,-30.68191873130798,3.674039810153842,-3.56265640258789,0.6912110447883606,-3.9215047359466553,-0.0619249111470999,-9.700780226296184,-1.4357608253762124,100,jumping
1783087544870220500,4.0049991,-16.54426548011303,-28.058528376293182,4.350782887420058,-3.101731061935425,0.9156312942504884,-4.4551520347595215,0.354673890669085,-9.641619596797227,-1.7560666920952497,100,jumping
1783087544880183600,4.0149622,-17.454230453276633,-23.92997545063496,4.856222472563386,-2.6401538848876958,1.0086534023284912,-4.9563889503479,0.8239557919666171,-9.559967149505018,-2.024480312883109,100,jumping
1783087544890145500,4.0249241,-17.283434326153994,-18.69146221821308,5.571766112866998,-2.271308183670044,1.0295041799545288,-5.228091716766357,1.3299708389103413,-9.452976262816788,-2.245621456494927,100,jumping
1783087544900108500,4.0348871,-15.989638377952575,-13.673907612442967,5.755027169287205,-2.0371735095977783,1.0669949054718018,-5.189484596252441,1.8434983073107896,-9.320304406905176,-2.429780484668165,100,jumping
1783087544910071600,4.0448502,-13.936656047075989,-9.01890972301364,5.467653996485471,-1.90280020236969,1.2250338792800903,-4.864419460296631,2.3364495822809634,-9.166098764577509,-2.587279761713743,100,jumping
1783087544920033800,4.0548124,-11.687798092877864,-4.842247723224759,4.939760587471723,-1.7941828966140747,1.516508936882019,-4.336926937103272,2.789748207429051,-8.99952989976108,-2.7195874604880808,100,jumping
1783087544929996500,4.0647751,-9.599235914576052,-1.0298071581184864,4.178060468409956,-1.6558045148849487,1.841142654418945,-3.6966378688812256,3.1935493728280067,-8.831908895543217,-2.822942328761518,100,jumping
1783087544939959600,4.0747382,-7.761623596563934,2.486013682413101,3.149254596288502,-1.4322574138641355,2.0813145637512207,-2.9989047050476074,3.54169324067384,-8.675473302206397,-2.89187762556076,100,jumping
1783087544949921500,4.0847001,-6.416598396384716,5.733893780365586,2.1520175823852417,-1.0946426391601562,2.1944196224212646,-2.293698072433472,3.8310099487587808,-8.541544139710068,-2.921603486260772,100,jumping
1783087544959884500,4.0946631,-5.4592123313546175,8.439945467454194,1.2515855767205355,-0.7110034227371216,2.1480154991149902,-1.572473168373108,4.058005517487228,-8.439346917039156,-2.91211377338171,100,jumping
1783087544969847600,4.1046262,-5.024961667156219,10.637550204277035,0.6787517867401242,-0.3403440117835998,1.9194753170013428,-0.9258997440338136,4.220809184551238,-8.373084346580505,-2.8716908698394894,100,jumping
1783087544979809500,4.1145881,-5.033554138934612,12.78924191570878,0.2731377267003059,-0.0391886979341506,1.7302899360656738,-0.3144558370113373,4.323822692041099,-8.341563419157266,-2.809495402689278,100,jumping
1783087544989772500,4.1245511,-5.120074484524131,14.13370772843957,0.3609469430565833,0.12439776211977,1.7572516202926636,0.2848052084445953,4.372784291347861,-8.34243318772912,-2.730009193520248,100,jumping
1783087544999734500,4.1345131,-5.162703081417083,14.683573315286637,0.804404996061325,0.2325567305088043,1.9209015369415283,0.8420513868331909,4.374412477071583,-8.372008241781591,-2.6352207858011125,100,jumping
1783087545009697800,4.1444764,-5.121292043620348,15.31770357775092,1.0067983307138084,0.4149256646633148,2.114521026611328,1.3164503574371338,4.335694039359688,-8.427190615299343,-2.520831313294172,100,jumping
1783087545019660500,4.1544391,-4.95360440390706,15.80974942831397,1.0237602791696787,0.7273877263069153,2.22758150100708,1.7689942121505735,4.258687372046709,-8.507135089629887,-2.379626752967387,100,jumping
1783087545029622500,4.1644011,-4.812661563256382,15.852762056088446,1.1341736876524984,1.0970613956451416,2.30666184425354,2.193466186523437,4.141536618132889,-8.61105022213459,-2.206326972460747,100,jumping
1783087545039585500,4.1743641,-4.810896599410474,15.636708737134931,1.755485238945484,1.3941237926483154,2.260969877243042,2.545227527618408,3.984448113845288,-8.733477747407555,-2.0052303996205327,100,jumping
1783087545049548500,4.1843271,-4.895860363207757,15.718448278188704,2.2542193351007995,1.536962628364563,2.1720681190490723,2.8148422241210938,3.791085642388463,-8.86534413215518,-1.7898939967647194,100,jumping
1783087545059510500,4.1942891,-4.972260589060187,15.809577578878402,2.8894968679040667,1.4956564903259275,2.0613503456115723,3.007967948913574,3.567013852152228,-8.997923633608222,-1.576127619704604,100,jumping
1783087545069473500,4.2042521,-4.93713608418703,15.884244405066966,3.567863746979832,1.3099100589752195,1.908330202102661,3.071508884429932,3.321049963581562,-9.123318191993237,-1.3806108928233385,100,jumping
1783087545079436500,4.2142151,-4.544194166454672,16.413345436304805,3.8981957715421913,1.1107233762741089,1.6850438117980957,3.0199015140533447,3.0653254362359643,-9.23597718744576,-1.2127993344694374,100,jumping
1783087545089398500,4.2241771,-3.873689691317081,17.021507729297877,3.869186534678936,1.001953363418579,1.4758790731430054,2.9711525440216064,2.806623646645248,-9.335371627655626,-1.069616532872245,100,jumping
1783087545099361500,4.2341401,-2.9383383479624987,16.93915911643505,3.630836628243327,1.038437008857727,1.2344731092453003,2.97373628616333,2.5426965236216783,-9.42465851534903,-0.9385571536585688,100,jumping
1783087545109324800,4.2441034,-1.942239690439403,16.522288626104594,3.0982161907076837,1.161152482032776,0.9328656792640686,2.9830243587493896,2.271292781107128,-9.505631748205422,-0.8090602014560252,100,jumping
1783087545119286500,4.2540651,-0.9933850146502256,16.285125883626936,2.4799422535449267,1.3277587890625,0.6625335216522217,2.983478546142578,1.9935627581804989,-9.578218845510484,-0.6736668116260319,100,jumping
1783087545129249500,4.2640281,-0.3307899974629282,15.931679525458811,2.263181663104892,1.4680371284484863,0.4623800814151764,3.00154185295105,1.7104485579974948,-9.641812489020824,-0.5293304926121607,100,jumping
1783087545139212500,4.2739911,0.2360340307086706,15.229970349240302,2.0907710865229365,1.589711308479309,0.3301147222518921,3.002718925476074,1.422698660837859,-9.695622989663482,-0.3757745098322629,100,jumping
1783087545149174800,4.2839534,0.6246528976101428,14.591369663363697,2.047315975677967,1.706798076629639,0.2598149478435516,2.961507797241211,1.134636336728185,-9.738472535830736,-0.2124596418431028,100,jumping
1783087545159137500,4.2939161,1.016005208063498,13.869139092642069,2.0579437526762483,1.8107918500900269,0.2152937948703766,2.9015204906463623,0.849975637755543,-9.76966671551764,-0.0390331342508317,100,jumping
1783087545169100500,4.3038791,1.5669190618544817,12.872594737178089,1.91769240142107,1.898209571838379,0.0910893976688385,2.8390393257141118,0.5702051585098729,-9.789011467456817,0.1431164309632498,100,jumping
1783087545179062500,4.3138411,2.084887581442296,11.742030033802983,1.7561060011923313,1.9327422380447388,-0.0918218344449997,2.7747550010681152,0.2964453361221589,-9.796591547322272,0.330589944846183,100,jumping
1783087545189025500,4.3238041,2.599775670671463,10.717882216620444,1.723276913779974,1.8780943155288696,-0.284188449382782,2.7247872352600098,0.0290578001291607,-9.792971603259444,0.5169482000967487,100,jumping
1783087545198988800,4.3337674,3.158585026952624,9.70456032935679,1.8046423608243465,1.750130295753479,-0.4175286591053009,2.7018837928771973,-0.2331698917155154,-9.779229493632911,0.6947548270359635,100,jumping
1783087545208950500,4.3437291,3.620513971671462,8.684380831283331,1.9849919137120249,1.5954742431640625,-0.4638449549674988,2.696385145187378,-0.4921902274698019,-9.756533093178271,0.859169509493187,100,jumping
1783087545218913500,4.3536921,4.1501422416538,7.647135632118582,2.1712753866933285,1.460060715675354,-0.5078983902931213,2.666327476501465,-0.7481310279145836,-9.725751001423596,1.0101695607125758,100,jumping
1783087545228875500,4.3636541,4.748193182738125,6.547796088090538,2.165929495620728,1.3574445247650146,-0.6109723448753357,2.577805280685425,-0.9960302684620024,-9.687790980863571,1.1510871207915243,100,jumping
1783087545238838800,4.3736174,5.168370605659485,5.550769502067566,2.074696150034666,1.30279541015625,-0.7873519062995911,2.4729602336883545,-1.2308071387164294,-9.643657240104677,1.2866134893514216,100,jumping
1783087545248801500,4.3835801,5.399772884914278,4.153606118372083,2.182370927333832,1.224494218826294,-1.0252398252487185,2.386874198913574,-1.4512855806358158,-9.59413011586964,1.4201543831825256,100,jumping
1783087545258763500,4.3935421,5.513182990995049,2.4753543412327765,2.4188836814701555,1.036420464515686,-1.2363866567611694,2.2855560779571533,-1.6573213634438813,-9.54109235316515,1.5463637650817632,100,jumping
1783087545268726500,4.4035051,5.532333097144961,0.8317319789260625,2.99115282330513,0.7269180417060852,-1.3936119079589844,2.155769109725952,-1.847058045618981,-9.488117718824745,1.65359810513705,100,jumping
1783087545278689500,4.4134681,5.280825018450617,-0.5907610763370991,3.596255728727579,0.3504298627376556,-1.5227853059768677,1.9547089338302608,-2.0169291668511926,-9.439296697032452,1.7326384702347215,100,jumping
1783087545288651500,4.4234301,4.867340078905224,-1.855367170411348,3.960611603444815,0.0114652710035443,-1.6482675075531006,1.6265665292739868,-2.1581508244432506,-9.398726786234974,1.78232999125123,100,jumping
1783087545298614500,4.4333931,4.305656043970584,-2.791742596116662,3.9868963837802407,-0.258182168006897,-1.8136471509933472,1.099016189575195,-2.25592043993026,-9.370802421998976,1.8081186586327849,100,jumping
1783087545308576000,4.4433546,3.656380527083576,-3.26103827021122,3.7961271436870097,-0.4136845171451568,-2.0537915229797363,0.4225664436817169,-2.292733044020832,-9.359546868491172,1.820071546754986,100,jumping
1783087545318538200,4.4533168,3.0650510032087563,-3.503984856787324,3.321356253051757,-0.4456008970737457,-2.244637012481689,-0.3126950263977051,-2.258803886412084,-9.366195804986358,1.828272534997761,100,jumping
1783087545328501000,4.4632796,2.769992536601424,-4.063158954727649,2.8634289451897144,-0.3792116343975067,-2.417454957962036,-1.0335736274719238,-2.1531863339036703,-9.38866307286024,1.8404289828680456,100,jumping
1783087545338464000,4.4732426,2.704019596739113,-4.916159931653738,2.232936746966838,-0.2007710635662078,-2.6458194255828857,-1.70234477519989,-1.9778281595624985,-9.422413951292633,1.8645901951782404,100,jumping
1783087545348426000,4.4832046,2.5621891595989466,-5.998526129049062,1.214639847769588,0.1055787056684494,-2.888463497161865,-2.2410268783569336,-1.7393319765239954,-9.460085802561045,1.910990127303451,100,jumping
1783087545358389200,4.4931678,2.1206094676867124,-7.962434338200092,0.3083025635838508,0.4117594063282013,-3.051204204559326,-2.6131491661071777,-1.4511309745959935,-9.493689965999126,1.9835474139921363,100,jumping
1783087545368352300,4.5031309,1.5328563409939406,-10.634061777639388,0.058975043798983,0.6236596703529358,-3.014936685562134,-2.804816961288452,-1.131977638912946,-9.518085571587084,2.072462838024646,100,jumping
1783087545378314000,4.5130926,0.950924979257211,-13.760158493441342,0.9617162031888962,0.7729330062866211,-2.860724210739136,-2.7857823371887207,-0.8035318664886056,-9.530335396829248,2.16735616742298,100,jumping
1783087545388277000,4.5230556,0.318162571080029,-17.367298019754884,2.578301797749102,0.8295731544494629,-2.8366665840148926,-2.644882202148437,-0.4827641178788617,-9.529913372024891,2.262325776927918,100,jumping
1783087545398240000,4.5330186,-0.5536103628659621,-20.906105768120288,4.265645812882482,0.7849724292755127,-2.867079257965088,-2.488977432250977,-0.1737780838091857,-9.519559151270984,2.349084461317956,100,jumping
1783087545408202200,4.5429808,-1.6197911126032472,-24.306798008215427,6.761202107405662,0.5948736071586609,-3.156235694885254,-2.3576369285583496,0.1268568220904562,-9.503518117052316,2.416071838919818,100,jumping
1783087545418165000,4.5529436,-2.8658418515503405,-27.14157719750404,9.130403766340017,0.2307425290346145,-3.5810487270355225,-2.333026170730591,0.4295920612702146,-9.486714281767606,2.4470582210749385,100,jumping
1783087545428128000,4.5629066,-4.18406555404365,-28.72458639341593,11.83961479424238,-0.4577760994434356,-4.147550106048584,-2.3313229084014893,0.7440466081451624,-9.47520036958456,2.416060294612497,100,jumping
1783087545438090000,4.5728686,-5.063662861472368,-28.74630722683668,13.894001146697995,-1.5401934385299685,-4.464099884033203,-2.137822151184082,1.0586124699074777,-9.477869881054758,2.284667080334574,100,jumping
1783087545448053200,4.5828318,-5.455599986076355,-27.77894688028097,15.56191097804308,-2.8827309608459477,-4.27073860168457,-1.6599637269973757,1.3342806649334729,-9.502364270842074,2.023649999538809,100,jumping
1783087545458015000,4.5927936,-5.829601641017198,-26.31216869308948,16.074798541104794,-4.08950662612915,-3.742692708969116,-1.1050230264663696,1.538743645466864,-9.546538928133248,1.6328665750145912,100,jumping
1783087545467978000,4.6027566,-6.209263221415877,-24.3437351154685,13.902919781690835,-4.693472862243652,-2.909432172775269,-0.7754431366920471,1.672998825047165,-9.593473697787523,1.156159747880697,100,jumping
1783087545477941000,4.6127196,-7.01708533244431,-21.96808851817846,10.531424409985542,-4.544316291809082,-2.141288995742798,-0.9311376214027404,1.7742324633829294,-9.621755204898118,0.6665555183161049,100,jumping
1783087545487903200,4.6226818,-8.102203458896279,-18.684775287795063,5.862823527139425,-3.764692068099976,-1.665497660636902,-1.6828263998031616,1.906308545358479,-9.616782677182554,0.2320652914744801,100,jumping
1783087545497866200,4.6326448,-8.701140242904424,-14.305441428673266,0.966895651653409,-2.6117990016937256,-1.421822428703308,-2.5905637741088867,2.1125966954924165,-9.575821721240878,-0.1046834773955401,100,jumping
1783087545507829200,4.6426078,-9.000858518016338,-10.531717839974164,-2.6350229251414534,-1.4745148420333862,-1.2510110139846802,-3.236893653869629,2.3886719369493425,-9.50565454455912,-0.3273530087515711,100,jumping
1783087545517791000,4.6525696,-9.275369286635518,-7.6209367765009395,-4.101763702932,-0.6433078050613403,-0.9958767890930176,-3.4888978004455566,2.703883987660706,-9.415602517712117,-0.453653612598218,100,jumping
1783087545527754000,4.6625326,-9.576970306754111,-4.563859820911288,-4.105130549016595,-0.1833500564098358,-0.5411096215248108,-3.285123348236084,3.0188021699920293,-9.31637408171892,-0.512237026731111,100,jumping
1783087545537717000,4.6724956,-9.547146246376633,-2.344651739567518,-3.720951783454418,-0.028930127620697,0.0712003633379936,-2.7590434551239014,3.2978307082965967,-9.220389157691598,-0.5283073966421187,100,jumping
1783087545547679200,4.6824578,-9.254596547719837,-0.4013128557145595,-3.887333016744256,-0.060425117611885,0.8060973882675171,-2.081661939620972,3.521979947683215,-9.137785108762978,-0.5166511533789336,100,jumping
1783087545557642000,4.6924206,-8.673742532891035,1.6371026051491495,-4.450114199265838,-0.1440528929233551,1.5590726137161257,-1.392773985862732,3.685273736351728,-9.07498875311017,-0.4834377428241074,100,jumping
1783087545567605000,4.7023836,-8.081347133350372,3.70222370210886,-5.153305722996592,-0.1085454449057579,2.210523128509521,-0.8371797204017639,3.7931823224067687,-9.03336261125803,-0.4248849064925685,100,jumping
1783087545577567000,4.7123456,-7.893402303028107,6.353557126060128,-5.46112780958712,0.1199202165007591,2.599722385406494,-0.5299726128578186,3.8624639484256496,-9.00782835702896,-0.3328400253279134,100,jumping
1783087545587530200,4.7223088,-7.671307365822791,9.25762904728353,-5.835840827667713,0.5372360944747925,2.792521953582764,-0.3966233432292938,3.910614815871417,-8.990974837383627,-0.1996423189112916,100,jumping
1783087545597493200,4.7322718,-7.323461896401644,11.554627639794347,-6.054492346420884,1.0538135766983032,2.8533716201782227,-0.2878502607345581,3.944944078713655,-8.978166793736815,-0.0176517253848956,100,jumping
1783087545607455000,4.7422336,-6.662424922311305,12.699661598026752,-5.787154830431938,1.492727756500244,2.875740766525269,-0.0317300744354724,3.958023632778227,-8.969942570748925,0.21105920046065,100,jumping
1783087545617418000,4.7521966,-5.790142906332016,12.587627456474303,-4.970310039514303,1.6348774433135986,2.9579081535339355,0.4222272932529449,3.931793212978542,-8.971784399223328,0.4674155594363808,100,jumping
1783087545627380200,4.7621588,-5.148866279244422,11.9147772949934,-3.518753971374035,1.3996018171310425,3.120037078857422,1.025875449180603,3.8497126034021374,-8.99041018923819,0.722925348052755,100,jumping
1783087545637343200,4.7721218,-4.7301089522540565,11.365976707029342,-1.9041385078430173,0.8534802198410034,3.384619951248169,1.6052309274673462,3.7034453528583047,-9.0308819003582,0.9476546523496509,100,jumping
1783087545647306000,4.7820846,-4.244524698920547,11.324010373437403,-0.5045243699945509,0.259063184261322,3.558236122131348,1.9777367115020752,3.504416818463802,-9.090069417864084,1.1225270890004933,100,jumping
1783087545657268000,4.7920466,-3.557263734771311,12.132231128394602,0.0197391580842435,-0.1230418309569358,3.486924171447754,2.167032241821289,3.273251270574331,-9.15982859826684,1.246493514278531,100,jumping
1783087545667231000,4.8020096,-2.7463293369412423,12.99696813582182,-0.4088625404417514,-0.1973600834608078,3.192603826522827,2.255925416946411,3.0271991191983223,-9.231637112414836,1.3354181445308029,100,jumping
1783087545677194200,4.8119728,-2.072191765998304,13.511775268769265,-1.2276467749893665,-0.0480768643319606,2.835963249206543,2.215579032897949,2.778930168555677,-9.298279622101782,1.4106541489094495,100,jumping
1783087545687156000,4.8219346,-1.7925445112735032,13.750003010129928,-1.8727507052801549,0.1666173338890075,2.6053690910339355,2.1067135334014893,2.538937171088159,-9.354699428460002,1.48788293454051,100,jumping
1783087545697119000,4.8318976,-1.890275109924376,13.596390657520294,-2.1587166416324672,0.3415430784225464,2.5484488010406494,2.006100654602051,2.30761424067989,-9.400402025970816,1.5740826698735355,100,jumping
1783087545707082000,4.8418606,-2.077663913799077,12.820001795631647,-2.251683533012867,0.4818496108055115,2.6314339637756348,1.871141791343689,2.083649417949468,-9.436246661812069,1.6691440493151544,100,jumping
1783087545717044200,4.8518228,-2.100602744707465,12.164846280795334,-2.5922213097691533,0.6429871320724487,2.7970995903015137,1.652865648269653,1.8707595314629373,-9.46149333127141,1.7750503556370734,100,jumping
1783087545727007200,4.8617858,-1.812723522079736,11.77921030216217,-2.731368206913769,0.8753125071525574,2.948982715606689,1.380681395530701,1.6750567804902792,-9.47449134453237,1.8969886360883712,100,jumping
1783087545736970200,4.8717488,-1.075257096042484,11.219818177556991,-3.0037682669892907,1.2207735776901243,2.9729666709899902,1.1567374467849731,1.4975342677220702,-9.473993916404249,2.042346370571852,100,jumping
1783087545746932000,4.8817106,-0.1189871755607426,10.029437011122702,-3.294555632148683,1.5805280208587646,2.946218967437744,1.0052757263183594,1.333296476201713,-9.459469131967424,2.2161175679825247,100,jumping
1783087545756895000,4.8916736,0.5476422117091715,8.197777464035154,-3.081830580835044,1.8269689083099363,2.8758316040039062,0.884231686592102,1.1770809553563597,-9.43168972916007,2.414148031250387,100,jumping
1783087545766857200,4.9016358,0.8648807267468422,6.202703132247924,-2.442889995479584,1.8252078294754028,2.732903242111206,0.7351269721984863,1.0305788000781089,-9.394473220443723,2.6176670089319347,100,jumping
1783087545776820200,4.9115988,0.9854939691394566,4.744589313027262,-1.9521040818497537,1.6242249011993408,2.56210732460022,0.5410496592521667,0.8990420856762676,-9.353727368557452,2.8053379907488822,100,jumping
1783087545786783000,4.9215616,0.9224970494132488,3.478222054499388,-1.4817463314816357,1.2748702764511108,2.4616825580596924,0.2952036559581756,0.7878607615608721,-9.315436508607863,2.961812747052312,100,jumping
1783087545796745000,4.9315236,0.8753671225130557,2.433566286817193,-1.104217671458423,0.8525837659835815,2.425067186355591,0.0335435606539249,0.6991198173124342,-9.28457550639808,3.078686145329476,100,jumping
1783087545806708200,4.9414868,1.123829038444534,1.630809642484784,-1.0488020737066863,0.524644672870636,2.464873075485229,-0.1899398267269134,0.6308214301772416,-9.26307445320785,3.1571962029427287,100,jumping
1783087545816671200,4.9514498,1.522566417647898,1.0718144082427024,-1.3790347295477985,0.3743201494216919,2.453799247741699,-0.3580763936042785,0.5781958284702151,-9.247413942739367,3.212693049237132,100,jumping
1783087545826633000,4.9614116,1.8530415039427577,0.6400602370351552,-2.068610400380194,0.3025142550468445,2.343582391738892,-0.4681719243526459,0.5392150134950876,-9.234199071857333,3.257182763826847,100,jumping
1783087545836596000,4.9713746,2.193666082199663,0.4065343897551298,-2.6473642280593515,0.2309819906949997,2.2782161235809326,-0.5377123355865479,0.5105846564142034,-9.22288155902922,3.293648454175889,100,jumping
1783087545846559000,4.9813376,2.3585725667618216,-0.0231909059733152,-2.5657100272014737,0.1232444271445274,2.305535793304444,-0.5522907972335815,0.4854397302962839,-9.214235895758868,3.321528687009215,100,jumping
1783087545856521200,4.9912998,2.4359172338575124,-0.8718477162152528,-2.1921663451611995,-0.0393159911036491,2.320375442504883,-0.5574804544448853,0.4592711602190509,-9.210135474702716,3.336595030976832,100,jumping
1783087545866484200,5.0012628,2.240499291175604,-1.4738514865785837,-1.9729481324359772,-0.1889898478984832,2.310454130172729,-0.6631758809089661,0.4371159539690241,-9.21132205413878,3.336296048030257,100,jumping
1783087545876447000,5.0112256,1.865848816937208,-1.69846103695333,-1.5511226500466464,-0.3115729987621307,2.2013397216796875,-0.9310100078582764,0.4345300656616687,-9.216254249843956,3.3229806393831964,100,jumping
1783087545886409000,5.0211876,1.9724781768366693,-2.09796421289742,-1.551632937656343,-0.3933494985103607,2.042746067047119,-1.2949464321136477,0.4661659247014671,-9.223019506195188,3.2998496469035743,100,jumping
1783087545896372000,5.0311506,2.080838890573382,-2.5116122340500358,-1.2926914940908552,-0.4698410630226135,1.9579570293426516,-1.6712523698806765,0.53766946455352,-9.229701760438084,3.2701521355152128,100,jumping
1783087545906334200,5.0411128,1.9474407662138344,-2.900955250507593,-0.5056429987609387,-0.597497820854187,1.9964478015899656,-1.975958108901977,0.6418884023103862,-9.236150790446995,3.2329385494083165,100,jumping
1783087545916297000,5.0510756,2.026489460748434,-3.534231526491045,0.49756490624547,-0.7735887169837952,1.9587726593017576,-2.2532849311828613,0.7729307573240249,-9.24317323642969,3.1838197137132287,100,jumping
1783087545926260000,5.0610386,2.3936618541911243,-3.950459627264738,0.9876441329106688,-0.9358596205711364,1.775260329246521,-2.507225751876831,0.9336798299457876,-9.249821003881095,3.1208053313955664,100,jumping
1783087545936222000,5.0710006,2.7279952233493328,-4.05980146099329,1.400117849586904,-1.0714861154556274,1.4847339391708374,-2.687467098236084,1.1232277115505187,-9.254054111406209,3.044866293314099,100,jumping
1783087545946185200,5.0809638,2.917790649974346,-4.555819137796759,1.8226339445888995,-1.18409526348114,1.1654551029205322,-2.812014102935791,1.3374540342725814,-9.25408509106636,2.956941341623664,100,jumping
1783087545956148200,5.0909268,2.992078121456504,-5.1872851494878525,2.179372622300684,-1.2717716693878174,0.8932666778564453,-2.8452837467193604,1.5690258248753846,-9.248704567071796,2.858326945875585,100,jumping
1783087545966110000,5.1008886,3.104800829795003,-6.071317809015512,2.482325349289179,-1.356206297874451,0.6844046711921692,-2.74697494506836,1.8052580085046588,-9.238255069249869,2.750651291793585,100,jumping
1783087545976073000,5.1108516,3.054391662028432,-7.380661454960704,2.9280004938215014,-1.5033048391342163,0.5756070613861084,-2.613881349563598,2.0349331717059016,-9.225224322763085,2.631485690926015,100,jumping
1783087545986036000,5.1208146,2.737441097086668,-8.407450726562738,3.5866195931151506,-1.7112243175506592,0.4865280091762543,-2.5743250846862797,2.258659801766276,-9.210882493677737,2.4957000869080423,100,jumping
1783087545995998200,5.1307768,2.253096322420239,-8.796380486044287,4.169540185084939,-1.959057569503784,0.3157653212547302,-2.6522836685180664,2.488321374833584,-9.193204213646052,2.337451598930359,100,jumping
1783087546005961200,5.1407398,1.952504187083244,-8.483200087291001,4.39910180490911,-2.168510913848877,0.1005519554018974,-2.6198067665100098,2.726064547547698,-9.170743375512956,2.1532285656102,100,jumping
1783087546015924000,5.1507026,2.156722399075329,-8.706701384162903,4.235110973887145,-2.2150137424468994,-0.0143522564321756,-2.3624162673950195,2.954000027474761,-9.144913353207707,1.9531524218589067,100,jumping
1783087546025886000,5.1606646,2.5263831022024155,-9.549438741227984,4.190952390947937,-2.0843100547790527,0.1118186563253402,-1.9375252723693848,3.14966960683018,-9.119196728149056,1.757889377477765,100,jumping
1783087546035849200,5.1706278,3.007083090625703,-11.355454143971205,4.610709834891558,-1.8578426837921145,0.3534829318523407,-1.4681140184402466,3.299992270244658,-9.09746245072484,1.5863815949544309,100,jumping
1783087546045811200,5.1805898,3.1930738642707466,-13.805693917691707,5.2685716860771175,-1.663804054260254,0.6167095303535461,-1.1318832635879517,3.409535179503262,-9.080928664553165,1.442974556147307,100,jumping
1783087546055774000,5.1905526,3.124402186843753,-16.11990025011301,6.31724136557579,-1.4779175519943235,0.9026381969451904,-0.9337353706359864,3.4918241711333398,-9.0672508523345,1.327594026776403,100,jumping
1783087546065737000,5.2005156,2.645074363556504,-18.693281250333783,7.83632607858777,-1.357019305229187,0.9635670185089112,-0.8301723599433899,3.5587510507196187,-9.054467943128945,1.2338074895761906,100,jumping
1783087546075699200,5.2104778,1.6406854320719837,-21.289180371832845,9.105733435463906,-1.4343804121017456,0.8375917673110962,-0.8467319011688232,3.622817280177772,-9.041165393963457,1.1414493046786636,100,jumping
1783087546085662200,5.2204408,0.3721241706311702,-22.99445751854181,10.889468617337942,-1.6898322105407717,0.6960832476615906,-0.9581370949745178,3.695174952641129,-9.025294455614686,1.0296156541343775,100,jumping
1783087546095625200,5.2304038,-1.265236793193221,-24.27687282555103,12.779286338883638,-2.0938875675201416,0.6157633662223816,-1.1891940832138062,3.78453578235358,-9.003577713847159,0.8850211591083555,100,jumping
1783087546105587000,5.2403656,-3.172665867014229,-24.379680873596666,14.097685982465745,-2.594822406768799,0.5397872924804688,-1.5870707035064695,3.90319635630846,-8.969303103801607,0.6978821652762591,100,jumping
1783087546115550000,5.2503286,-4.937614223092794,-22.43497187043428,14.221310024046897,-2.9721193313598637,0.5232663750648499,-2.119846105575561,4.064928010226786,-8.912160243865847,0.4692123797252774,100,jumping
1783087546125513000,5.2602916,-6.211688987258077,-19.523958167248963,12.879923472630978,-3.065428733825684,0.4669095277786255,-2.755149602890014,4.277622958663105,-8.821743475359678,0.2217469457515515,100,jumping
1783087546135475200,5.2702538,-6.942304524487256,-15.29666897302866,10.421079536694288,-2.890421152114868,0.3730163276195526,-3.504688024520874,4.550197206261754,-8.687094181895256,-0.0214153065689606,100,jumping
1783087546145438200,5.2802168,-6.685279143676161,-9.848997441864013,7.15973965318799,-2.4256303310394287,0.3293491005897522,-4.064921379089356,4.87660913477093,-8.504953069415688,-0.2342122038426808,100,jumping
1783087546155400000,5.2901786,-5.677513721495867,-5.399335078018903,4.064915443006158,-1.8066004514694212,0.293004423379898,-4.196847438812256,5.225907433348894,-8.288764141383767,-0.3958016180124133,100,jumping
1783087546165363200,5.3001418,-4.427333627659082,-2.0533406427949665,1.4186404714882372,-1.1937364339828491,0.2548922896385193,-3.882301568984986,5.558294636875391,-8.063657747402786,-0.5031577943490818,100,jumping
1783087546175326200,5.3101048,-3.3639480250656604,0.7810954321444034,-0.4313929366797208,-0.6638911962509155,0.2014594227075576,-3.244807481765747,5.843293481761217,-7.855512425094842,-0.5632481789788231,100,jumping
1783087546185288200,5.3200668,-2.7423072418183088,3.406759577310085,-1.6014754114508627,-0.300569474697113,0.1743974983692169,-2.4486794471740723,6.064861180222034,-7.683851790097355,-0.5884708099754526,100,jumping
1783087546195251000,5.3300296,-2.6718063031375405,6.056111472055315,-2.1973229972720145,-0.0258073974400758,0.2516592741012573,-1.617666482925415,6.220611713904142,-7.558323376199603,-0.5883304151240736,100,jumping
1783087546205214000,5.3399926,-2.8766216042399404,8.67664293050766,-2.6725474768936635,0.2055719792842865,0.1944080591201782,-0.7045561075210571,6.309158012363314,-7.4862757925987236,-0.5662090746110305,100,jumping
1783087546215176200,5.3499548,-3.0118863992542027,10.406251385396718,-3.588387479570508,0.4156650304794311,0.043259285390377,0.1774793714284896,6.329052799400687,-7.471708338063955,-0.535774408054538,100,jumping
1783087546225139200,5.3599178,-3.565065640693903,11.540271782183646,-3.8714953961431977,0.5981005430221558,-0.0527070648968219,1.0445773601531982,6.283531988197565,-7.5126254548639055,-0.4980723808435723,100,jumping
1783087546235102200,5.3698808,-4.191381430014967,11.79506487389803,-3.219507989948988,0.61273592710495,0.0760631710290908,1.8990898132324217,6.172134390982985,-7.607305141511559,-0.4517009441604837,100,jumping
1783087546245064000,5.3798426,-5.190979912352562,11.764017409205437,-1.9818787501275537,0.397078663110733,0.4068756103515625,2.597480535507202,6.000070435881614,-7.746696661067008,-0.3978082816597074,100,jumping
1783087546255027000,5.3898056,-6.361755045562982,12.559517798799275,-0.505467057672143,-0.0396049059927463,0.8139938712120056,3.0213794708251958,5.781461002704501,-7.913569477266073,-0.3471680450836196,100,jumping
1783087546264989200,5.3997678,-7.303189508223533,14.412452189105748,0.5047931039333343,-0.4971020519733429,1.2043070793151855,3.1682400703430176,5.535670717135072,-8.088916691821813,-0.3101144718440249,100,jumping
1783087546274952200,5.4097308,-8.02353733393848,16.54993534244299,1.1017810919612645,-0.7293829917907715,1.4880552291870115,3.0743916034698486,5.28427135951221,-8.256122100976109,-0.2886500791360624,100,jumping
1783087546284915000,5.4196936,-8.177313937199115,18.46828007029295,1.2188625800311566,-0.638739287853241,1.596187710762024,2.822947263717652,5.0433039640545845,-8.40619926519692,-0.2670179103794508,100,jumping
1783087546294877000,5.4296556,-7.602544210720062,20.023148044347764,0.898854381084442,-0.2501745522022247,1.4726386070251465,2.532503128051758,4.821080432033539,-8.536666889062523,-0.2299743470772169,100,jumping
1783087546304840200,5.4396188,-6.627474020439386,21.04077961150408,0.4213239626079798,0.3537411093711853,1.192823052406311,2.2814934253692627,4.617990347288549,-8.649738556969165,-0.1630493123881518,100,jumping
1783087546314803200,5.4495818,-5.504983902448416,21.397948205065727,0.0190419696003198,1.0420982837677002,0.8564517498016357,2.1104750633239746,4.429239169019461,-8.749230612334609,-0.0566012364728841,100,jumping
1783087546324765200,5.4595438,-4.414657685959339,21.231537161159515,-0.2551940737307071,1.6461174488067627,0.6369435787200928,2.0670599937438965,4.246913639883696,-8.838851262027024,0.093885348799033,100,jumping
1783087546334728200,5.4695068,-3.5360742317482825,20.678792219483853,-0.0416518790815956,2.046403408050537,0.5807327628135681,2.1330862045288086,4.060404103061557,-8.922064382764697,0.2833170475450344,100,jumping
1783087546344691200,5.4794698,-2.802633407965302,19.986339531910417,0.0567816254079341,2.2503914833068848,0.6358011960983276,2.265338182449341,3.861768367376923,-9.000394407635927,0.5000194232581183,100,jumping
1783087546354653200,5.4894318,-2.1293951239496467,19.228017072588205,-0.1248329059142619,2.330193519592285,0.6675602197647095,2.4304544925689697,3.6465704962089656,-9.0740576097399,0.7310144734188914,100,jumping
1783087546364616200,5.4993948,-1.6175351503700015,18.368246163135765,-0.6595606179274618,2.348475933074951,0.6985562443733215,2.6476378440856934,3.410642263962328,-9.143385412988064,0.9676648824602364,100,jumping
1783087546374578200,5.5093568,-1.352550919508934,17.24420004787445,-0.8760276322484016,2.3161754608154297,0.6787772178649902,2.880556344985962,3.150297091078758,-9.208511088371276,1.2038839143469928,100,jumping
1783087546384541200,5.5193198,-1.215551555787027,16.013440109300614,-1.0837374857485294,2.2435460090637207,0.6012721657752991,3.0547616481781006,2.868298889313638,-9.267627878728508,1.4332912203922867,100,jumping
1783087546394504200,5.5292828,-1.3262784141331911,15.059375297647714,-1.3444167128920554,2.149252414703369,0.5245584845542908,3.1751632690429688,2.5709640022069213,-9.318378407278656,1.6517724971450864,100,jumping
1783087546404466200,5.5392448,-1.5628465517185628,14.089757527554037,-1.4359344283774491,2.053411960601806,0.4856597483158111,3.237889528274536,2.263599303995073,-9.358963515645264,1.8591098640710115,100,jumping
1783087546414429200,5.5492078,-1.6776992578230798,13.065569962882996,-1.6135001957654953,2.0027637481689453,0.4476852118968963,3.2612345218658447,1.9506382470808925,-9.387776353153583,2.057924171192944,100,jumping
1783087546424392200,5.5591708,-1.566592021857202,12.069320206451415,-1.9982216899022456,1.995483636856079,0.351671040058136,3.245673894882202,1.6373707545660434,-9.403078551703691,2.2520073581397533,100,jumping
1783087546434354200,5.5691328,-1.2286340324610472,11.018589502769707,-2.406840192455053,2.0444226264953613,0.3001226484775543,3.2474048137664795,1.326047966378182,-9.403699898472428,2.4458951686449346,100,jumping
1783087546444317200,5.5790958,-0.700576007470116,9.49797217336297,-2.3507646694898603,2.0908854007720947,0.2902041971683502,3.279320001602173,1.0131689617242663,-9.38918563542962,2.643306769362092,100,jumping
1783087546454280200,5.5890588,-0.0558181872032582,7.836789604446292,-2.162626654683053,2.079634189605713,0.2462298274040222,3.3305788040161133,0.6971649569176137,-9.360250632846356,2.840784274922312,100,jumping
1783087546464242200,5.5990208,0.6326924847461283,6.429677658188343,-1.9951848064243796,1.985428094863892,0.1603397876024246,3.3693416118621826,0.3794563036175444,-9.318581820896268,3.031574557803571,100,jumping
