time,seconds_elapsed,acc_x,acc_y,acc_z,gyr_x,gyr_y,gyr_z,grav_x,grav_y,grav_z,fs_hz,activity
1783087520854644500,0.0,0.1914002314731478,0.2573971367329359,0.600738864994049,-0.2816899120807647,-0.9630581736564636,-0.4742516875267029,0.0391913022209191,-8.211383964583277,-5.361159953403472,100,jumping
1783087520864607500,0.009963,0.2824103992952034,0.2417489012241363,0.546193035814166,-0.2244648933410644,-0.9838594198226928,-0.4166256189346313,0.0234488605064689,-8.197681017923355,-5.382181114122271,100,jumping
1783087520874570500,0.019926,0.2587400027092546,0.142676532575488,0.4868365914821624,-0.1595948189496994,-0.98871648311615,-0.3806439340114593,0.0029761602729427,-8.187343748304247,-5.39794274687767,100,jumping
1783087520884533800,0.0298893,0.1882942648144438,0.0623030191779136,0.5863666407704353,-0.1077337488532066,-0.9612440466880798,-0.3636820018291473,-0.0196527447426924,-8.180292660748957,-5.408587475010752,100,jumping
1783087520894496800,0.0398523,0.0566856633533257,-0.0638058249562978,0.7352911278247832,-0.0913134962320327,-0.8953071236610413,-0.3552323281764984,-0.0405248341133119,-8.175240638056398,-5.416105011034012,100,jumping
1783087520904459500,0.049815,-0.0178559107540641,-0.2334264785587787,0.909623027858138,-0.1318703591823578,-0.7962329983711243,-0.3398609161376953,-0.0581600193553604,-8.169474329614639,-5.424639030623435,100,jumping
1783087520914422500,0.059778,-0.0097237682301085,-0.3555529750585556,1.149013383257389,-0.1845229119062423,-0.7026686668395996,-0.303195595741272,-0.0721280101596377,-8.161220880532264,-5.4368789189934725,100,jumping
1783087520924385500,0.069741,0.0394219828713685,-0.4898591541737317,1.180315699493885,-0.2352284640073776,-0.6932921409606934,-0.2472430020570755,-0.0871563510712701,-8.150066449311375,-5.453366527935862,100,jumping
1783087520934348500,0.079704,0.1219365634182468,-0.5449737231522799,1.0807359658449889,-0.2786704897880554,-0.7845836877822876,-0.216904804110527,-0.108469233878795,-8.136103390410542,-5.473796737024188,100,jumping
1783087520944311600,0.0896671,0.0894760444568004,-0.5199830742806196,0.9612322190642356,-0.2797123789787292,-0.9290845990180968,-0.2385821938514709,-0.1372104217898566,-8.120989992430806,-5.495551472714543,100,jumping
1783087520954274600,0.0996301,0.0632180516635999,-0.4409001852154731,0.9177718475222588,-0.2658567428588867,-1.0542057752609253,-0.2994718849658966,-0.1700593372806906,-8.106399741542338,-5.516134826537966,100,jumping
1783087520964237600,0.1095931,0.065260444211401,-0.389569810950756,1.062311251360178,-0.2696369886398315,-1.0809059143066406,-0.3564939498901367,-0.2026277461965568,-8.092488120567799,-5.535428140550851,100,jumping
1783087520974200600,0.1195561,-0.016381043295376,-0.4196294336497783,1.328507196098566,-0.341885894536972,-1.0104352235794067,-0.3733320534229278,-0.2309699522521346,-8.076644070225953,-5.557415515953302,100,jumping
1783087520984163600,0.1295191,-0.0101759415775537,-0.496175497713685,1.5603788464307784,-0.5074161291122437,-0.8888100385665894,-0.3475102484226227,-0.2545329429408535,-8.054266818723082,-5.588772777247429,100,jumping
1783087520994126600,0.1394821,0.0007882825671695,-0.5331681345462799,1.612497156202793,-0.7296393513679504,-0.8786104321479797,-0.3095221221446991,-0.2765703497637994,-8.021014537462591,-5.635353911158442,100,jumping
1783087521004089600,0.1494451,-0.891442205131799,0.326023513713479,1.2182435713499784,-0.962729036808014,-0.9254478812217712,-0.3615475594997406,-0.3019177031186409,-7.9741504949569695,-5.700188494640589,100,jumping
1783087521014052600,0.1594081,-0.627500395995751,0.3334446036249399,1.5067168143481016,-1.1195025444030762,-0.8711079359054565,-0.4845024943351745,-0.3200048014132305,-7.915731039214133,-5.780066917997599,100,jumping
1783087521024015600,0.1693711,-0.2870975341981276,-0.1443564484864473,1.5655957042962312,-1.2152211666107178,-0.8820370435714722,-0.6372376680374146,-0.3265662788206711,-7.849732672649622,-5.869022381779551,100,jumping
1783087521033978400,0.1793339,-0.3170547559686005,-0.2668634687364101,1.374160693770647,-1.2708582878112793,-0.9490642547607422,-0.793077290058136,-0.324740853491798,-7.778701572614907,-5.962947450667619,100,jumping
1783087521043941400,0.1892969,-0.2254715740315616,-0.2388099251627922,1.2562877630621194,-1.3191722631454468,-1.0234298706054688,-0.93086838722229,-0.3171144502665847,-7.703804444801807,-6.059804481354355,100,jumping
1783087521053905400,0.1992609,0.0841400993894785,-0.0947778863251209,1.1821744791030884,-1.317516565322876,-1.0926907062530518,-0.9882131814956664,-0.3078482439450919,-7.626222607949376,-6.157624219593405,100,jumping
1783087521063868400,0.2092239,0.6131185271609574,-0.118386725449562,1.0619137764751911,-1.224592685699463,-1.1270742416381836,-0.9203290939331056,-0.3039672560595907,-7.550241192030906,-6.250746739926934,100,jumping
1783087521073831700,0.2191872,1.0908915222216398,-0.4452642256438732,0.9691928226798772,-1.0339295864105225,-1.0977736711502075,-0.7655637860298157,-0.3105312724839896,-7.48178724900782,-6.332203956907987,100,jumping
1783087521083794700,0.2291502,1.1216871310450136,-0.9562655365675689,0.9135106829464436,-0.7657896280288696,-1.0271730422973633,-0.5701358914375305,-0.3281589913722127,-7.42688193886578,-6.395633349767327,100,jumping
1783087521093757700,0.2391132,0.9792299403086304,-1.364380473512411,0.7236234863847494,-0.5192443132400513,-0.9318215250968932,-0.3959580063819885,-0.3552412422282621,-7.387774501836299,-6.439331621718407,100,jumping
1783087521103720700,0.2490762,0.9457168161548674,-1.4974837065786122,0.482353893110156,-0.3610785007476806,-0.8713981509208679,-0.2357322871685028,-0.3898130451221018,-7.361062435999512,-6.46785804350078,100,jumping
1783087521113683500,0.259039,0.8728949602458626,-1.399153680729866,0.3684919516086578,-0.3006297945976257,-0.8048955202102661,-0.0788276270031929,-0.4325114923808723,-7.340729257544875,-6.488220448049902,100,jumping
1783087521123646500,0.269002,0.7490816066376864,-1.1988637480974196,0.4739508064240217,-0.2927446663379669,-0.6464556455612183,0.0845117345452308,-0.4798834478760138,-7.321500825461745,-6.506590217477083,100,jumping
1783087521133609500,0.278965,0.587772927371785,-1.0952513979315757,0.7089630928695202,-0.2758783102035522,-0.4668893218040466,0.2404688447713852,-0.5277682117315009,-7.302261287462711,-6.524478925389051,100,jumping
1783087521143572500,0.288928,0.4760214386856183,-0.9910942733645438,0.5297340684443712,-0.2677685022354126,-0.4166775345802307,0.3163102269172668,-0.576577981477417,-7.283117026531696,-6.541724074700475,100,jumping
1783087521153535500,0.298891,0.4769041032716631,-0.760924166253209,0.0829331347525119,-0.2401816099882125,-0.5028651356697083,0.3111762106418609,-0.6292352569643408,-7.2645894361943,-6.557452974230051,100,jumping
1783087521163498800,0.3088543,0.2637769739631563,-0.6661410192310809,-0.2348351763129234,-0.2006284445524215,-0.5773223638534546,0.2532615661621094,-0.6854557413581759,-7.248341481226682,-6.569785217058659,100,jumping
1783087521173461800,0.3188173,-0.2347819848209619,-0.8776905970245599,-0.0288017315924167,-0.1426184028387069,-0.4679069817066192,0.1867909133434295,-0.7362164990413933,-7.235361003622412,-6.5785963000237935,100,jumping
1783087521183424500,0.32878,-0.5108592721045017,-1.0443979935288428,0.3989747681558132,-0.0770018696784973,-0.2824966013431549,0.1372647881507873,-0.772582455343008,-7.226970191895961,-6.583646569150686,100,jumping
1783087521193387500,0.338743,-0.6078353991262614,-1.0824036067962646,0.3904898484051227,-0.0163600929081439,-0.1698603332042694,0.0589526742696762,-0.7941193835642189,-7.223231589889526,-6.5851873688519,100,jumping
1783087521203350500,0.348706,-0.6688132341150194,-1.204683832553029,0.0128483756572008,0.0488167107105255,-0.151857703924179,-0.0731024220585823,-0.8043689748998731,-7.224103112027048,-6.58298664393723,100,jumping
1783087521213313500,0.358669,-0.4729360033582895,-0.8412398119837046,-0.0660591568410396,0.1370770633220672,-0.1378148645162582,-0.1812587231397628,-0.80422094473131,-7.231110360440612,-6.575306610828638,100,jumping
1783087521223276500,0.368632,-0.3642881432432681,-0.430577528643608,-0.0067576575666666,0.1982498914003372,-0.1457173526287078,-0.2520318031311035,-0.7974982123475521,-7.244035892987251,-6.561884234675765,100,jumping
1783087521233239600,0.3785951,-0.0974716554537415,-0.3970873469740152,0.0798141259491443,0.2612144947052002,-0.1804138123989105,-0.2953875362873077,-0.7880837566617875,-7.26121557584703,-6.544009555289149,100,jumping
1783087521243202600,0.3885581,0.2048299141496419,-0.6762514943569898,0.0544943912535905,0.3358723819255829,-0.2061739116907119,-0.3210956454277038,-0.7785404869645833,-7.282972065103054,-6.520933215606212,100,jumping
1783087521253165600,0.3985211,0.3346952612731605,-0.9921838221669196,0.1674421405196189,0.3975477218627929,-0.1850132346153259,-0.3456989824771881,-0.7672975006774068,-7.309411159217357,-6.492623066923022,100,jumping
1783087521263128600,0.4084841,0.2129374519553035,-1.0729998186349867,0.4321177438229322,0.4251477122306824,-0.181937113404274,-0.3807569742202759,-0.7526802887167782,-7.338878076720237,-6.461016799303889,100,jumping
1783087521273091600,0.4184471,0.0460646357562392,-0.8530833945125341,0.5468880323410034,0.4218699038028717,-0.1742171347141266,-0.4319498538970947,-0.7343976130511611,-7.369054019275307,-6.428693323326111,100,jumping
1783087521283054600,0.4284101,0.0494206681858748,-0.7894839057832956,0.6830535755872726,0.4042805731296539,-0.1279888898134231,-0.4413301050662994,-0.7118663400303572,-7.398685771951079,-6.397115697279572,100,jumping
1783087521293017600,0.4383731,0.1008410588216036,-0.9493506426125764,0.8061310892015695,0.3514753878116607,-0.0713636949658393,-0.4069705307483673,-0.6866723506063223,-7.425866039821505,-6.3683104585558175,100,jumping
1783087521302981600,0.4483371,0.4027053329862654,-1.1679758578807116,0.8185439960509538,0.2628249228000641,0.0078873978927731,-0.3167641162872314,-0.6614287498869001,-7.447858091399073,-6.345259253314137,100,jumping
1783087521312944600,0.4583001,0.83007931634821,-1.2918512438744305,0.6874211231470108,0.1604950875043869,0.0080144302919507,-0.1858646869659423,-0.641685573214665,-7.462846401694416,-6.329656610512733,100,jumping
1783087521322907600,0.4682631,0.9525688740067184,-1.0829419514566658,0.3278103971302509,0.0686151161789894,-0.0470759831368923,-0.057645559310913,-0.6338406318679451,-7.470642170137166,-6.321244755998253,100,jumping
1783087521332870700,0.4782262,0.8432519555237143,-0.7622481083333492,0.302811564952135,0.0045386622659862,-0.0792443007230758,0.0267207194119691,-0.6370513375427573,-7.472907776981592,-6.318243820616603,100,jumping
1783087521342833400,0.4881889,0.5167253876589238,-0.6047732350766658,0.3120399965465069,-0.0226944889873266,-0.0555183850228786,0.0494368076324462,-0.6446655388735234,-7.471916427856684,-6.318643633589148,100,jumping
1783087521352796700,0.4981522,0.2488717388413846,-0.5395277327060699,0.4032201506406068,-0.0012914629187434,-0.0299861300736665,0.0471560768783092,-0.6506485588058829,-7.470722249636053,-6.3194415059685705,100,jumping
1783087521362759700,0.5081152,0.0522575721122324,-0.4119020542681217,0.2146662485092878,0.0421743690967559,-0.0809848681092262,0.0103179952129721,-0.6560453763481229,-7.47190473741889,-6.317486280247569,100,jumping
1783087521372722700,0.5180782,-0.0809004598811268,-0.4139578177541494,0.0355845236003398,0.0742281824350357,-0.1431031078100204,-0.0031024725176393,-0.6635466918889433,-7.475385565271973,-6.312582726114988,100,jumping
1783087521382685700,0.5280412,-0.0102669077966362,-0.4649526764541864,0.1873831047862768,0.1045110672712326,-0.153310015797615,-0.0664339959621429,-0.6707337538488208,-7.481252996000647,-6.304867621693015,100,jumping
1783087521392648700,0.5380042,0.1403394679300487,-0.2595709736406803,0.3409048565030098,0.0891233161091804,-0.0955604240298271,-0.1911223977804184,-0.6690091950785368,-7.488215236228704,-6.29678134587109,100,jumping
1783087521402611700,0.5479672,-0.0199232824794948,-0.2558972535640001,0.35390345428586,0.0753173604607582,-0.0460803285241127,-0.2091211229562759,-0.6577853518832475,-7.494881708380579,-6.290027195435762,100,jumping
1783087521412574500,0.55793,-0.0251941355545073,0.0264577988147735,0.2518114455550909,0.0482026524841785,-0.050264686346054,-0.1396640241146087,-0.6474268933456391,-7.499958280992508,-6.285049991545081,100,jumping
1783087521422537500,0.567893,-0.1672558972325176,0.176022921860218,0.2075397576302289,0.0318721160292625,-0.0468774251639843,-0.0988490134477615,-0.6421339015040546,-7.503028189957141,-6.281928644654155,100,jumping
1783087521432500500,0.577856,-0.1124443297885358,-0.0358504810601472,0.2750035205721855,0.0745074599981308,-0.0297612883150577,-0.1096143126487732,-0.6364919500943272,-7.506782574054598,-6.278015855124592,100,jumping
1783087521442463700,0.5878192,0.0687684157997369,-0.1223585516899824,0.0911918445318937,0.1391090899705886,-0.096213012933731,-0.122908815741539,-0.6315554435402154,-7.514246918585896,-6.269578866168856,100,jumping
1783087521452426800,0.5977823,-0.0534385985903441,-0.0335983182191848,-0.0424012178778648,0.1853418350219726,-0.1614426076412201,-0.1493792980909347,-0.6296569895077496,-7.525345235705375,-6.256444074785709,100,jumping
1783087521462389800,0.6077453,-0.1280049600791186,0.0726841279387474,0.2442833881378173,0.1954474747180938,-0.1886032223701477,-0.1825317740440368,-0.6281137786537409,-7.538402870199084,-6.240860136684775,100,jumping
1783087521472352500,0.617708,-0.2352938068006187,0.2651853063911199,0.3956459159940481,0.19173663854599,-0.1534873098134994,-0.2180445045232772,-0.623925167857483,-7.551787836951017,-6.2250780456632375,100,jumping
1783087521482315500,0.627671,-0.2113305282153189,0.2602244691133499,0.5695674816608428,0.1839382350444793,-0.0841737166047096,-0.2682855129241943,-0.613621581312269,-7.564784096646308,-6.210306008467078,100,jumping
1783087521492278500,0.637634,-0.1837107729490846,-0.1094815344601869,0.5695429317414761,0.1997672617435455,-0.0349326618015766,-0.2481954246759414,-0.5969486423982306,-7.578150358697772,-6.195618142423033,100,jumping
1783087521502241500,0.647597,-0.0487995771454647,0.0943237128168344,0.3689946404337882,0.1737021654844284,-0.0714322701096534,-0.1360663771629333,-0.5853646606536582,-7.591167661181092,-6.180769532859325,100,jumping
1783087521512204500,0.65756,-0.1023218354312703,0.4503127412050962,0.2797755572795867,0.1362280249595642,-0.0934928357601165,-0.0633120015263557,-0.5834673025997356,-7.601194549676776,-6.1686144001632925,100,jumping
1783087521522167800,0.6675233,0.0228923614181578,0.2985486468106508,0.5637468126833438,0.1703965067863464,-0.0722444877028465,-0.0012981023173779,-0.5862779761062935,-7.610590154531597,-6.156750943890214,100,jumping
1783087521532130800,0.6774863,0.2386809650208801,0.292479556030035,0.5017231949687003,0.2524700760841369,-0.0751720964908599,0.0366378277540206,-0.591975420562923,-7.623375401824712,-6.1403673798441885,100,jumping
1783087521542093600,0.6874491,0.1996908707607537,0.4330763597220182,0.2449462359607219,0.3552902340888977,-0.1460002809762954,0.0500974133610725,-0.6020663507381454,-7.641568061119318,-6.116725222972035,100,jumping
1783087521552056600,0.6974121,-0.0325013898279517,0.7155453938692807,0.1164654019981622,0.4795906245708465,-0.2229935973882675,0.0037727912422269,-0.6158782741978764,-7.666660416799783,-6.083862817811966,100,jumping
1783087521562019600,0.7073751,-0.2263157697707414,1.083236550489068,0.2513824064880609,0.6240783333778381,-0.3354313373565674,-0.0908336862921714,-0.628863135716319,-7.700361026349663,-6.0398138327270745,100,jumping
1783087521571982600,0.7173381,-0.5750972048677504,1.146136951038241,0.1348053608089685,0.826120913028717,-0.4891311526298523,-0.0642199218273162,-0.648489481075853,-7.743359625598788,-5.982493278136849,100,jumping
1783087521581946600,0.7273021,-0.2575070999134332,1.1060276434898375,0.1091080249726772,1.1087170839309692,-0.5924895405769348,-0.1746325343847274,-0.6718920570384711,-7.801412586116791,-5.9039738681733605,100,jumping
1783087521591909600,0.7372651,0.191681021175906,1.4906448004692792,-0.1176093113362789,1.399247169494629,-0.7688400745391846,-0.3255632221698761,-0.691620255337283,-7.876130265709757,-5.80160538058877,100,jumping
1783087521601872600,0.7472281,0.1082783692155033,1.8865180954784155,-0.329466347643733,1.597568392753601,-0.9533392786979676,-0.498907595872879,-0.708624435499683,-7.965246473011374,-5.67653815446198,100,jumping
1783087521611835600,0.7571911,0.0760910868380218,2.3171090681254864,-0.2309229713052511,1.649200677871704,-1.1004700660705566,-0.6736469268798828,-0.7190838701937348,-8.06049899111092,-5.539101860627532,100,jumping
1783087521621798400,0.7671539,-0.1738807952649891,2.729261882284284,0.0462765980064868,1.653628945350647,-1.2190715074539185,-0.8084028959274292,-0.7224484512560069,-8.156019220235944,-5.397018033248186,100,jumping
1783087521631761700,0.7771172,-0.2542480250522494,3.035621495106816,0.4133668661236763,1.575367450714111,-1.2308332920074463,-0.9282336831092834,-0.7170496609523892,-8.248397059682011,-5.255490086185932,100,jumping
1783087521641724700,0.7870802,-0.1125762125398963,3.26985929004848,0.7165922725737095,1.4247204065322876,-1.1131211519241333,-1.027259111404419,-0.6969631507351994,-8.33314630394578,-5.122820568361878,100,jumping
1783087521651687700,0.7970432,-0.4503921631168573,3.3416923541158434,0.9869622881263492,1.2847164869308472,-0.8974765539169312,-1.0509860515594482,-0.6606671178646385,-8.408421617421507,-5.003235573038459,100,jumping
1783087521661650700,0.8070062,-1.0229056351017207,3.1760856123298407,1.0882859428331255,1.221442937850952,-0.719092071056366,-1.016484618186951,-0.6130821406733244,-8.476548228186369,-4.893121001371741,100,jumping
1783087521671613700,0.8169692,-1.1669036986045538,3.0714702226012944,0.6423486402332782,1.2249228954315186,-0.6815720796585083,-0.980737328529358,-0.5620091387031599,-8.541023915228248,-4.7859632336840034,100,jumping
1783087521681576700,0.8269322,-0.6854202316533774,2.898123241952061,-0.0983010920152068,1.299985408782959,-0.8524197936058044,-1.086713433265686,-0.5100344751855358,-8.605749777638911,-4.674539917506277,100,jumping
1783087521691539500,0.836895,-0.1925368342876434,2.615008311116695,-0.5314700984567403,1.4599069356918335,-1.1342380046844482,-1.2142125368118286,-0.4559926500050351,-8.674584244412184,-4.551270680712163,100,jumping
1783087521701502500,0.846858,-0.0539405567631125,2.4966011274009943,-0.4513669264331459,1.6593917608261108,-1.393623113632202,-1.2133945226669312,-0.4064943134730681,-8.74950709118843,-4.410358235199749,100,jumping
1783087521711465500,0.856821,0.3242006091352552,2.452880059096217,0.0220636555090546,1.8227272033691408,-1.494283676147461,-1.04325532913208,-0.3695408396070823,-8.82923763050735,-4.25186921646446,100,jumping
1783087521721428700,0.8667842,1.176295138740912,2.329119823914766,0.6371230145394802,1.9057000875473025,-1.3562217950820925,-0.6994039416313171,-0.3513430657459422,-8.909882946583629,-4.081780653089285,100,jumping
1783087521731391700,0.8767472,2.052464298351854,2.16409760401845,1.2514216183304785,1.9879698753356931,-1.017095685005188,-0.2019270658493042,-0.3579681099088862,-8.9889190738976,-3.904047420179844,100,jumping
1783087521741354800,0.8867103,2.4958622917324305,2.013505476012826,1.7236890017122029,2.0791666507720947,-0.5271416902542114,0.4508086442947387,-0.3970450422022491,-9.06592574121058,-3.71775970941484,100,jumping
1783087521751317800,0.8966733,1.8997671608909965,2.3572101923674342,0.4189961041823029,2.054060935974121,-0.4550254046916961,1.157709002494812,-0.4870385803276673,-9.137139212074874,-3.527866959895193,100,jumping
1783087521761280500,0.906636,0.7284688075240701,3.1081466330915686,-1.263654200176895,2.0459203720092773,-0.7019739747047424,1.6201118230819702,-0.6356935662582516,-9.199296100780368,-3.337552770093083,100,jumping
1783087521771243500,0.916599,0.5217092404861002,3.2753748385995625,-0.5152978390738367,1.9227936267852783,-0.8776386976242065,1.7593250274658203,-0.8181414065994321,-9.251452988997102,-3.148279613776505,100,jumping
1783087521781206500,0.926562,-0.2371742867849767,3.9879602136194703,-0.1910033411100506,1.6319726705551147,-1.079981565475464,1.682441473007202,-1.007960214100033,-9.290069427639246,-2.9747300962924954,100,jumping
1783087521791169500,0.936525,-1.0147122456435114,5.0064931135296815,-0.6991767351314425,1.370308518409729,-1.4293190240859983,1.414112210273743,-1.1882524107772856,-9.3162051548928,-2.8225442693546414,100,jumping
1783087521801132800,0.9464883,-1.5610925476580857,5.364444381901621,-1.1326979160115125,1.2405606508255005,-1.966130018234253,1.0492278337478638,-1.3495083369426428,-9.33612449184954,-2.6806667782023545,100,jumping
1783087521811095800,0.9564513,-1.7412658671960233,5.60704726960659,-1.445916893209517,1.3402267694473269,-2.382243156433105,0.629149317741394,-1.4843223194494843,-9.357413948115706,-2.531001701913774,100,jumping
1783087521821058600,0.9664141,-1.2077177934214471,5.827273490330577,-0.6308380890510976,1.6593174934387207,-2.5125479698181152,0.2772042751312256,-1.586015976512432,-9.386852224045992,-2.354132246226817,100,jumping
1783087521831021600,0.9763771,-1.0646025771677494,5.599028213801979,0.3239035989500582,2.042715072631836,-2.3005449771881104,0.0296778287738561,-1.6540131156787274,-9.426009345436096,-2.141252150481939,100,jumping
1783087521840984600,0.9863401,-1.197828998222202,4.764570609304308,1.3371385385826229,2.284132480621338,-1.918328881263733,-0.0892729982733726,-1.692720447474718,-9.470522440901398,-1.9011225210227072,100,jumping
1783087521850947600,0.9963031,-1.076187654890865,3.5091046840190887,1.884601594332605,2.19895076751709,-1.5210797786712646,0.0022867473307996,-1.7172471320964395,-9.511666352194547,-1.6581993153221903,100,jumping
1783087521860910600,1.0062661,-0.8571933140493929,2.166401789307594,1.5822655379377304,1.7443840503692627,-1.4523967504501345,0.2410842925310135,-1.7512896869517862,-9.540394434028864,-1.4437011168561875,100,jumping
1783087521870873600,1.0162291,-0.483620259784162,1.5560200666993855,1.0061094716668129,1.1071854829788208,-1.5853415727615356,0.4589162170886993,-1.8050867435909808,-9.55355143724382,-1.2812931711114943,100,jumping
1783087521880837600,1.0261931,-0.6254335996590554,1.920417442470789,0.5251851729683578,0.4768579006195068,-2.012186288833618,0.585690975189209,-1.8777045282952487,-9.553432779300213,-1.173266146308556,100,jumping
1783087521890800600,1.0361561,-0.8047413884088397,2.4703379743754863,0.4103811283111572,-0.0476460643112659,-2.4672563076019287,0.5725200176239014,-1.959065299164504,-9.544605329722163,-1.1103856925688684,100,jumping
1783087521900763400,1.0461189,-0.4950184366330504,2.399949263897538,0.5887767706520856,-0.4152521193027496,-2.5309410095214844,0.5003104209899902,-2.037298439532518,-9.531377014836668,-1.0828802113320677,100,jumping
1783087521910726700,1.0560822,-0.4227205315329134,1.9456331322699785,1.2971547571100297,-0.6860939860343933,-2.397845268249512,0.4808893203735351,-2.1098956198401746,-9.515349424621462,-1.084818632048741,100,jumping
1783087521920689700,1.0660452,-0.3637558629974722,1.6520114204674958,1.543102132937312,-0.8847651481628418,-2.0802133083343506,0.5681861042976379,-2.1838243410125373,-9.49556569674313,-1.1115468453027306,100,jumping
1783087521930652700,1.0760082,-0.0420445133946836,1.7322504938304424,1.7457349754340945,-0.9782394766807556,-1.5438309907913208,0.7330275177955627,-2.2655165357932447,-9.470608365619182,-1.1599038297798483,100,jumping
1783087521940615700,1.0859712,0.4683496254161,1.6892863813728094,2.308394431272149,-0.8089947700500488,-0.9092392325401306,0.9419967532157898,-2.358571982239932,-9.440514256128669,-1.2182844148170202,100,jumping
1783087521950578700,1.0959342,0.5755550316378474,1.557525795087218,0.0491730501003563,-0.5504934191703796,-1.0193984508514404,1.0290676355361938,-2.4638316612213846,-9.408112454217672,-1.2598911943815647,100,jumping
1783087521960541700,1.1058972,0.5842325513511896,1.4059791428357362,-1.5609171910911797,-0.2584090530872345,-1.0633184909820557,0.9460194706916808,-2.569623985774815,-9.37807153621912,-1.2724711283609271,100,jumping
1783087521970504400,1.1158599,-0.0548074027255177,1.1606927151352169,-1.3700168719641863,-0.0338063240051269,-1.114778995513916,0.7497652769088745,-2.6635093071743845,-9.353949486875534,-1.2568708236470818,100,jumping
1783087521980467500,1.125823,-0.0191448454529047,0.8064502381533384,0.0982372329987585,0.0716645643115043,-0.8616869449615479,0.4838703572750091,-2.733288945843279,-9.337738356786966,-1.2272528072357176,100,jumping
1783087521990430700,1.1357862,0.0769216193780303,0.2485311087101697,1.6553800201177595,0.044457446783781,-0.1901940256357193,0.2933345139026642,-2.775486457842588,-9.328091992041468,-1.2057191669501364,100,jumping
1783087522000393700,1.1457492,0.3993304497256875,-0.3965191916972398,3.101981972981989,-0.0446829497814178,0.3018546998500824,0.2208105027675628,-2.797272465454042,-9.32124431810379,-1.208317659010738,100,jumping
1783087522010356700,1.1557122,0.491542869476974,-0.4053542400598526,0.5447486822247505,-0.1821955442428589,0.2974216043949127,0.2010248154401779,-2.8131702918097377,-9.313907399344444,-1.2278443433880806,100,jumping
1783087522020319700,1.1656752,1.187211888748407,-0.1304109252423048,-0.2483585286222398,-0.2286140322685241,0.3615157306194305,0.138906329870224,-2.825593720053136,-9.306334333741663,-1.2563972147859632,100,jumping
1783087522030282800,1.1756383,1.2508026096493006,0.1412035374134778,0.9862849733866752,-0.1057866513729095,0.695510745048523,0.0615425668656826,-2.8281320063591,-9.30126886704564,-1.287804452701658,100,jumping
1783087522040245500,1.185601,1.2638038377806544,-0.0984825860619545,1.1932530686087903,-0.006191880442202,0.8819810152053833,0.0521453395485878,-2.822578756146133,-9.299057036215066,-1.315656336223334,100,jumping
1783087522050208500,1.195564,1.309322018635273,-0.3791887021899223,0.4725197507075965,0.1422180980443954,0.9505822062492372,0.0872865468263626,-2.817370081587136,-9.29772666439414,-1.3360785081356763,100,jumping
1783087522060171500,1.205527,1.1669736951008438,-0.7821662762463092,0.1690782172888517,0.3630055487155914,1.0240049362182615,0.032397873699665,-2.81014422198683,-9.29906872665286,-1.3419377555578946,100,jumping
1783087522070134500,1.21549,1.298696871985495,-1.6490362040489912,0.0429695192851126,0.7642541527748108,0.8965103626251221,-0.0762521773576736,-2.795222254925966,-9.30712928351164,-1.3169842238262297,100,jumping
1783087522080097800,1.2254533,1.0126616697892543,-3.066355071544647,-0.0097298052452504,1.1318261623382568,0.8994554877281189,-0.1656973212957382,-2.7726988729506727,-9.322740109619495,-1.2526133123330772,100,jumping
1783087522090060800,1.2354163,0.9137892076268792,-5.404377748361229,0.6358885043084621,1.3373003005981443,0.8632474541664124,-0.182912528514862,-2.7450544946998354,-9.342707377371193,-1.1614156225822865,100,jumping
1783087522100023600,1.2453791,0.5347857988759875,-7.696920530506968,0.5563245537281036,1.373072862625122,0.6263660192489624,-0.1607309728860855,-2.721140535148978,-9.36236484852135,-1.054468063579127,100,jumping
1783087522109986600,1.2553421,-0.162704882864654,-9.337742448440194,1.0299718471609056,1.2994349002838137,0.4629243612289428,-0.2761862277984619,-2.6962714668303724,-9.381324400535226,-0.9440800087332724,100,jumping
1783087522119949600,1.2653051,-0.8779358039572834,-11.53871461586952,1.335618489408493,1.200312614440918,0.3095456659793854,-0.5154516100883484,-2.656055484037101,-9.402918977227806,-0.837175412089005,100,jumping
1783087522129912600,1.2752681,-1.53115099838078,-14.384133272594212,0.6175036834426224,1.1056324243545532,0.0830547288060188,-0.8262031078338623,-2.5915140382826327,-9.429492511376738,-0.7342209413100034,100,jumping
1783087522139875600,1.2852311,-1.815309300789237,-17.714824340224265,0.3822510854352265,1.0942004919052124,-0.0239012017846107,-0.9700481295585632,-2.5050273027017718,-9.46026174364984,-0.6313973303690552,100,jumping
1783087522149838600,1.2951941,-2.130964711353928,-21.663267366969585,0.2806657841175794,1.006008863449097,-0.1213542595505714,-0.846407413482666,-2.419215543773025,-9.488737312027812,-0.5307101834675296,100,jumping
1783087522159801600,1.3051571,-2.652083073274791,-24.88285602093935,-0.088481416529417,0.8165315985679626,-0.3908527791500091,-0.7085617780685425,-2.3477581811502573,-9.51134661872089,-0.4389913193868472,100,jumping
1783087522169764600,1.3151201,-4.220331630167365,-26.861764230823518,-0.3176724494755268,0.515390157699585,-0.8386329412460327,-0.7864206433296204,-2.2821702950827776,-9.530549916362762,-0.3615328531857579,100,jumping
1783087522179727600,1.3250831,-6.234273744031786,-28.115231675767895,-0.2502081020116806,0.1150282546877861,-1.105584979057312,-1.1547913551330566,-2.1942136330798268,-9.5530423186779,-0.3085388930903747,100,jumping
1783087522189690600,1.3350461,-8.361006955295801,-28.287805918478963,-0.1216442476744763,-0.4051030874252319,-1.6872862577438354,-1.8522542715072632,-2.0552662040300667,-9.584424714413284,-0.2916549235078506,100,jumping
1783087522199653600,1.3450091,-9.047427376967669,-27.52882996368408,1.443591372871399,-0.6736325025558472,-1.270885944366455,-2.216850996017456,-1.8622009619541464,-9.623043491142989,-0.3156230426650494,100,jumping
1783087522209616600,1.3549721,-9.34246772339642,-27.165070301294325,2.73603824455142,-0.9302416443824768,-1.1694775819778442,-2.3009402751922607,-1.649311952250451,-9.659845573839544,-0.370866389122419,100,jumping
1783087522219579600,1.3649351,-8.04238816488087,-20.825787784302232,-0.1621592316806316,-1.172797679901123,-1.2864227294921875,-2.511397361755371,-1.4229384609431028,-9.692202952086925,-0.4547965355556458,100,jumping
1783087522229543700,1.3748992,-6.484583552852272,-14.918001664364336,-0.424423097667098,-1.007382035255432,-1.1628503799438477,-2.6438167095184326,-1.1789567591655998,-9.720128485366702,-0.5473234280835837,100,jumping
1783087522239506700,1.3848622,-5.267520131197571,-11.61316399991512,-0.9758043497741222,-0.3813466131687164,-1.174607753753662,-2.728781223297119,-0.9252321734655647,-9.744162271904944,-0.6046683499300852,100,jumping
1783087522249469400,1.3948249,-4.203253654116392,-7.857017568960785,-1.6033984884679318,0.4630623757839203,-1.2606990337371826,-2.88972544670105,-0.6598186843417585,-9.7665517983675,-0.5911871562620624,100,jumping
1783087522259432400,1.4047879,-3.3072438488081097,-4.732960250031947,-0.6783353148937225,1.1143158674240112,-1.3508418798446655,-2.967780351638794,-0.3805750785144046,-9.78622680517435,-0.5052982404438778,100,jumping
1783087522269395700,1.4147512,-2.5173420098736883,-2.5936113028228283,0.9399439318418502,1.3345017433166504,-1.3625121116638184,-2.878200054168701,-0.100418029370252,-9.79877649014592,-0.3798503809690475,100,jumping
1783087522279358700,1.4247142,-1.966827603729069,-0.9398357952922582,3.069875646886229,1.1536588668823242,-1.3972283601760864,-2.633565187454224,0.1653406016631051,-9.801899006080626,-0.2565388211368583,100,jumping
1783087522289322500,1.434678,-1.5574331483677029,0.6364210037499666,4.315719172823429,0.6580473184585571,-1.591662049293518,-2.259679079055786,0.4013329851871356,-9.796936999759078,-0.1713559712287969,100,jumping
1783087522299285500,1.444641,-1.0299407213702798,3.1792315091401337,4.183608457925915,0.1188571751117706,-1.9465800523757932,-1.930294632911682,0.602576017293334,-9.787077869045731,-0.1427947064619045,100,jumping
1783087522309248500,1.454604,-0.4044786993343383,6.271210266762972,3.336894598445296,-0.2618379592895508,-2.308314561843872,-1.6519464254379272,0.773784378478676,-9.774675483590364,-0.1654751878282055,100,jumping
1783087522319211300,1.4645668,0.2028145557392388,9.053906802114843,2.1460843929439783,-0.4387768805027008,-2.5940046310424805,-1.412769079208374,0.9178216780133543,-9.761094117483497,-0.2214458256468176,100,jumping
1783087522329174300,1.4745298,0.5057050311464816,11.826965740549564,1.1460726536303758,-0.4562970101833343,-2.7232601642608643,-1.2440543174743652,1.0397523596800864,-9.747003632810712,-0.2919409191086888,100,jumping
1783087522339137300,1.4844928,0.6122452514577656,14.228893611043691,0.490968613252975,-0.3291491270065307,-2.7935690879821777,-1.1059528589248655,1.1449489833626896,-9.732881583955884,-0.361232408934459,100,jumping
1783087522349100300,1.4944558,0.3432945281185209,15.933924089515209,-0.3753039331784472,-0.0518280230462551,-2.711459159851074,-0.9151594638824464,1.2328383522830904,-9.720072371265292,-0.4131367836948484,100,jumping
1783087522359063300,1.5044188,0.0034717677637934,15.969240902090071,-0.8543377784878015,0.2843475043773651,-2.418776750564575,-0.5752788186073303,1.2947842285864055,-9.711098206692933,-0.4341914448244497,100,jumping
1783087522369026300,1.5143818,-0.4447833102591335,15.34901875346899,-0.8431751639604568,0.5229044556617737,-2.018863677978516,-0.1811487972736358,1.3215097384266554,-9.707980366933343,-0.4232080958541482,100,jumping
1783087522378989300,1.5243448,-1.0087783986151218,15.013720630931854,-0.8474977033346891,0.6059631109237671,-1.802991271018982,0.0835659578442573,1.317480629041046,-9.70981635018885,-0.3925488267615437,100,jumping
1783087522388952300,1.5343078,-1.7788116078667342,14.792158777689933,-0.7229016018509864,0.5814484357833862,-1.6801899671554563,0.2388767004013061,1.2950333810418844,-9.714206694102288,-0.3570327287549152,100,jumping
1783087522398915300,1.5442708,-2.4508960456721485,14.18512461194396,-0.0299959098130464,0.4297177493572235,-1.576504111289978,0.3613358736038208,1.2603794162899256,-9.719788878148794,-0.327937274912931,100,jumping
1783087522408878300,1.5542338,-2.815555433380604,13.728476237976553,0.2423024799862876,0.1559027135372162,-1.469761610031128,0.4828910529613495,1.2144326347596943,-9.72596902808845,-0.3178698717437684,100,jumping
1783087522418841300,1.5641968,-2.7612156481668357,13.69566819335222,0.138487848713994,-0.137390986084938,-1.3379677534103394,0.5652332901954651,1.1588961140420286,-9.73221698256731,-0.3336153936145827,100,jumping
1783087522428804400,1.5741599,-2.539532506632805,13.761629150515796,-0.2895539874395355,-0.3089693784713745,-1.2479939460754397,0.608052134513855,1.0971751325357704,-9.738022453975676,-0.3707965022239833,100,jumping
1783087522438767400,1.5841229,-2.4232985753029586,13.843648093032836,-0.9169815739274024,-0.2678188681602478,-1.1897224187850952,0.5647978782653809,1.0349611798807978,-9.743129421725868,-0.413147049360536,100,jumping
1783087522448730000,1.5940855,-2.167314227977395,13.772932634818552,-1.4703601373314856,-0.0165514815598726,-1.17143714427948,0.4338342845439911,0.9811368699084968,-9.747532040598989,-0.4397638381293043,100,jumping
1783087522458693400,1.6040489,-2.007080411401391,13.472536314314604,-1.83128720664382,0.3456040024757385,-1.195638656616211,0.2812576591968536,0.9413617627505212,-9.751648828268053,-0.4354231055112555,100,jumping
1783087522468656400,1.6140119,-1.9261323129862544,12.881896818530558,-1.7113842314124106,0.6562702655792236,-1.0823994874954224,0.1722957640886306,0.9150313166424632,-9.755816469341516,-0.3964110916802659,100,jumping
1783087522478619400,1.6239749,-1.6139710281476378,12.078137134635448,-1.3673293864458798,0.7604432106018066,-0.9857743382453918,0.1341612786054611,0.8967579933270812,-9.75980057054162,-0.3353967971386388,100,jumping
1783087522488582400,1.6339379,-0.9268291603334248,11.62105738351345,-1.6165788725584744,0.7275545001029968,-0.9392443895339966,0.1514124274253845,0.880291646368429,-9.76330594831407,-0.270799785272032,100,jumping
1783087522498545400,1.6439009,-0.1011778164952993,11.08563416351676,-1.5282885946869849,0.6331949830055237,-0.9606440663337708,0.2333485782146453,0.8596910491492599,-9.766577517330646,-0.2127449981231242,100,jumping
1783087522508508400,1.6538639,0.5618018160954118,10.199178660756347,-1.4739549469530582,0.5571545362472534,-1.136054754257202,0.3577296435832977,0.8290800031125545,-9.7701676507771,-0.1638283522029407,100,jumping
1783087522518471200,1.6638267,0.8506879507433622,9.04768456659913,-1.6203735886663198,0.4719245731830597,-1.4239156246185305,0.494307667016983,0.7858982293162494,-9.77432418593466,-0.1238020010970998,100,jumping
1783087522528434200,1.6737897,0.7450070506751537,7.901976070106029,-1.569969681596756,0.3037270307540893,-1.6946719884872437,0.6382757425308228,0.7290729108970612,-9.779029587146638,-0.0969934160832781,100,jumping
1783087522538397400,1.6837529,0.4933396897658705,6.978128702062368,-1.3300076637893914,0.0033008519094437,-1.8754186630249023,0.7970783710479736,0.6575232668809592,-9.784131294199824,-0.0937941268516238,100,jumping
1783087522548360400,1.6937159,0.3606603812001645,6.362425492170453,-1.1143518197208642,-0.3963490724563598,-1.9831783771514893,0.9567029476165771,0.5700856237834319,-9.789276255872846,-0.1243483738003298,100,jumping
1783087522558323500,1.703679,0.2676455590248108,6.098260760998725,-1.1041098271697758,-0.7573164105415344,-2.0540122985839844,1.1148903369903564,0.46572815433871,-9.793711023449896,-0.1916022385849617,100,jumping
1783087522568286500,1.713642,0.1545189825931563,5.979971066182851,-1.3054296873718498,-0.9839186668395996,-2.046114206314087,1.2026745080947876,0.3472159028133377,-9.796329096993803,-0.285966100749094,100,jumping
1783087522578249200,1.7236047,0.0720045664430596,5.674838364806771,-1.6144862841933965,-1.0320557355880735,-1.976173996925354,1.17922842502594,0.2236791376568377,-9.796306885161997,-0.3908072437912225,100,jumping
1783087522588212200,1.7335677,-0.1191164462299086,5.091871303346752,-1.740584022411704,-1.0133358240127563,-1.889818787574768,1.059437870979309,0.1054995156193152,-9.79363386656046,-0.493954351065494,100,jumping
1783087522598175200,1.7435307,-0.1514677143969107,4.57812332406342,-1.2492542111635208,-1.0187677145004272,-1.7945090532302856,0.8539565801620483,0.0016803767071462,-9.788654324582218,-0.5938323370086028,100,jumping
1783087522608138200,1.7534937,-0.2783217234757729,4.36219275470674,-0.9206552209388464,-1.0520260334014893,-1.7066105604171753,0.5385459065437317,-0.077965411076229,-9.781766903156042,-0.6937847398947924,100,jumping
1783087522618101200,1.7634567,-0.2840628061447292,4.099811984342336,-0.3752892835985869,-1.1286484003067017,-1.5391318798065186,0.2181401252746582,-0.126393040503608,-9.77332114637196,-0.7978695298779755,100,jumping
1783087522628064500,1.77342,-0.0460770111806225,3.3898563733041285,-0.0164998839020729,-1.2493788003921509,-1.3968815803527832,-0.0235745031386613,-0.1480028969637118,-9.763071555036303,-0.9115521692898124,100,jumping
1783087522638027500,1.783383,0.2160123293559998,2.976881136846542,-0.1282189681559801,-1.335522174835205,-1.2309483289718628,-0.2094115912914276,-0.1486753071994055,-9.750676183843613,-1.0356625330831857,100,jumping
1783087522647990300,1.7933458,0.7160102349020541,2.7022043640106914,-0.1163636951893568,-1.3555086851119995,-1.0828226804733276,-0.2381100803613662,-0.138708460061578,-9.736218619424104,-1.1649833250012247,100,jumping
1783087522657953300,1.8033088,1.0788199761558324,2.111589418146014,-0.4014496338367462,-1.2748678922653198,-1.0248693227767944,-0.2147725075483322,-0.1298183570434805,-9.720362294122577,-1.2915500689707695,100,jumping
1783087522667917300,1.8132728,1.0729857170443982,1.5235025294542313,-0.5568342568159103,-1.183542251586914,-0.9775487184524536,-0.2833305299282074,-0.1197942358936183,-9.704190327000616,-1.4088051600418985,100,jumping
1783087522677880300,1.8232358,0.794602929297462,1.227127135029435,-0.273874224281311,-1.2368996143341064,-0.9378646016120912,-0.4275695085525512,-0.0996858609044924,-9.687038116669656,-1.5237221635542808,100,jumping
1783087522687843300,1.8331988,0.3451247757529839,1.071559556698799,0.1002275300331413,-1.406639575958252,-0.9053807258605956,-0.5850366353988647,-0.0654521536914864,-9.666593294534088,-1.650173975907266,100,jumping
1783087522697806300,1.8431618,0.1653587949069216,0.6209224058449268,-0.1109561370573937,-1.5481473207473757,-0.8512051105499268,-0.6802229881286621,-0.018863717823429,-9.641376435691118,-1.7927331657133996,100,jumping
1783087522707769300,1.8531248,0.2818058940634131,-0.2368704815328121,-0.8315161442182958,-1.5220770835876465,-0.6847937107086182,-0.5902236104011536,0.0288417713418602,-9.61257528862059,-1.9411191619768735,100,jumping
1783087522717732400,1.8630879,0.7320898475654423,-1.7204577647060155,-1.6961287946134804,-1.3648202419281006,-0.3855925798416137,-0.3663173317909241,0.064281388312485,-9.58331646091044,-2.0799759901337325,100,jumping
1783087522727695000,1.8730505,1.5591836452968415,-3.7117449791699646,-2.6746991019696,-1.1669819355010986,-0.0961272194981575,-0.0731938630342483,0.0803956064983736,-9.556171848875284,-2.200793011470139,100,jumping
1783087522737658400,1.8830139,1.429470346929878,-5.737705447608232,-2.6859429650396107,-0.9152897000312804,0.213770642876625,0.1244269162416458,0.0778291444106958,-9.53266237847209,-2.300580834911764,100,jumping
1783087522747621400,1.8929769,0.0138352038706187,-6.5912289871037,-1.33785282433182,-0.5252169966697693,0.526900053024292,0.0691151991486549,0.0760968407253734,-9.51576326611936,-2.3695687386810778,100,jumping
1783087522757584400,1.9029399,-1.3801283700034022,-7.42292881732583,-0.4539829541504382,0.0670285299420356,0.7792701721191406,-0.1435224562883377,0.0947412989080883,-9.509912786525488,-2.392273760833591,100,jumping
1783087522767547400,1.9129029,-2.4458500143289563,-9.999682508850096,0.2860622363336384,0.8231774568557739,1.1589748859405518,-0.2756986320018768,0.1384381004212889,-9.520092819756268,-2.349265370842814,100,jumping
1783087522777510400,1.9228659,-3.047453971719741,-13.828838646435736,1.4620593419760464,1.5172418355941772,1.5033904314041138,-0.2269767075777053,0.1938649228199385,-9.54665057181418,-2.234787781661004,100,jumping
1783087522787473400,1.9328289,-3.858725346419215,-17.656376827430723,2.6421923783794043,1.9582802057266235,1.791996717453003,-0.0661297664046287,0.2437800965244881,-9.583952420726416,-2.063693840635568,100,jumping
1783087522797436200,1.9427917,-4.73676081135869,-21.671663439393043,4.013016913464665,2.079714775085449,1.9301563501358032,0.1433077901601791,0.2768120312988757,-9.623992170169949,-1.863472735455632,100,jumping
1783087522807399200,1.9527547,-5.519692226758599,-25.109559328722952,5.209714423438906,1.8570533990859983,1.7455062866210938,0.3168827593326568,0.2868650771491229,-9.659636315003038,-1.6671939381606875,100,jumping
1783087522817362400,1.9627179,-6.153573482897877,-27.027338239383692,6.046273384130001,1.3376156091690063,1.337815523147583,0.4263979792594909,0.2755092781372368,-9.686246674031018,-1.5070166740775108,100,jumping
1783087522827325400,1.9726809,-6.297358853498101,-27.568044368219372,6.493798540443182,0.562167227268219,0.9672457575798036,0.5512693524360657,0.2449667490257881,-9.70144482768476,-1.4115068202160297,100,jumping
1783087522837288400,1.9826439,-6.2014165995687245,-26.49380302509069,6.088016430360079,-0.1219311356544494,0.8565826416015625,0.7127168774604797,0.1966089790973812,-9.705628250849246,-1.3901440064527093,100,jumping
1783087522847251500,1.992607,-5.331957239794731,-24.54902154121399,3.977036084023118,-0.371975302696228,0.7745847105979919,0.8400998711585999,0.1323496564862318,-9.703024790352584,-1.4156892204672098,100,jumping
1783087522857214200,2.0025697,-3.9997158256039023,-21.80311773620844,0.358588397231698,-0.0537224225699901,0.6095487475395203,0.8580992221832275,0.0594584434017539,-9.700387427586316,-1.438522837435454,100,jumping
1783087522867177200,2.0125327,-3.150982442994416,-19.196475102376937,-2.696100786438584,0.6099058985710144,0.3299117982387543,0.7949562072753906,-0.0140026477007719,-9.704383219224214,-1.4124990461237728,100,jumping
1783087522877140200,2.0224957,-2.930964896585047,-16.835886958009002,-4.359182466974854,1.2451127767562866,-0.0195412635803222,0.6388553977012634,-0.0818384805167559,-9.716857500872017,-1.3215097384266554,100,jumping
1783087522887103200,2.0324587,-3.3243650794789192,-14.897438184285162,-4.180897445401549,1.4754163026809692,-0.1599628180265426,0.4622776806354522,-0.1363036365427076,-9.733659582591056,-1.1864540561184287,100,jumping
1783087522897066200,2.0424217,-3.4161937606096267,-13.222357438397406,-3.30281346514523,1.2545228004455566,-0.2401713728904724,0.3059653341770172,-0.1760066100462339,-9.748511114764211,-1.0516408773291857,100,jumping
1783087522907029500,2.052385,-2.7459455983206627,-10.404260503840446,-3.3873213018685577,0.9104689359664916,-0.3443031013011932,0.1404187083244323,-0.2005684573128819,-9.758808052372933,-0.946482978221774,100,jumping
1783087522916992500,2.062348,-1.5104033939063548,-7.243043374818563,-4.050842493990063,0.7332276701927185,-0.4453112185001373,0.0156445018947124,-0.2113269297524355,-9.765963769346476,-0.8669977189008146,100,jumping
1783087522926955300,2.0723108,-0.0170249306894838,-4.08171518663764,-4.927728788894415,0.7398973107337952,-0.6415526270866394,-0.0789523124694824,-0.212668681483902,-9.77203344464898,-0.7953109314363449,100,jumping
1783087522936918300,2.0822738,0.9863898220006376,-0.925773952192068,-5.279563620212674,0.8525490164756775,-0.7916372418403625,-0.1529279947280883,-0.2066284332052804,-9.778253926599024,-0.7165645077839493,100,jumping
1783087522946881300,2.0922368,1.6370523362666367,1.9385791221052409,-4.589584044754505,0.939777374267578,-0.8380209803581238,-0.2308334559202194,-0.1934983545298688,-9.784677237644791,-0.6269322407189756,100,jumping
1783087522956844300,2.1021998,2.1759603296391665,4.986003867730498,-3.5210067187368868,0.969667911529541,-0.8902280926704407,-0.3432668149471283,-0.1706668381871655,-9.790717102330923,-0.5320770513739437,100,jumping
1783087522966807300,2.1121628,2.486817107750475,8.077792071217297,-2.3449475076436994,0.9914230108261108,-0.9982547163963318,-0.5161831974983215,-0.1334667143500409,-9.796081844234466,-0.4351694230111315,100,jumping
1783087522976770300,2.1221258,2.805619730299711,10.505249519765377,-1.4084130919843911,1.036389708518982,-1.1398833990097046,-0.6699011325836182,-0.0792227176609449,-9.80060604366064,-0.3350148486163466,100,jumping
1783087522986733300,2.1320888,3.057645110866427,12.06002397031784,-0.7989642663121223,1.093381643295288,-1.2364048957824707,-0.7244162559509277,-0.0137169249529251,-9.803937818431852,-0.2302427704887464,100,jumping
1783087522996696300,2.1420518,3.202055043105781,12.654990097129344,-0.4630114792585372,1.096299409866333,-1.31032395362854,-0.6446303725242615,0.051814696316095,-9.805740483939648,-0.123119334328873,100,jumping
1783087523006659300,2.1520148,3.2068168506801125,12.852386646407842,-0.3209709064990282,0.9886164665222168,-1.3638696670532229,-0.4482496976852417,0.1049627418614923,-9.806066062632205,-0.0215495867733843,100,jumping
1783087523016622300,2.1619778,3.123006933093071,13.186407004094123,-0.2896691747844219,0.7837314605712891,-1.452887773513794,-0.1796107292175293,0.1363994889994617,-9.805494984745978,0.0637163063422078,100,jumping
1783087523026585300,2.1719408,3.0110233526840804,13.57994688771963,-0.2292424708724021,0.4912857115268707,-1.5593074560165403,0.1923825442790985,0.1379501981733366,-9.804888835546372,0.1244955819849856,100,jumping
1783087523036548400,2.1819039,3.0312530707642438,13.655123416996002,-0.2184066040813922,0.1328315287828445,-1.6824404001235962,0.6501513719558716,0.0994648020323365,-9.804946703213451,0.1533146483046933,100,jumping
1783087523046511400,2.1918669,3.005380670621991,13.871197778737544,-0.1854606122910976,-0.2625461518764496,-1.7125853300094604,1.0825613737106323,0.0168498835081874,-9.805544084584712,0.1462558341006748,100,jumping
1783087523056474400,2.2018299,2.887713783879578,14.170209951406717,-0.4380068018615246,-0.6143383383750916,-1.623915433883667,1.3605153560638428,-0.1016111481449566,-9.805579155898094,0.1032674639846198,100,jumping
1783087523066437000,2.2117925,3.017472967214882,14.205089541608094,-0.666278966397047,-0.8007841110229492,-1.4447611570358276,1.4747577905654907,-0.2398997844924218,-9.80364848009646,0.0360049181366106,100,jumping
1783087523076400400,2.2217559,2.991008738659322,13.89520993796587,-0.6836585557430982,-0.8450900316238403,-1.2075920104980469,1.466272473335266,-0.384321681164205,-9.799030757167936,-0.0410365510616917,100,jumping
1783087523086363400,2.2317189,3.1433512174636125,13.563968397343158,-0.7856324910521507,-0.7667385339736938,-0.993458926677704,1.3265668153762815,-0.5222989500075579,-9.792052150326969,-0.1153351375929079,100,jumping
1783087523096326400,2.2416819,4.057054208111762,12.279226693212983,-1.2524100448459383,-0.6151423454284668,-0.915949523448944,1.0865380764007568,-0.6417256129641086,-9.784020819562674,-0.177527042812854,100,jumping
1783087523106289400,2.2516449,3.7528617101952433,10.861242055284976,-1.4038976603865625,-0.3971964120864868,-0.8518003225326538,0.7532773017883301,-0.7337733436729759,-9.776667534190416,-0.2207180410952307,100,jumping
1783087523116252400,2.2616079,3.021466713026166,10.396395177292824,-1.115792081657052,-0.1819814294576645,-0.8567297458648682,0.304444670677185,-0.7878264208998531,-9.771956287759542,-0.2420192791307344,100,jumping
1783087523126215200,2.2715707,2.3695595324613152,10.113718053352832,-1.5306243441581726,-0.0157306659966707,-0.8746472597122192,-0.1680203527212143,-0.7964194041348993,-9.771198162868618,-0.2445266040428541,100,jumping
1783087523136178200,2.2815337,1.8639353845313191,9.717477094075084,-1.6845342184096574,0.1241531148552894,-0.8163670897483826,-0.5498015880584717,-0.7626026208594441,-9.774189745900037,-0.2324732694871723,100,jumping
1783087523146141200,2.2914967,1.8513386455476284,9.226094091334938,-1.892528149548173,0.2402738481760025,-0.733634352684021,-0.766008734703064,-0.6992785150054842,-9.779453950038551,-0.2089825951159931,100,jumping
1783087523156104400,2.3014599,2.0345643383935093,8.73186388247013,-2.355924244210124,0.3290751576423645,-0.6716858744621277,-0.8156319260597229,-0.6221349234398454,-9.78531261293888,-0.1760936855414882,100,jumping
1783087523166067500,2.311423,2.0997350219622253,8.04220462500751,-2.4106904381424186,0.2796974778175354,-0.6158673763275146,-0.6384350657463074,-0.5511354971850291,-9.790122059047222,-0.1419772617323324,100,jumping
1783087523176030500,2.321386,2.026791658565402,7.213168461036681,-2.129036812031269,0.1348663866519928,-0.6264345645904541,-0.3804588317871094,-0.5022837514609099,-9.79307155650258,-0.1177718266879208,100,jumping
1783087523185993500,2.331349,1.6521610580712556,6.685629272288083,-1.915415104138851,-0.1143631488084793,-0.6170716881752014,-0.217756450176239,-0.474662790618278,-9.794500128000974,-0.1133716920328326,100,jumping
1783087523195956200,2.3413117,0.9847559371884912,6.210604699152707,-1.7827186983078718,-0.3826072812080383,-0.544134795665741,-0.1453938782215118,-0.4578821170134469,-9.795025028657912,-0.1350366488141939,100,jumping
1783087523205919200,2.3512747,0.2153180634815245,5.437208589339256,-1.6798434302449226,-0.623524010181427,-0.410346657037735,-0.1189351081848144,-0.4460594311421736,-9.79480641747117,-0.182246655213274,100,jumping
1783087523215882200,2.3612377,-0.4479092967925593,4.76180815885365,-1.856367871886492,-0.7279295921325684,-0.2165208309888839,-0.184810608625412,-0.4325583637299016,-9.793971135690809,-0.2478360025854781,100,jumping
1783087523225845200,2.3712007,-1.0223161447759717,4.43155270665884,-2.0741654041588307,-0.6820777058601379,-0.0044354740530252,-0.3520741760730743,-0.4071719204736873,-9.793066880327462,-0.3168938297858462,100,jumping
1783087523235808300,2.3811638,-1.4863834897629915,4.3673903233498335,-2.355854686105251,-0.5718309283256531,0.1778484135866165,-0.5721625089645386,-0.3617905908064917,-9.792651285263895,-0.3787725956697017,100,jumping
1783087523245771500,2.391127,-1.852058776515722,4.280533293151855,-2.506505266299844,-0.4714268147945404,0.351818323135376,-0.7411033511161804,-0.2959890802546404,-9.792733118328451,-0.4302824181545525,100,jumping
1783087523255734500,2.40109,-1.753167025130987,3.753891930025816,-2.4178262813717124,-0.4658193588256836,0.4843672215938568,-0.8177005648612976,-0.2175603259829804,-9.792666482833027,-0.4761647196138277,100,jumping
1783087523265697300,2.4110528,-1.7123453315295278,3.53983826045692,-2.238587320074439,-0.5724563002586365,0.6218878030776978,-0.8210734128952026,-0.1344820745381992,-9.791548292458057,-0.5271645832825452,100,jumping
1783087523275660300,2.4210158,-1.8984031790614129,3.645893912121653,-1.6818062547504902,-0.7887043952941895,0.8386325240135193,-0.7186294794082642,-0.0545170460433932,-9.788517546460032,-0.5935828922921791,100,jumping
1783087523285623000,2.4309785,-1.9193847384221847,3.328268808919191,-1.119635897603631,-1.1274042129516602,1.085422158241272,-0.4667772650718689,0.0101586445245251,-9.78258757188916,-0.6864902720376849,100,jumping
1783087523295585800,2.4409413,-2.095987213736027,2.939184151136875,-0.7278285368591546,-1.5313788652420044,1.4117575883865356,-0.1982171833515167,0.0511893857582937,-9.772534964430331,-0.8156832728575915,100,jumping
1783087523305548800,2.4509043,-2.385029634924233,3.1691707183748483,-0.327821503046155,-1.799125909805298,1.7797890901565552,-0.071817435324192,0.0777675504165701,-9.757415136709808,-0.9783649209771303,100,jumping
1783087523315512000,2.4608675,-2.2221891429811715,3.2144396006435154,-0.3867636674888431,-1.714928388595581,2.082291603088379,-0.0384699739515781,0.1034703570124227,-9.738490071487426,-1.1495659756388514,100,jumping
1783087523325475000,2.4708305,-1.7080945422172544,2.437102644249797,-0.6313818405389785,-1.2550175189971924,2.266594648361206,-0.011316648684442,0.1328592865088023,-9.72011445684135,-1.2931075275458397,100,jumping
1783087523335438000,2.4807935,-0.7212238778971135,1.018465095371008,-0.5251614998318255,-0.6082961559295654,2.311636686325073,0.1352472603321075,0.1584367040261626,-9.707772277140617,-1.380024325107038,100,jumping
1783087523345401000,2.4907565,0.5052845407120883,-0.8053869928359985,0.0527501779347658,-0.0419275015592575,2.265594720840454,0.3537614941596985,0.1664386808318086,-9.7038115568161,-1.40667150901407,100,jumping
1783087523355363800,2.5007193,1.1634739433515815,-2.310923657488823,1.2419916728146374,0.3797047138214111,2.1777772903442383,0.4506058096885681,0.1575268591722473,-9.706920044225454,-1.3860923929743467,100,jumping
1783087523365326800,2.5106823,0.7817860447570681,-3.918823549029231,2.749500368192792,0.6930530667304993,2.022747755050659,0.4645828604698181,0.1420764477904885,-9.714958389252423,-1.3303370418742295,100,jumping
1783087523375291000,2.5206465,0.4897505061674863,-6.134486505112052,4.282420129811763,0.9043043851852416,1.6540632247924805,0.5339914560317993,0.1180772941742092,-9.725902392593026,-1.2503136570885778,100,jumping
1783087523385252900,2.5306084,0.121869589996105,-8.493286012497544,5.752918214309215,1.15062415599823,1.055989146232605,0.6539239883422852,0.0772980697412975,-9.738708682674169,-1.149766466647014,100,jumping
1783087523395216000,2.5405715,0.017694855565502,-12.247487154603004,6.530451570057869,1.3377351760864258,0.2686178088188171,0.9385056495666504,0.0087909129641862,-9.752681093925236,-1.0273788349930195,100,jumping
1783087523405180000,2.5505355,-0.5725586628334597,-16.58670410739183,7.073078437823057,1.2220927476882937,-0.4186897277832031,1.4211698770523071,-0.1058982691459357,-9.764626967784762,-0.90067662807554,100,jumping
1783087523415143000,2.5604985,-2.439851066175103,-21.22999869954586,7.950064685970545,0.7690998315811157,-0.7627542018890381,2.007305860519409,-0.2777175835701637,-9.769974174031615,-0.8005295428674668,100,jumping
1783087523425106200,2.5704617,-5.471310765427351,-25.679585075545308,8.656210967853665,0.1276876032352447,-0.8373147249221802,2.411781549453736,-0.5014744443720206,-9.764775436344742,-0.7536994026314466,100,jumping
1783087523435069000,2.5804245,-9.22579364708364,-28.1893069658041,8.13646111780703,-0.4067836105823517,-0.8510069847106934,2.322136163711548,-0.7411182265430688,-9.748764212742447,-0.7633673216216266,100,jumping
1783087523445032000,2.5903875,-12.015092941701411,-28.935484229302403,7.18941115335226,-0.7174056172370911,-0.8759592175483704,1.807881474494934,-0.9499581800516694,-9.726682729315757,-0.8121554640576243,100,jumping
1783087523454995000,2.6003505,-13.04843879534006,-29.034436770963666,5.698835910987854,-0.7630925178527832,-1.118468999862671,1.1385444402694702,-1.1012936007052658,-9.705242466402051,-0.8751181892532854,100,jumping
1783087523464958000,2.6103135,-12.899212694990634,-28.6792415233016,3.412767877814173,-0.6068491339683533,-1.4391828775405884,0.4404455721378326,-1.1887190784409642,-9.69008522928059,-0.927137349499762,100,jumping
1783087523474921000,2.6202765,-12.28445933316946,-27.052346423912045,1.8505818358309565,-0.451368510723114,-1.7475602626800537,-0.1736307442188263,-1.2158446204494684,-9.683685299110412,-0.9582925854157656,100,jumping
1783087523484884000,2.6302395,-11.138050579452514,-24.18164719545841,0.4483182063870132,-0.3679447174072265,-1.943516969680786,-0.6740422248840332,-1.192237388760224,-9.68493559143245,-0.975192282290384,100,jumping
1783087523494847000,2.6402025,-9.585669161516428,-20.766402698397638,-0.6020674832493066,-0.3125535845756531,-2.00142502784729,-0.9921910762786864,-1.1297300061166289,-9.691434305801987,-0.98498908835724,100,jumping
1783087523504810000,2.6501655,-7.272152564924955,-17.52898495774865,-1.9503544617034492,-0.2539334297180176,-2.1288204193115234,-1.0770769119262695,-1.0490450156170874,-9.699973001566528,-0.9901740167144686,100,jumping
1783087523514773000,2.6601285,-5.47392416279614,-14.1694231849432,-3.0663772833764558,-0.1951083838939666,-2.235219240188598,-1.0977047681808472,-0.9655805504668504,-9.70869815981388,-0.9895502587929368,100,jumping
1783087523524736000,2.6700915,-4.089887094916403,-10.421821879494187,-3.338607832103968,-0.263182520866394,-2.293663740158081,-1.150973558425903,-0.8794280152764171,-9.716855162784457,-0.9898097134467214,100,jumping
1783087523534699000,2.6800545,-2.738793973000348,-6.0623828074097625,-3.591961246404052,-0.400164783000946,-2.3157331943511963,-1.258725881576538,-0.7859196374304592,-9.723485979101062,-1.0032600005198269,100,jumping
1783087523544662000,2.6900175,-1.415667885418236,-2.088400265738368,-3.877171688213944,-0.3908296227455139,-2.248450994491577,-1.3933051824569702,-0.6804555219180881,-9.72907985358536,-1.025853817382827,100,jumping
1783087523554625000,2.6999805,-0.1290935955660417,1.4516326405078173,-4.134688651934266,-0.2465279698371887,-2.2170627117156982,-1.4914042949676514,-0.56327967009563,-9.734672559025883,-1.0436699715152382,100,jumping
1783087523564588000,2.7099435,0.8672596577726304,4.53882825550735,-4.152739856931567,-0.0545705184340477,-2.1826376914978027,-1.5224084854125977,-0.4392961475523188,-9.740679690486193,-1.0471670929159969,100,jumping
1783087523574550800,2.7199063,1.7261504233896732,7.369787009724974,-3.633486265969277,0.106354221701622,-2.220334529876709,-1.5007761716842651,-0.3153671682078391,-9.74663070784509,-1.0364038529697803,100,jumping
1783087523584513800,2.7298693,2.092457578305155,10.51225443009138,-2.9224276621252296,0.2486341446638107,-2.240152597427368,-1.5068175792694092,-0.192209520295728,-9.75224620963931,-1.013490156502649,100,jumping
1783087523594477000,2.7398325,2.195701241289079,13.114520164012909,-2.051755565560609,0.361723780632019,-2.186356782913208,-1.464023470878601,-0.0690517856186488,-9.757252055102589,-0.9806504015658052,100,jumping
1783087523604440000,2.7497955,1.635474127164483,14.410669397342204,-0.8806010776437818,0.4034762978553772,-1.9835896492004397,-1.268570899963379,0.0445070812830468,-9.761130942362549,-0.9427331241689622,100,jumping
1783087523614403000,2.7597585,1.1184455918405205,15.291158100652694,0.1119493858784437,0.3711839914321899,-1.8290717601776123,-0.9972969889640808,0.1373132337103597,-9.763695239892602,-0.9065252079732716,100,jumping
1783087523624366000,2.7697215,0.7373202955648303,16.72009434070587,0.0412514633208513,0.3506148159503937,-1.7631436586380005,-0.7473214864730835,0.2059950124062597,-9.765387430763244,-0.8747329162627459,100,jumping
1783087523634328800,2.7796843,0.6685599900063127,17.79431931722164,0.3221786017883569,0.3952898681163788,-1.5531384944915771,-0.4738548099994659,0.2514119613761082,-9.767159116610884,-0.8424686961915343,100,jumping
1783087523644291800,2.7896473,1.3365702371753752,17.572476893472672,0.5362854628492146,0.4467985928058624,-1.3073012828826904,-0.1826663762331009,0.2717346001704223,-9.769773098501563,-0.8050343800060451,100,jumping
1783087523654254800,2.7996103,1.9081473050929605,16.925120069688557,0.4981581959635019,0.4393671751022339,-1.0086158514022827,0.0993717387318611,0.2662367516728118,-9.773191382512447,-0.7643634930521249,100,jumping
1783087523664217900,2.8095734,2.0387857554808257,16.92944436262846,0.9191144212376324,0.3304963409900665,-0.7457195520401001,0.2996606230735779,0.2397460187028162,-9.776617849829792,-0.7284761871129274,100,jumping
1783087523674180900,2.8195364,2.112551102785021,17.059456059420107,0.9051075962603092,0.2053659558296203,-0.5433283448219299,0.3823555409908294,0.2012950362880714,-9.77928794582188,-0.7038450192034245,100,jumping
1783087523684144000,2.8294995,2.345959022773802,16.27745695643425,0.7804518735438585,0.1587145626544952,-0.4136925935745239,0.4266636073589325,0.158974372833129,-9.781239079889655,-0.6873770648095756,100,jumping
1783087523694107100,2.8394626,2.766978449477256,14.945589928513764,0.7528980961859226,0.1559009104967117,-0.3905622959136963,0.5530325174331665,0.1090563495843671,-9.78294296119809,-0.672692267505452,100,jumping
1783087523704070000,2.8494255,3.2943846594959494,13.39779350028038,0.6405589072722941,0.1579432785511016,-0.4152964055538177,0.7704859972000122,0.0423841114794369,-9.78449369777143,-0.6574678834319114,100,jumping
1783087523714033000,2.8593885,3.680377488742769,11.56171087605357,0.4633412226695567,0.1092142015695571,-0.5129520893096924,0.9888098239898682,-0.0468773723446531,-9.785362881821394,-0.6441034480113536,100,jumping
1783087523723996000,2.8693515,3.583295417128503,10.354428843700886,0.0839156429838389,0.0690313726663589,-0.621016800403595,1.036888837814331,-0.1506088234120979,-9.784909292834996,-0.6350312298920006,100,jumping
1783087523733959000,2.8793145,2.900672634173929,9.6825863979578,0.0503583143621683,0.0760149210691452,-0.7184514403343201,0.8663229942321777,-0.2486453096743673,-9.783442142891884,-0.6267620717838406,100,jumping
1783087523743922000,2.8892775,2.132385537937284,9.114799954494831,-0.1138642795890569,0.1298691034317016,-0.8097594976425171,0.547267735004425,-0.3229675967415794,-9.782034614181518,-0.6147209939215332,100,jumping
1783087523753885000,2.8992405,1.6185203620150683,8.754652052861452,-0.2642366273641586,0.2052777856588363,-0.8221731781959534,0.2003793269395828,-0.3641081835664808,-9.781764565068483,-0.5957309737041592,100,jumping
1783087523763848200,2.9092037,1.1927968492738903,8.306267649370431,-0.2380489507276564,0.3025329709053039,-0.8059441447257996,-0.0879414230585098,-0.3736804966950789,-9.783042329919338,-0.5681987140582874,100,jumping
1783087523773811000,2.9191665,0.914889570084214,7.72858525031507,-0.4141103414347395,0.4322707653045654,-0.8198791146278381,-0.3161113858222961,-0.3580881195593625,-9.78580244228244,-0.529354823335819,100,jumping
1783087523783774000,2.9291295,0.7320956927843392,7.327281746950745,-0.6603788024425506,0.5601145029067993,-0.8700554966926575,-0.5244012475013733,-0.3213404704637825,-9.789717569899558,-0.4780643061574548,100,jumping
1783087523793737000,2.9390925,0.5809699693586677,7.323002462196349,-0.5768061642101034,0.656755268573761,-0.8814823627471924,-0.72137451171875,-0.2643367450040765,-9.7942663192451,-0.4157400615284219,100,jumping
1783087523803700000,2.9490555,0.418940318874456,7.319823247638344,-0.3713367465805262,0.6499069929122925,-0.8245375752449036,-0.8333449959754944,-0.1910421022178605,-9.798568400353192,-0.3491684981858358,100,jumping
1783087523813663000,2.9590185,0.3632296471662819,7.199085575148463,-0.1629945134609937,0.5237048268318176,-0.7270975112915039,-0.8619877696037292,-0.110341923282342,-9.801732417342066,-0.290258025789354,100,jumping
1783087523823626000,2.9689815,0.2886462432111613,7.55306910893321,-0.1974766287773847,0.3233978152275085,-0.6488200426101685,-0.8444055914878845,-0.0284263246920541,-9.803469031876324,-0.248144082153961,100,jumping
1783087523833588700,2.9789442,0.4038268112968653,7.851254767650365,-0.3961363298594951,0.0911433398723602,-0.5655161142349243,-0.7452709674835205,0.0485276511691743,-9.803875274589656,-0.2281517164936289,100,jumping
1783087523843552000,2.9889075,0.793206214242056,7.767697363519668,-0.5936936226576567,-0.0775980055332183,-0.5061883330345154,-0.5256145000457764,0.1098567883802112,-9.80336732506752,-0.2287147206712514,100,jumping
1783087523853515000,2.9988705,1.1683503902815282,7.379423437598347,-0.918511852234602,-0.0867313891649246,-0.5526735782623291,-0.2475983649492263,0.1465153618196956,-9.8026542083621,-0.2384863374979235,100,jumping
1783087523863478000,3.0088335,1.1937161560758949,7.07344551756978,-1.1981669980049132,-0.0016255446244031,-0.6750538349151611,0.0279381312429904,0.1555660987596027,-9.802386497336624,-0.2437410431557334,100,jumping
1783087523873441000,3.0187965,0.9303343919754028,6.82004709508419,-1.0043588286072016,-0.0103041641414165,-0.7520281076431274,0.2776661515235901,0.1386766858169809,-9.80262381322384,-0.2443667190397158,100,jumping
1783087523883404000,3.0287595,0.4219349341131747,6.61799249086678,-0.4274041593044996,-0.1632244735956192,-0.7570905089378357,0.4747714698314667,0.0997018439249135,-9.80287866476774,-0.252997805795446,100,jumping
1783087523893367000,3.0387225,-0.339893998960033,6.511116754990816,0.0087579280057922,-0.3801158964633941,-0.6748793721199036,0.5901297330856323,0.0454072906589368,-9.80254431824684,-0.2800506296276114,100,jumping
1783087523903329800,3.0486853,-0.742746485332027,6.372731782129407,0.0343897608578205,-0.5360527634620667,-0.5945456027984619,0.643277108669281,-0.0172628596396942,-9.801227974951267,-0.3255844647090882,100,jumping
1783087523913292800,3.0586483,-0.8668409939691424,6.469897440373897,-0.4953466456741094,-0.5087215304374695,-0.5235212445259094,0.6324777007102966,-0.0818614412672352,-9.799034848821163,-0.3776393173234537,100,jumping
1783087523923255800,3.0686113,-0.5355463349197059,6.61745180811882,-1.0424240631073711,-0.2508023977279663,-0.4836510717868805,0.5763359069824219,-0.1429105057281441,-9.79680197520256,-0.415495073791407,100,jumping
1783087523933219000,3.0785745,0.3295787219770252,6.55294104976356,-1.783885988521576,0.244175985455513,-0.5359882116317749,0.6074914336204529,-0.2016384428982622,-9.795736976319551,-0.4162357726234942,100,jumping
1783087523943182000,3.0885375,1.4626770354829728,5.446203796699643,-2.537775433832407,0.8829213380813599,-0.6719846725463867,0.8668912649154663,-0.2747039713700301,-9.79616952251792,-0.3605550576621666,100,jumping
1783087523953145000,3.0985005,2.73959126085788,3.026837300148606,-2.9436779554247856,1.5367896556854248,-0.9018836617469788,1.297987461090088,-0.3819010664211585,-9.796294025680425,-0.2391136390834115,100,jumping
1783087523963108000,3.1084635,3.674035718500614,0.1915665279507637,-2.595051564759016,1.972403168678284,-0.9973747730255128,1.884711742401123,-0.5374821618204936,-9.791717219284177,-0.0616143975929357,100,jumping
1783087523973070800,3.1184263,4.049094189018011,-3.606897534251213,-1.1200444784045218,2.0519068241119385,-0.9946441054344176,2.680619955062866,-0.7582642263289541,-9.776240833210943,0.1433599299960769,100,jumping
1783087523983033900,3.1283894,3.326669264768064,-8.868730851984024,0.5351099162638188,1.8327773809432983,-0.97742360830307,3.584963321685791,-1.0611559438452125,-9.743044666051864,0.3426648153802379,100,jumping
1783087523992996900,3.1383524,1.6019491664424537,-13.6075667160511,2.8019232138693333,1.365361213684082,-1.117977499961853,4.166991233825684,-1.435103238250315,-9.68756593993604,0.5118014848580583,100,jumping
1783087524002959000,3.1483145,-0.6149822021409869,-16.484236251085996,4.1826188623666765,0.7583541870117188,-1.5137951374053955,4.220517635345459,-1.8336876919142904,-9.612711482220888,0.6354129226859658,100,jumping
1783087524012922000,3.1582775,-3.453407346716523,-18.3903703166604,4.901283849561215,0.2340882569551468,-1.8024040460586548,3.864933013916016,-2.2094775454461573,-9.527664716315268,0.715662298247218,100,jumping
1783087524022886100,3.1682416,-5.748912485799193,-20.39249807409048,5.347887799376249,-0.0092463688924908,-1.7643858194351196,3.4146101474761963,-2.539963299265504,-9.44090062509775,0.7670526590708643,100,jumping
1783087524032849200,3.1782047,-8.167488708755373,-23.469194506907463,5.9681964572370045,-0.0444520004093647,-1.5271934270858765,2.8543946743011475,-2.8220462567046285,-9.356955098432302,0.8085917071614414,100,jumping
1783087524042811000,3.1881665,-9.832060335588457,-25.181240417099,5.613969177824258,-0.17612986266613,-1.276837706565857,1.9035242795944212,-3.0337799588933585,-9.287633140403033,0.8404988574232906,100,jumping
1783087524052774000,3.1981295,-10.842855334722994,-24.244658655166624,4.956488434910774,-0.4068000316619873,-0.9687729477882384,0.7288562655448914,-3.1461656903624533,-9.249473213356731,0.8481042909257114,100,jumping
1783087524062738000,3.2080935,-10.950117439568045,-24.14306173647642,3.828119195753336,-0.4136734008789062,-0.5025546550750732,-0.3110277354717254,-3.1575662052989,-9.24707316647768,0.8317451306685805,100,jumping
1783087524072700000,3.2180555,-9.817012404060364,-26.153870813012123,2.111394626226276,-0.2286959886550903,-0.1568774878978729,-0.9650707244873048,-3.093720048332214,-9.270437090930342,0.8113264658875763,100,jumping
1783087524082663200,3.2280187,-8.3410513779819,-28.10397846034765,0.9017384120881556,-0.032866034656763,-0.0114710135385394,-1.3132489919662476,-2.9865149343714115,-9.3063208897382,0.8021854933809488,100,jumping
1783087524092626000,3.2379815,-7.607416785192489,-30.049971073579787,1.2411422163784502,-0.0571194291114807,0.0449197366833686,-1.4742151498794556,-2.855693382501602,-9.347513316348197,0.799615350631997,100,jumping
1783087524102589000,3.2479445,-7.808840105769038,-32.63921833597421,2.185147406309843,-0.4850329458713531,0.0887700170278549,-1.550107479095459,-2.715321911998093,-9.39129049875438,0.7752824350167066,100,jumping
1783087524112552000,3.2579075,-8.432309273487329,-33.690876091372964,2.9936393794238567,-1.2965642213821411,0.1826744079589843,-1.7976912260055542,-2.5606676491200924,-9.441263613191246,0.6898398747265339,100,jumping
1783087524122515000,3.2678705,-8.910984185823798,-31.99397163621187,3.1248598674833774,-2.2092580795288086,0.187216430902481,-2.3020315170288086,-2.3695959189489484,-9.501881455761191,0.5192649160739035,100,jumping
1783087524132478000,3.2778335,-8.869423510423303,-27.63677712818384,2.453630000680685,-2.8834216594696045,0.1664037555456161,-2.927685499191284,-2.1220567438855764,-9.570461655512451,0.2711205964579247,100,jumping
1783087524142441000,3.2877965,-7.833612143453955,-22.075713026595118,1.140104100614786,-3.115997314453125,0.1367555856704712,-3.48192834854126,-1.81457148803398,-9.637283028897642,-0.0215630901423515,100,jumping
1783087524152404000,3.2977595,-6.506862020155787,-16.09979269710779,-0.4817254955461248,-3.012548923492432,0.1626590639352798,-3.881178617477417,-1.4590955237343906,-9.69219359973669,-0.3206312262158841,100,jumping
1783087524162367000,3.3077225,-4.865922613322734,-10.099700049394368,-1.6263234369814394,-2.658380508422852,0.3554375767707824,-4.118844985961914,-1.0699021448805928,-9.72967781947851,-0.5992363880092277,100,jumping
1783087524172330000,3.3176855,-3.597272212293744,-4.717305584782362,-2.0816250725150107,-2.163149118423462,0.6295837163925171,-4.230644702911377,-0.6606657296251506,-9.74846201492548,-0.8375051555000245,100,jumping
1783087524182293000,3.3276485,-2.8490903309747577,0.1408364576667547,-1.9481828167527917,-1.6949152946472168,0.9303216934204102,-4.2375264167785645,-0.2415245909489691,-9.749665545496343,-1.0276605014786124,100,jumping
1783087524192256000,3.3376115,-2.413876374702156,4.320038789588213,-1.3359329621851443,-1.280372142791748,1.109000563621521,-4.202517986297607,0.179487602296099,-9.734675481635332,-1.1722928442969918,100,jumping
1783087524202219000,3.3475745,-2.3752174120925367,8.15714676296115,-0.5320335775583982,-0.9500155448913574,1.1082879304885864,-4.142202854156494,0.5975226428939029,-9.704998136252163,-1.275289108391106,100,jumping
1783087524212182000,3.3575375,-2.6521514623358846,11.102482422465084,0.676461922237277,-0.6979362964630127,1.0299897193908691,-4.005155086517334,1.0050901385564357,-9.661771573466062,-1.3454913563862445,100,jumping
1783087524222144800,3.3675003,-3.172679311017692,13.34805302555561,2.080498114311695,-0.5723541378974915,0.9383150935173036,-3.762016296386719,1.3918421886727212,-9.60681365635395,-1.393661220793426,100,jumping
1783087524232107800,3.3774633,-3.764489311885834,15.176937847232818,3.376713398614525,-0.6057419180870056,0.8590484261512756,-3.4241585731506348,1.7479726713582873,-9.542334462180731,-1.4348662146240472,100,jumping
1783087524242071000,3.3874265,-4.374142135697603,16.576058794736863,4.748294597285986,-0.7258787155151367,0.7729125022888184,-2.9894490242004395,2.064036808854341,-9.4717125274688,-1.482154766152054,100,jumping
1783087524252034000,3.3973895,-4.987546420997381,17.58706539079547,5.827670380693673,-0.8412988781929016,0.6897005438804626,-2.465632438659668,2.3317780833385884,-9.40009339841306,-1.5399544825613498,100,jumping
1783087524261997000,3.4073525,-5.601514185398817,18.176547533237933,6.455043570113181,-0.932503879070282,0.6031259894371033,-1.8975884914398196,2.5456147491559387,-9.333114788639543,-1.607234413369,100,jumping
1783087524271960000,3.4173155,-6.221850900310278,18.39094431715608,6.705832686883211,-0.9938244223594666,0.5368496179580688,-1.346213698387146,2.7049177146226167,-9.275020911589264,-1.6816007953062653,100,jumping
1783087524281923000,3.4272785,-6.637064855605363,18.676843325752017,6.786649852395057,-1.0620198249816897,0.494022786617279,-0.8771948218345642,2.81546950866282,-9.22707901071906,-1.7619686096154152,100,jumping
1783087524291885800,3.4372413,-6.563234480240941,18.999236374008653,6.316693668565153,-1.1296745538711548,0.3922044634819031,-0.542161762714386,2.887985294297337,-9.187349057877062,-1.85001119633615,100,jumping
1783087524301848800,3.4472043,-6.133604461580514,19.441478621482847,5.429937721553444,-1.1027281284332275,0.2398809790611267,-0.3116023242473602,2.9325568419516084,-9.153892193955182,-1.9433814078204328,100,jumping
1783087524311811800,3.4571673,-5.508524936056137,19.43774235756397,4.440413473984599,-0.9532333016395568,0.0668897554278373,-0.1163423731923103,2.9552579185813665,-9.127111154535411,-2.0328939209632573,100,jumping
1783087524321774800,3.4671303,-4.712837791718543,18.919708663785457,3.313229060697555,-0.7434947490692139,-0.1323525160551071,0.092098981142044,2.9559426859751343,-9.109167501565814,-2.1108912067487835,100,jumping
1783087524331738000,3.4770935,-4.13511067673862,18.5492386901021,2.5635776913478967,-0.498443454504013,-0.2416766881942749,0.3122258484363556,2.933670648412406,-9.101720108169316,-2.1731731831386685,100,jumping
1783087524341701000,3.4870565,-3.81027169663459,18.11725129466057,2.3308412408798933,-0.2516627311706543,-0.2523668706417084,0.5392661690711975,2.889551228439808,-9.105925743165612,-2.214273547551036,100,jumping
1783087524351664000,3.4970195,-3.411456210693717,17.603318606460093,2.061420488876104,-0.0113092549145221,-0.2422388046979904,0.7889708876609802,2.823978978332877,-9.121859809878467,-2.2332046041227875,100,jumping
1783087524361627000,3.5069825,-3.0213498086482287,16.96601439013481,1.7709695160642265,0.2523103952407837,-0.2477816343307495,1.076403021812439,2.733746626482904,-9.150293877202271,-2.229160297168046,100,jumping
1783087524371590000,3.5169455,-2.5938942114174366,16.141790594881773,1.505957666543871,0.5564708709716797,-0.261455625295639,1.361863136291504,2.616489197324216,-9.19172186613381,-2.1992286847628653,100,jumping
1783087524381553000,3.5269085,-2.3893498362109065,15.214990222251414,1.4648673851341008,0.9020487666130066,-0.2789637744426727,1.610735535621643,2.4738953745961187,-9.245199189299344,-2.1392840652793645,100,jumping
1783087524391516000,3.5368715,-2.2955611070536075,14.447880060839651,1.5530537642396989,1.2812350988388062,-0.2802785038948059,1.7865535020828247,2.310524867429584,-9.308575390666723,-2.045062205401808,100,jumping
1783087524401479000,3.5468345,-2.2014212263710795,13.779233780789374,1.6735174420937895,1.6107219457626345,-0.3225492537021637,1.8679461479187007,2.1340840124182403,-9.37779155023396,-1.916528472208232,100,jumping
1783087524411442000,3.5567975,-2.147134924910217,13.154391571152209,1.8222974061109125,1.8402073383331297,-0.3780535161495209,1.9001942873001096,1.9508103887774049,-9.447866956979036,-1.761394609119743,100,jumping
1783087524421405000,3.5667605,-2.2378535989724098,12.331672335243224,2.1882383580625056,1.956661343574524,-0.4454871714115143,1.9422789812088013,1.7626045694313943,-9.515193357276916,-1.5889396088741718,100,jumping
1783087524431368000,3.5767235,-2.3524064453475177,11.42685232375264,2.4356379785247144,1.9371453523635864,-0.4633940756320953,1.9863301515579224,1.568754314457625,-9.577031681552528,-1.4106202466398476,100,jumping
1783087524441331000,3.5866865,-2.417796178494393,10.563947207927702,2.7202947319746014,1.8060821294784544,-0.4340686798095703,2.0411765575408936,1.370332806045562,-9.631254854649304,-1.237535424058139,100,jumping
1783087524451294000,3.5966495,-2.1431097610473637,9.604456279572844,2.428116204717756,1.6536017656326294,-0.4331092238426208,2.12457275390625,1.1650783828735352,-9.67747943020761,-1.0767392243590206,100,jumping
1783087524461257000,3.6066125,-1.5496929095044731,8.597848795256018,1.6954560099184512,1.5660327672958374,-0.4250406324863434,2.21966814994812,0.9508432192578912,-9.716389298838376,-0.9263188727237284,100,jumping
1783087524471220000,3.6165755,-0.9356087521817534,7.533942968180775,1.2783230692595242,1.5287938117980957,-0.3953258991241455,2.296532392501831,0.7282111064359545,-9.748428697177768,-0.7798802842009812,100,jumping
1783087524481183000,3.6265385,-0.5168994655841961,6.37354660564363,1.1685532924424855,1.444860339164734,-0.3814966380596161,2.342367887496948,0.4998408883534371,-9.773164494505524,-0.6370404508225619,100,jumping
1783087524491145700,3.6365012,-0.292825099798385,5.374419832471013,1.238902913019061,1.2556424140930176,-0.443216472864151,2.3934574127197266,0.2669379039457999,-9.789927413257956,-0.5064268060823902,100,jumping
1783087524501109000,3.6464645,-0.0343820296425139,4.2033121063053605,1.1168933208972216,0.9898733496665956,-0.5016619563102722,2.4874675273895264,0.0271993127809022,-9.798562555134296,-0.3972861209491267,100,jumping
1783087524511072000,3.6564275,0.3409340825974941,2.4911609821736813,0.8732067296087741,0.6809991002082825,-0.5602231621742249,2.644568681716919,-0.2251145955537445,-9.799012636989357,-0.3147591923773288,100,jumping
1783087524521035000,3.6663905,0.7236239247761667,0.9085925157666206,0.3906154840787872,0.3251030743122101,-0.687077522277832,2.771370887756348,-0.4916857485463842,-9.790781984260676,-0.2631242091428488,100,jumping
1783087524530998000,3.6763535,1.0602784303583204,-0.5493745884597301,-0.3519271857768297,-0.0441668480634689,-0.843835175037384,2.8340907096862797,-0.7672880021966993,-9.77352514451146,-0.2446779038807377,100,jumping
1783087524540961000,3.6863165,1.056230689337477,-2.3315999502927065,-0.8662602714717388,-0.4146527647972107,-0.9476137757301332,2.7690141201019287,-1.0429131617985663,-9.747597507050632,-0.2590144540027715,100,jumping
1783087524550924000,3.6962795,1.0018117744728925,-4.00524978659451,-1.7393413288742303,-0.7581981420516968,-1.011892318725586,2.5523152351379395,-1.304528646878898,-9.71472282693088,-0.3045588104782626,100,jumping
1783087524560886800,3.7062423,1.1827341588124631,-5.53448004604578,-3.1723002485722303,-0.9946455359458924,-1.0266001224517822,2.223818778991699,-1.5391712232291697,-9.677829558819532,-0.3754578450985252,100,jumping
1783087524570849800,3.7162053,1.314646428528428,-6.977636534631252,-4.868453593105078,-1.0685632228851318,-0.9046742916107178,1.806596040725708,-1.737671788226813,-9.640516603991388,-0.4596926735667511,100,jumping
1783087524580813000,3.7261685,1.418880856115371,-8.460563892590999,-6.25741262755692,-0.9762471318244934,-0.5561900734901428,1.3515020608901978,-1.892633217357844,-9.606829438444972,-0.5451130220251158,100,jumping
1783087524590776000,3.7361315,2.1733638834051785,-10.24960653322339,-7.4206409986495965,-0.5295308828353882,-0.0453152433037757,1.0065245628356934,-2.0059192586675283,-9.57961994448006,-0.6144494104385375,100,jumping
1783087524600739000,3.7460945,2.3235032992072404,-13.35812316867113,-7.910453975594043,0.4457701444625854,0.2235553562641143,0.7600449919700623,-2.0897690698735416,-9.56111924214959,-0.6230794377483427,100,jumping
1783087524610702000,3.7560575,1.0388491272300482,-17.444824327027796,-7.111431257092952,1.5103739500045776,0.1210566908121109,0.3392139971256256,-2.14257609256208,-9.55488765428364,-0.5328058771051466,100,jumping
1783087524620665000,3.7660205,-0.6627725657112896,-20.323185468411445,-5.520625123694539,2.0462143421173096,-0.3864496648311615,-0.3105254173278808,-2.145476344048232,-9.562436754488944,-0.3565415842371061,100,jumping
1783087524630627800,3.7759833,-3.160855309972167,-22.3854020761013,-2.8093916500538585,1.7758171558380127,-0.6912491321563721,-0.9967663884162904,-2.0839425556771456,-9.581379355368018,-0.1573235186198726,100,jumping
1783087524640590800,3.7859463,-5.217814727786183,-24.35626726478338,1.5111778854101896,0.8487558960914612,-0.3950686454772949,-1.4484847784042358,-1.9658375697784125,-9.60757704194188,-0.0174953166886989,100,jumping
1783087524650553900,3.7959094,-6.317946298974752,-25.2637374985218,4.609243853992224,-0.2290773093700409,0.0131210107356309,-1.6518548727035522,-1.8162046421937643,-9.63698959890902,0.015305936293595,100,jumping
1783087524660516900,3.8058724,-6.4631105567127465,-25.082552079331872,5.161456296226382,-1.011101007461548,0.4221745729446411,-1.782467484474182,-1.65068893969208,-9.666590371924638,-0.0513324018250219,100,jumping
1783087524670480100,3.8158356,-5.508451286298036,-23.91510053758621,4.030048127764463,-1.254883050918579,0.4938070774078369,-1.7794462442398071,-1.477529736699909,-9.693205407127737,-0.1704454139888286,100,jumping
1783087524680443100,3.8257986,-4.007873705357313,-22.92361112742424,2.109301599469781,-1.2603085041046145,0.4645711481571197,-1.7074679136276243,-1.307852676735073,-9.71444459451139,-0.2991355981194414,100,jumping
1783087524690406000,3.8357615,-2.1601295771703124,-21.648551443874837,0.7326274615734815,-1.239133596420288,0.4375060200691223,-1.580094575881958,-1.145963567232713,-9.730154204818604,-0.4257207727948203,100,jumping
1783087524700369000,3.8457245,-0.9675327805131674,-21.439077503311637,-0.50970601041615,-1.256378412246704,0.4759098589420318,-1.28876531124115,-1.003793084483221,-9.73956442272067,-0.551075145299919,100,jumping
1783087524710332000,3.8556875,-0.3991224329981953,-22.37634432489872,-1.1973977671980858,-1.334326148033142,0.6061838269233704,-0.9410288333892822,-0.8922500143833458,-9.742170805826785,-0.6814519856095314,100,jumping
1783087524720295000,3.8656505,-0.793618959761411,-22.382004834878444,-1.344009301134944,-1.5234076976776123,0.7092604041099548,-0.6762070059776306,-0.8095982538554817,-9.738304193526506,-0.8248383469548076,100,jumping
1783087524730258000,3.8756135,-1.9631766800060868,-21.28335853381157,-1.171816093630716,-1.8238152265548704,0.7486649751663208,-0.633394718170166,-0.7410740951403975,-9.728136435255408,-0.9922429319430142,100,jumping
1783087524740221000,3.8855765,-3.430727020613849,-18.611559244936704,-0.8105669527571648,-2.152762651443481,0.693588137626648,-0.8171371221542358,-0.6638065849341451,-9.711545950460431,-1.189788534303382,100,jumping
1783087524750184000,3.8955395,-4.447872557818889,-14.770949985444544,-0.621661679904908,-2.4068033695220947,0.642689049243927,-1.0826549530029297,-0.5636402105037123,-9.687614455252886,-1.4152050902120767,100,jumping
1783087524760146000,3.9055015,-4.444266350020468,-10.573477252817153,-0.9381225616335868,-2.4375104904174805,0.6730280518531799,-1.320980668067932,-0.4373610878365114,-9.65632967467308,-1.653600881616026,100,jumping
1783087524770109000,3.9154645,-3.9120577081561088,-6.498270132899284,-1.5783350666210054,-2.167666435241699,0.7671910524368286,-1.497196078300476,-0.2891674906062893,-9.62054173745513,-1.8793408973254264,100,jumping
1783087524780072000,3.9254275,-3.2177970943778758,-2.332762564331293,-1.9939085028782488,-1.6147695779800415,0.9134761095046996,-1.6599669456481934,-0.1213660335212945,-9.586320903423427,-2.063514976937324,100,jumping
1783087524790035000,3.9353905,-2.341902733120322,1.64230543448925,-2.0568027659475803,-0.8879321813583374,1.0790483951568604,-1.7926485538482666,0.0645679364691721,-9.560229599833487,-2.183627357135713,100,jumping
1783087524799998000,3.9453535,-1.4428446461573243,5.09709985165,-1.5424460071161388,-0.1140346080064773,1.2211476564407349,-1.896246671676636,0.2654959615091793,-9.546275308761,-2.2290201580449938,100,jumping
1783087524809961000,3.9553165,-0.680250646995753,8.160698902484775,-0.4891550975576043,0.5340790748596191,1.3093317747116089,-1.9920079708099363,0.4785393032580614,-9.543950080683826,-2.2032747452832755,100,jumping
1783087524819924000,3.9652795,-0.3967052888538688,10.99469775505066,0.9220391495779156,0.9973678588867188,1.3278558254241943,-2.075819253921509,0.7006192620899527,-9.548750174441931,-2.121534473577141,100,jumping
1783087524829887000,3.9752425,0.1073368505816906,13.764263006150722,2.4296686948567627,1.286007523536682,1.2491968870162964,-2.1021623611450195,0.9268085559368132,-9.555406125199797,-2.0014058728963136,100,jumping
1783087524839850000,3.9852055,0.8731546340953558,15.739788003337384,3.7879388687953353,1.411630153656006,1.1032119989395142,-1.9145716428756716,1.1424639616139232,-9.56065454724729,-1.8598584904812276,100,jumping
1783087524849813000,3.9951685,2.0990531771779057,15.773818867754937,5.288496868252754,1.3509981632232666,0.8791837096214294,-1.4466944932937622,1.3221112114511429,-9.564605915221572,-1.7148516152620314,100,jumping
1783087524859776000,4.0051315,2.621155727830529,15.133747524803876,6.4007216128170485,1.0822104215621948,0.5436283349990845,-0.7663881182670593,1.440158621943742,-9.569472644475102,-1.587927655352652,100,jumping
1783087524869739000,4.0150945,1.7371937954515215,14.639427884089946,7.083163778507709,0.6553167104721069,0.3058068752288818,-0.1028475388884544,1.48719743649438,-9.576737667042016,-1.498239201121032,100,jumping
1783087524879701800,4.0250573,0.160806355766952,14.791891066664457,7.510290874436497,0.1764925718307495,0.1734410971403122,0.3545551598072052,1.4772763464607297,-9.584950784114003,-1.4549061092205344,100,jumping
1783087524889664800,4.0350203,-1.381373840019852,15.364585740435125,6.966987714844942,-0.2212979048490524,0.0346055552363395,0.577853262424469,1.4331483047902582,-9.591415596213936,-1.4564331726573407,100,jumping
1783087524899628000,4.0449835,-2.302771769084781,15.725699856752156,5.709587606626749,-0.4178671836853027,-0.0912136286497116,0.6783103942871094,1.3721753651723263,-9.5953453368783,-1.4889096472397445,100,jumping
1783087524909591000,4.0549465,-2.7990035270303486,15.506159280204772,4.311335843172669,-0.3943944871425628,-0.0996642336249351,0.730597972869873,1.3032260398477316,-9.598466099247336,-1.5301714858241378,100,jumping
1783087524919554000,4.0649095,-3.181163353985548,15.299253728824851,3.090947076487541,-0.2078874707221985,-0.0231351032853126,0.7278293967247009,1.2319839274108408,-9.602997897458076,-1.5604538113631308,100,jumping
1783087524929517000,4.0748725,-3.3718370247498157,15.247066445469857,1.8886038157112892,0.1068393662571907,0.1011202111840248,0.6524173021316528,1.1663282368041574,-9.610366964921354,-1.5655360830634832,100,jumping
1783087524939480000,4.0848355,-3.386224738803506,15.015235711669922,0.9795384217359124,0.5077345967292786,0.2326140403747558,0.5454365015029907,1.1115831587251277,-9.621846390312909,-1.5345440018199383,100,jumping
1783087524949442800,4.0947983,-3.149793233209848,14.59402573083043,0.3492730180062353,0.9443302750587464,0.3369254469871521,0.436135470867157,1.0687830046575515,-9.638027709785105,-1.4616789643563328,100,jumping
1783087524959405800,4.1047613,-2.7026681821301577,14.010048615545031,-0.1682639782965183,1.3333837985992432,0.3634276390075683,0.350024551153183,1.036154115992412,-9.65813818539977,-1.3480138606011869,100,jumping
1783087524969368800,4.1147243,-2.1932181923016905,13.399872060120105,-0.5750691478170454,1.6166117191314695,0.2892631888389587,0.3185248374938965,1.0086871401350943,-9.6803307279855,-1.201727905356884,100,jumping
1783087524979332000,4.1246875,-1.771124560495466,12.639042001891136,-0.6523306666739285,1.738901972770691,0.1797321736812591,0.3844311535358429,0.9781950443029404,-9.702554250231383,-1.0363297648202627,100,jumping
1783087524989295000,4.1346505,-1.2985736839972437,11.60169918757081,-0.5759340210180729,1.700586438179016,0.0686659291386604,0.5664411783218384,0.9339067705694586,-9.723447400656342,-0.8676196501914412,100,jumping
1783087524999258000,4.1446135,-1.0042069990463554,10.321908383846282,-0.3880114755928516,1.5055580139160156,0.0099243195727467,0.8323266506195068,0.8666900411911308,-9.74236135996282,-0.7110767240226268,100,jumping
1783087525009220900,4.1545764,-0.6416206182196736,9.135499628174305,-0.2423796003431081,1.2045345306396484,-0.0818466022610664,1.107138991355896,0.772104535632953,-9.759039523041247,-0.5791311365589499,100,jumping
1783087525019183900,4.1645394,-0.338007235365361,8.349978780803085,-0.3104384065687656,0.876106858253479,-0.1978941112756729,1.3277970552444458,0.6525453323379159,-9.773182030162214,-0.479049700465612,100,jumping
1783087525029147000,4.1745025,-0.1970582207022234,7.817141485646367,-0.1313882093092426,0.5897541642189026,-0.2838558852672577,1.467129468917847,0.5147389265494421,-9.784575530835983,-0.4092525626726448,100,jumping
1783087525039110000,4.1844655,0.0858332035755738,7.390670223277807,0.13625731318295,0.3393594920635223,-0.3124843239784241,1.5237877368927002,0.3674189886149018,-9.792952898558974,-0.3653527037348598,100,jumping
1783087525049073000,4.1944285,0.6392804117690771,6.8757689823061225,0.3444073116660118,0.1169054210186004,-0.379769891500473,1.5213161706924438,0.2170955214828252,-9.798191383734345,-0.344556766606681,100,jumping
1783087525059036000,4.2043915,0.9576984189148992,7.00673403429985,0.3109697004338726,-0.0063720420002937,-0.4232329428195953,1.4091107845306396,0.0721075016611488,-9.800469850060344,-0.3405979825109243,100,jumping
1783087525068999200,4.2143547,1.1727192530155182,7.329077982717752,0.1746779369920492,-0.0146735049784183,-0.40766641497612,1.2493653297424316,-0.0589665453986963,-9.80049264641404,-0.3424217638719827,100,jumping
1783087525078962000,4.2243175,1.5276225319936871,7.0826815479487175,-0.2327975330054759,0.0854043588042259,-0.3303266167640686,1.1317859888076782,-0.1760958044333383,-9.799202606603505,-0.3391171693686395,100,jumping
1783087525088925000,4.2342805,1.7503049136981368,6.794650203499198,-0.5879985893538221,0.2559845447540283,-0.2449614703655243,1.0350040197372437,-0.2828087144304066,-9.797277191498877,-0.3220970244521275,100,jumping
1783087525098888000,4.2442435,1.6834256726458667,6.473367162311077,-0.8044967659980058,0.4617283940315246,-0.1953449100255966,0.8953571915626526,-0.3781369281146675,-9.795172328174113,-0.2863613106117583,100,jumping
1783087525108851000,4.2542065,1.3104964692421257,6.215769534569978,-0.6469581798553466,0.6111737489700317,-0.1431790143251419,0.6727368235588074,-0.4554670917609706,-9.793304196214676,-0.2326117281097918,100,jumping
1783087525118814000,4.2641695,1.0417154764465988,5.867878472441435,-0.3448381042987108,0.6190862655639648,-0.0839385986328125,0.4007311463356018,-0.5082574921082705,-9.791975577959418,-0.171112353464961,100,jumping
1783087525128777000,4.2741325,0.9775283970877529,5.417883126622439,-0.1890624361753463,0.5350669622421265,-0.0219471231102943,0.105002224445343,-0.5329551493827254,-9.791491009312868,-0.1142528313820716,100,jumping
1783087525138739000,4.2840945,1.1736280384235085,5.161552742338181,-0.2734440161705017,0.443455308675766,-0.0122987581416964,-0.1540474444627761,-0.5300366681201383,-9.792088390684128,-0.0666820653792005,100,jumping
1783087525148702000,4.2940575,1.676004582734406,4.772421907326579,-0.6510206069886684,0.3709836304187774,-0.0087715815752744,-0.3078794181346893,-0.5067365296186879,-9.793512286007404,-0.0269874281624681,100,jumping
1783087525158665000,4.3040205,2.369221386548132,4.046718692058325,-0.8200245899975299,0.3244949579238891,0.0302807465195655,-0.3518324792385101,-0.4737618597231805,-9.79519804713726,0.0068933494142867,100,jumping
1783087525168628000,4.3139835,2.8578412081852558,2.998900076431036,-0.9611375265181064,0.2549136877059936,0.0397948175668716,-0.2917506694793701,-0.4416428933415561,-9.796636555507778,0.0351802262489218,100,jumping
1783087525178591000,4.3239465,3.0544521600440144,1.8438181869149208,-1.0771674597084522,0.2067339271306991,0.0431517325341701,-0.1600645631551742,-0.4194835954383015,-9.797505155035854,0.0575372889137128,100,jumping
1783087525188554000,4.3339095,3.5365322046488523,0.8180313703536987,-1.5592168169140814,0.205210655927658,-0.0859666988253593,-0.041598554700613,-0.4097049826152622,-9.797782218411564,0.0772059618778992,100,jumping
1783087525198516700,4.3438722,4.263940178008378,-0.4825006081044674,-2.757028425610065,0.3208605349063873,-0.3433087468147278,0.1011617854237556,-0.4119691646875813,-9.79745371710956,0.1029059371958486,100,jumping
1783087525208480000,4.3538355,4.987423086878657,-2.771788772368431,-3.641020753127336,0.567598819732666,-0.5956016778945923,0.3649652600288391,-0.433052723118104,-9.795974876728652,0.1474319012758787,100,jumping
1783087525218443000,4.3637985,5.257064788156748,-6.194603996944427,-3.754180683839321,0.8652872443199158,-0.6309016346931458,0.7779445648193359,-0.4869170728398486,-9.792079622855782,0.2201898525026626,100,jumping
1783087525228406000,4.3737615,4.8821150387108325,-10.570283425211906,-2.921283752787113,1.0617281198501587,-0.6039602160453796,1.2037969827651978,-0.5822786408044397,-9.784170457166432,0.3183377084512263,100,jumping
1783087525238369000,4.3837245,3.592936521176993,-15.126874716424942,-1.5205904413998126,1.1069328784942627,-0.5530283451080322,1.496955394744873,-0.7128614885475486,-9.77132617316246,0.4282361166166141,100,jumping
1783087525248332000,4.3936875,1.90954182819128,-19.847646516013143,0.1721733337599784,1.0312148332595823,-0.7415968179702759,1.625049114227295,-0.8626773714836686,-9.75381506639123,0.537857315275818,100,jumping
1783087525258295000,4.4036505,-0.3077755440350622,-25.382332313764092,1.4849251076482235,0.8056266903877258,-0.9820155501365662,1.5806211233139038,-1.014422103590518,-9.733271460056304,0.6361880717769265,100,jumping
1783087525268257800,4.4136133,-3.2216064235329624,-30.559936027193068,3.762483232760429,0.3372051119804382,-1.010697841644287,1.2831323146820068,-1.148260299867764,-9.71367770179212,0.704498149349913,100,jumping
1783087525278220800,4.4235763,-5.999282500374317,-34.61027057166099,5.119855288815498,-0.3984699845314026,-0.9155607223510742,0.7467929124832153,-1.240633536203951,-9.70161375451088,0.7140658959012478,100,jumping
1783087525288187400,4.4335429,-8.167191187113524,-37.43054894191027,5.405238749104738,-1.1541435718536377,-0.6138565540313721,0.1073424592614173,-1.2767368229813874,-9.70155354875624,0.6482013117842376,100,jumping
1783087525298150700,4.4435062,-9.338164473244548,-38.6344278878212,5.223494526988268,-1.7269599437713623,-0.3489601612091064,-0.54200279712677,-1.2528858456641434,-9.712731945374609,0.5133118894210085,100,jumping
1783087525308113700,4.4534692,-9.64211585588157,-37.50525317749977,4.206645050120353,-2.040572166442871,-0.1407029777765274,-1.1770286560058594,-1.168303263204172,-9.731147307509184,0.3320136209737509,100,jumping
1783087525318076700,4.4634322,-9.044292001551389,-34.551953991770745,3.1262767485439777,-2.089303970336914,0.075189895927906,-1.747024416923523,-1.025570543462038,-9.751999541401862,0.1307358554808888,100,jumping
1783087525328039700,4.4733952,-8.089099062651396,-31.793518037450312,1.9705933860033749,-1.9808512926101685,0.3082240521907806,-2.212722063064575,-0.8322950196363031,-9.771019883692263,-0.069597085176222,100,jumping
1783087525338002700,4.4833582,-7.091291555383801,-28.842606039118767,1.1813251687973736,-1.8218976259231567,0.4473169445991516,-2.561429500579834,-0.5984356295529752,-9.78499697111845,-0.2571630539824254,100,jumping
1783087525347965700,4.4933212,-6.555373829868436,-25.32311089398861,0.7547264806568622,-1.7485315799713137,0.5161197185516357,-2.8461058139801025,-0.332744565596804,-9.79144717017114,-0.4327061016375199,100,jumping
1783087525357928400,4.5032839,-6.0429147213518615,-21.28663887065649,0.7497194661498069,-1.784666895866394,0.5928299427032471,-3.0555825233459477,-0.0414998988236999,-9.787853529593349,-0.6054687795927748,100,jumping
1783087525367891500,4.513247,-5.407316724422574,-16.943126851022242,1.1124749199330806,-1.8922442197799685,0.7160478830337524,-3.1512672901153564,0.2660680075097829,-9.771673963686824,-0.7835716860648244,100,jumping
1783087525377854500,4.52321,-4.63564086253047,-12.395174793338777,1.2915583984076977,-1.9748810529708865,0.8837806582450867,-3.135615825653076,0.5794143374145031,-9.741463534340262,-0.968790014032647,100,jumping
1783087525387817700,4.5331732,-3.736476392583549,-7.812431992781161,1.153069380649924,-1.946130871772766,1.0215634107589722,-3.013336181640625,0.8878254028741269,-9.69816039918661,-1.152321411826834,100,jumping
1783087525397780700,4.5431362,-2.796885219702125,-3.544614973339438,0.5938317159540951,-1.808948874473572,1.1334882974624634,-2.7644495964050293,1.1804996046934275,-9.645041387939452,-1.3228661214716733,100,jumping
1783087525407743700,4.5530992,-2.1651082423657178,0.0427840797156095,0.1385549226008355,-1.582087159156799,1.1705083847045898,-2.4263229370117188,1.4455010058850049,-9.58741922005415,-1.4704792336665091,100,jumping
1783087525417706800,4.5630623,-1.7756271326117217,3.203354143005609,-0.1955219875782728,-1.3504153490066528,1.1625497341156006,-2.124857187271118,1.6795599371284244,-9.52973275476098,-1.5917494055978954,100,jumping
1783087525427668500,4.573024,-1.56671199497506,6.084670627063512,-0.0848544582039117,-1.22249436378479,1.113119125366211,-1.9086843729019165,1.888582480662316,-9.473064526599645,-1.6925408531241115,100,jumping
1783087525437631500,4.582987,-1.7537993316851554,8.685542860800027,0.2829471730530262,-1.2137093544006348,1.0859713554382324,-1.776106595993042,2.080607858296484,-9.415774367147684,-1.7845605267822742,100,jumping
1783087525447594800,4.5929503,-2.0407029872789977,10.790311493015288,0.6282254223346709,-1.2434228658676147,1.0697197914123535,-1.7125098705291748,2.2632141040697693,-9.355586148166656,-1.8765021667681636,100,jumping
1783087525457557800,4.6029133,-2.185660908789933,12.273236512887475,0.9614550680346786,-1.197521448135376,1.027390480041504,-1.5835548639297483,2.437351212183386,-9.293353271615503,-1.965523389262706,100,jumping
1783087525467520800,4.6128763,-2.669783272877335,13.337547998154164,1.4622247616708277,-1.2099815607070925,0.940478265285492,-1.3048378229141235,2.591073893299699,-9.23298911154568,-2.051497499146312,100,jumping
1783087525477483500,4.622839,-3.3228865313589573,14.109579833877088,2.302383938810974,-1.2908393144607544,1.0073866844177246,-0.915652334690094,2.713262641380727,-9.17752382943332,-2.140475759281963,100,jumping
1783087525487446500,4.632802,-4.169970977717638,14.648244812273978,3.4845778532668947,-1.3714921474456787,1.1710292100906372,-0.5182445049285889,2.8021339340105653,-9.128862382116914,-2.2321112559281286,100,jumping
1783087525497409500,4.642765,-5.068894916906952,15.5329993563354,3.994999026215076,-1.3874322175979614,1.233681082725525,-0.1792506724596023,2.860992073431611,-9.087658849591016,-2.3236967759527265,100,jumping
1783087525507372500,4.652728,-5.813435519114137,16.670482460796833,4.142443503844738,-1.3393665552139282,1.1956093311309814,0.0702355206012725,2.894155215103924,-9.054078651550412,-2.4120339617058635,100,jumping
1783087525517335600,4.6626911,-6.180134742087126,17.7600780249238,4.278660777278244,-1.286353349685669,1.1376584768295288,0.2280781418085098,2.909056723898649,-9.02632905935943,-2.496626554103196,100,jumping
1783087525527298800,4.6726543,-6.364004870316386,18.51762774630785,4.543697615109384,-1.2604495286941528,1.164486289024353,0.3862268030643463,2.91096781821698,-9.002921880286932,-2.5776091393098235,100,jumping
1783087525537261800,4.6826173,-6.274286020946502,18.908573521786927,4.8078407189711925,-1.2233541011810305,1.3346796035766602,0.572196900844574,2.9002570391103624,-8.984307196187972,-2.653507845380902,100,jumping
1783087525547224600,4.6925801,-5.835327617448568,19.46579590113759,4.841939680188894,-1.0739132165908811,1.5033084154129028,0.671120822429657,2.8823788525924083,-8.971410889735818,-2.715888313709199,100,jumping
1783087525557187600,4.7025431,-4.799016484263539,20.348841303193566,4.088695839305222,-0.7482152581214905,1.470815658569336,0.6627424955368042,2.863453787370026,-8.965460456898809,-2.755274859941005,100,jumping
1783087525567150600,4.7125061,-3.50831002651006,21.07680252652168,2.967714956833422,-0.2469817847013473,1.2695677280426023,0.6040171384811401,2.844816599178314,-8.969473199671507,-2.76151404659152,100,jumping
1783087525577113600,4.7224691,-2.251850121751428,21.03045461684465,2.25054020819664,0.3368092179298401,1.0297372341156006,0.6372216939926147,2.821819754472375,-8.987918956944347,-2.7248914121150967,100,jumping
1783087525587076600,4.7324321,-1.21958329552114,20.026386295616625,2.1331424937844274,0.8227770924568176,0.8165067434310913,0.8610324859619141,2.7803035027354954,-9.02428147917986,-2.646249837076664,100,jumping
1783087525597039600,4.7423951,-0.5854200075700878,18.93907971920967,2.2992101310804487,1.0965590476989746,0.5985903739929199,1.2369190454483032,2.7047370973587035,-9.077961046919226,-2.538779934699833,100,jumping
1783087525607002600,4.7523581,-0.4994213477671146,17.81753886476755,2.477541037622094,1.147035002708435,0.4080941081047058,1.673945665359497,2.5852199065744874,-9.144243491122126,-2.42277367464602,100,jumping
1783087525616965600,4.7623211,-0.6898303762458264,16.598839950865507,2.862259901410341,1.043201565742493,0.2551421225070953,2.121459722518921,2.419491438104957,-9.217516232603788,-2.3138382297612727,100,jumping
1783087525626928600,4.7722841,-0.9524990236409008,15.409356610053775,3.038470162536204,0.8944538831710815,0.0228168293833732,2.52331280708313,2.2081083029195665,-9.293070363020895,-2.221149570800364,100,jumping
1783087525636891600,4.7822471,-1.434165372878313,14.549584531557558,2.877605354580283,0.7782495021820068,-0.2203063368797302,2.8148014545440674,1.956999160414934,-9.366736487734316,-2.145877618325501,100,jumping
1783087525646854700,4.7922102,-1.9864285223864016,13.871324035465715,2.947466826313734,0.711329996585846,-0.3860881924629211,2.989707469940185,1.678174912510812,-9.435017412278055,-2.0819626339063046,100,jumping
1783087525656817700,4.8021732,-2.2767796880856155,13.170343173521756,2.981108399152756,0.6569101810455322,-0.480915367603302,3.0812296867370605,1.382245800548792,-9.495393262785672,-2.02417563084811,100,jumping
1783087525666779400,4.8121349,-2.364961829407513,12.566750672662256,2.9953461833417414,0.6556087136268616,-0.3965219259262085,3.108649730682373,1.0795747400458902,-9.546316225293278,-1.9679346881881357,100,jumping
1783087525676742700,4.8220982,-2.137298736681044,11.52289979162216,3.042054158502817,0.7244663238525391,-0.2312038093805313,3.125932455062866,0.7763447304859757,-9.58838426569402,-1.9054067742131648,100,jumping
1783087525686705700,4.8320612,-1.0013068936906755,10.040824666577578,2.7690280754834413,0.8610112071037292,-0.077150247991085,3.1421704292297363,0.4736847028337418,-9.62258814859092,-1.8308004460401832,100,jumping
1783087525696668700,4.8420242,0.4268178838491439,8.356071252459287,2.588051915130019,1.062511324882507,0.0189547128975391,3.154148817062378,0.1709843797037377,-9.64968775244057,-1.739157935131341,100,jumping
1783087525706631700,4.8519872,1.663663864338398,5.968446048083901,2.366570287517458,1.3030458688735962,0.0419400334358215,3.202580213546753,-0.1339186502354685,-9.670030867767334,-1.625714365172386,100,jumping
1783087525716594700,4.8619502,2.0018553702294826,3.114609691625833,2.699693257972598,1.530705213546753,0.0140985501930117,3.226142406463623,-0.443978387084417,-9.682802086535096,-1.4888256222181022,100,jumping
1783087525726557700,4.8719132,1.480020238341391,0.9796908358186482,3.6785552417516714,1.767580509185791,0.0291185583919286,3.1147947311401367,-0.7506865576162934,-9.687102998599409,-1.3292445704624056,100,jumping
1783087525736520400,4.8818759,0.5099043094672262,0.2201777054071426,4.325836662212014,1.690259337425232,-0.3362764418125152,2.7001020908355717,-1.0349825879950076,-9.68281085436344,-1.15860684877187,100,jumping
1783087525746483500,4.891839,-0.6586969868354499,1.2759043176800011,3.531251049375534,1.3535075187683103,-0.7783252596855164,1.963773488998413,-1.2674382487602531,-9.672369539847969,-1.0046198906961827,100,jumping
1783087525756446700,4.9018022,-1.715863422653079,1.777753184854984,4.006355702009797,1.0126700401306152,-0.8169069886207581,1.215262532234192,-1.426825385379046,-9.662307580038904,-0.8799774658527225,100,jumping
1783087525766409700,4.9117652,-1.8777439835228025,0.3815712134122848,3.516089720600843,0.7597590684890747,-0.7247130870819092,0.8003203272819519,-1.5283071532569823,-9.65506184669435,-0.7838569327469914,100,jumping
1783087525776372700,4.9217282,-1.1891149458907544,-1.7448276513308285,1.6492483854949471,0.613439679145813,-0.4773365557193756,0.597235918045044,-1.59953158390671,-9.649328271478414,-0.7087758266691118,100,jumping
1783087525786335700,4.9316912,-0.0299506093665957,-3.201404177981615,0.3956633785855025,0.4690062701702118,-0.2582047283649444,0.4915814995765686,-1.6540711294762789,-9.644237085819244,-0.650496436984092,100,jumping
1783087525796298500,4.941654,1.1388156682394444,-4.134450167003274,-1.0346464148432015,0.2977213263511657,-0.181745633482933,0.3846683502197265,-1.6978619020164012,-9.639242346271873,-0.6104695470221341,100,jumping
1783087525806261500,4.951617,2.076611043745279,-4.534455447250604,-2.138619463890791,0.1865881383419037,-0.3029032051563263,0.2155653536319732,-1.728404485926777,-9.63547860982418,-0.5835879698373377,100,jumping
1783087525816224500,4.96158,2.7531054069474337,-5.318076598480343,-3.004231500586867,0.0677118226885795,-0.5494711995124817,-0.0722533911466598,-1.7390115123979746,-9.634761401465534,-0.5635779223898425,100,jumping
1783087525826187500,4.971543,3.809877144359052,-6.002568682438135,-4.181463262590766,0.0790111869573593,-0.8087820410728455,-0.4557584822177887,-1.7171952557787298,-9.639648588985205,-0.5466363226022571,100,jumping
1783087525836150500,4.981506,4.474657104369998,-7.860262834492325,-5.828989062076807,0.2655682861804962,-1.060430884361267,-0.7168670892715454,-1.6646125433653591,-9.650628832682967,-0.5145980567740276,100,jumping
1783087525846113800,4.9914693,4.4069887587666505,-11.4538607421875,-6.231337690579891,0.4455791413784027,-0.9931315779685974,-0.7443758845329285,-1.5979915148578585,-9.664492522862552,-0.4629996792228892,100,jumping
1783087525856076800,5.0014323,3.849332079651952,-15.15134747890234,-5.377690816965699,0.5330304503440857,-0.7706572413444519,-0.681195080280304,-1.5333905940011143,-9.67772083774805,-0.4010143476920202,100,jumping
1783087525866039600,5.0113951,2.586802791851759,-18.56223611884117,-4.45990026474297,0.4281375110149383,-0.614452600479126,-0.7291250228881836,-1.468859961901605,-9.689941436895728,-0.3433169226134195,100,jumping
1783087525876002600,5.0213581,1.5131113376908003,-21.268331645071505,-3.787494339898229,0.11549012362957,-0.640291690826416,-0.9024717807769777,-1.3922040077224374,-9.702462480294704,-0.3071892320470884,100,jumping
1783087525885965600,5.0313211,0.1045756422400474,-24.248920988786217,-3.011137626713514,-0.3308918178081512,-0.6625323295593262,-1.0624394416809082,-1.2988333578467368,-9.7153733997941,-0.3081234806898981,100,jumping
1783087525895927600,5.0412831,-1.3777100568152962,-28.059634291708463,-2.0296856264412404,-0.8575286865234375,-0.5534905195236206,-1.0760928392410278,-1.1962064385216682,-9.726853409707546,-0.357482847142592,100,jumping
1783087525905890800,5.0512463,-3.1821038497060536,-31.833518039405345,-0.9656512045502662,-1.436534762382507,-0.3002801537513733,-0.9980123043060304,-1.0973820532847196,-9.734011464768647,-0.4638370068298652,100,jumping
1783087525915853800,5.0612093,-5.676898219946026,-34.02485553252697,-0.0592067336630076,-1.9752222299575808,0.0452844388782978,-1.0995887517929075,-0.9981357163086532,-9.73546283262074,-0.6283779825478791,100,jumping
1783087525925816600,5.0711721,-8.11236771003604,-33.99056046421528,0.4402665634870529,-2.375602960586548,0.3124214708805084,-1.5078883171081543,-0.8718743119612336,-9.73145359697938,-0.8420435295820236,100,jumping
1783087525935779600,5.0811351,-10.354463915014266,-32.38078718001842,0.7952847740817814,-2.5662968158721924,0.5217198133468628,-2.1311051845550537,-0.6917841406621038,-9.72169617307484,-1.0864793318025767,100,jumping
1783087525945742600,5.0910981,-11.624128461521863,-29.62972789194584,1.1688491335839033,-2.4153382778167725,0.7605730891227722,-2.8572018146514893,-0.4424982680618762,-9.70550783933997,-1.3333008601158856,100,jumping
1783087525955705600,5.1010611,-11.49477727446556,-26.144887880611417,1.1342325782328844,-2.008812665939331,0.8697829246520996,-3.450953245162964,-0.1247322402850724,-9.682543143337965,-1.550225262815505,100,jumping
1783087525965668600,5.1110241,-10.611875664794445,-22.309463330280774,0.6407109560288489,-1.5445151329040527,1.0033525228500366,-3.794055223464966,0.2410917159570381,-9.651483403685688,-1.7207948877058925,100,jumping
1783087525975631600,5.1209871,-9.47712110851407,-18.426811749351025,1.1772744321018456,-1.1675204038619995,1.2076212167739868,-3.8408665657043457,0.6287500307306647,-9.61093570472002,-1.8452566952854397,100,jumping
1783087525985594600,5.1309501,-8.134138812339305,-14.470187754237651,1.727078205759078,-0.9482274651527404,1.400854468345642,-3.640624761581421,1.0118376400552689,-9.56056277731061,-1.9344759245701133,100,jumping
1783087525995557600,5.1409131,-6.708866940012574,-10.22064113550186,1.937958505988866,-0.8303484916687012,1.5647927522659302,-3.2448477745056152,1.3690489037148654,-9.502192421406509,-2.0011054286450145,100,jumping
1783087526005520600,5.1508761,-5.274700398090482,-6.219991536179185,1.8879041430093344,-0.6925434470176697,1.6709988117218018,-2.7360823154449463,1.6844452249519526,-9.441229126399756,-2.0484651457130907,100,jumping
1783087526015483600,5.1608391,-4.042710917721688,-2.8885581257492303,1.3480823957927524,-0.4997249841690063,1.6968437433242798,-2.2123396396636963,1.9510764923676849,-9.384118415167928,-2.07412375697419,100,jumping
1783087526025446700,5.1708022,-3.040859980282187,0.16874562433362,0.8647750013500451,-0.3031381964683532,1.719386339187622,-1.6837477684020996,2.168322966628521,-9.33584450586438,-2.076241041389108,100,jumping
1783087526035409700,5.1807652,-2.204059319789708,2.764193494933844,0.599191051030159,-0.2059908658266067,1.6745983362197876,-1.140756607055664,2.334393672664463,-9.299166341808435,-2.0607018192127344,100,jumping
1783087526045372700,5.1907282,-2.0047401318855584,5.00202152107358,0.5483569358497857,-0.224274531006813,1.5536988973617554,-0.6758712530136108,2.45080982869342,-9.273426920396089,-2.0414410922951998,100,jumping
1783087526055335400,5.2006909,-2.637327110430598,6.758045689201355,1.1884820548146962,-0.328788161277771,1.4501887559890747,-0.3301719129085541,2.527044196459651,-9.255646933555605,-2.029146258867532,100,jumping
1783087526065298400,5.2106539,-3.5923829789474606,8.07508339678049,1.990764213503152,-0.4600241780281067,1.3358577489852903,-0.1420140415430069,2.575894152085483,-9.241956846377253,-2.030118464900553,100,jumping
1783087526075261700,5.2206172,-4.274885350392759,9.552688098412752,2.536345693290233,-0.5493327379226685,1.2774649858474731,-0.0688402280211448,2.6119626598104837,-9.22902196148038,-2.0428408760905263,100,jumping
1783087526085224700,5.2305802,-4.577781378757954,10.333825616133211,3.0706068837702274,-0.6120395064353943,1.2670042514801023,0.0196493323892354,2.640572960484028,-9.216331991255284,-2.0632463891290125,100,jumping
1783087526095186700,5.2405422,-4.634106200309097,10.642070896571871,3.562219603613019,-0.6348689198493958,1.3380682468414309,0.1903089582920074,2.658291572526097,-9.205999397811294,-2.0864938475951558,100,jumping
1783087526105149400,5.2505049,-4.616735963313281,10.99376252002716,4.065214133691788,-0.634488046169281,1.4137104749679563,0.4086743891239166,2.6596257437393067,-9.20065511417389,-2.1082534055911,100,jumping
1783087526115112400,5.2604679,-4.358573395165801,11.646318081498146,4.258842270347476,-0.617163360118866,1.439152479171753,0.60736083984375,2.642978560321033,-9.200939776334168,-2.1278531552046536,100,jumping
1783087526125075500,5.270431,-3.9180154475167392,12.448236521440744,4.165057778973877,-0.5528762340545654,1.3738762140274048,0.7389010787010193,2.6109306864142416,-9.206187613859772,-2.144650560748577,100,jumping
1783087526135038700,5.2803942,-3.3879239439368245,13.173444646668433,3.816480195885896,-0.4451340734958648,1.217043399810791,0.8126634955406189,2.5673113249182697,-9.215530027222632,-2.1571491000548004,100,jumping
1783087526145001700,5.2903572,-2.939223314103484,13.578712377488612,3.423502037796378,-0.3181651532649994,1.0790190696716309,0.8661482334136963,2.514701139976084,-9.228595845022795,-2.163253554409742,100,jumping
1783087526154964700,5.3003202,-2.561379889042676,13.721326366221904,3.090600455006957,-0.200237438082695,0.9652900099754332,0.8975344300270081,2.4554361733198165,-9.244916280704736,-2.161650649257749,100,jumping
1783087526164927700,5.3102832,-2.2612119704671203,13.751860620695352,2.6045693346887826,-0.0999715775251388,0.8878896236419678,0.9033158421516418,2.392294072969258,-9.263480111399293,-2.1529631926722823,100,jumping
1783087526174890500,5.320246,-2.0265918982096016,13.896051649487015,2.44034630234614,-0.0106779150664806,0.8269530534744263,0.8880026340484619,2.3278123945780096,-9.283472513592242,-2.137479792336374,100,jumping
1783087526184853500,5.330209,-1.7889210600793362,14.157272143900393,2.337339516858012,0.0722463652491569,0.7538634538650513,0.8528837561607361,2.2638709605433047,-9.304073987594249,-2.116474559839069,100,jumping
1783087526194816500,5.340172,-1.4928411414697766,14.381139351475236,2.267803477686644,0.132377877831459,0.6999906301498413,0.8456207513809204,2.2006268611229958,-9.325034358036518,-2.090782192438841,100,jumping
1783087526204779500,5.350135,-1.062762502259016,14.532738610696793,2.2796575816094875,0.1785563081502914,0.6159034967422485,0.9025943279266356,2.1335690486334262,-9.347048036924004,-2.0617852305352686,100,jumping
1783087526214742800,5.3600983,-0.5649551655597984,14.715546662652493,1.9401795430392024,0.2012123614549636,0.4657912254333496,1.0364457368850708,2.0544475811235605,-9.371090006768704,-2.0328052197664976,100,jumping
1783087526224705800,5.3700613,-0.2779271529339254,14.816998619914054,1.6075842497199773,0.2430494874715805,0.3443990051746368,1.2183908224105835,1.9573098337993025,-9.398021852836012,-2.004124191944301,100,jumping
1783087526234668800,5.3800243,-0.1680725473776459,14.808340681684015,1.359352416217327,0.3354883193969726,0.2561293244361877,1.4289087057113647,1.8392254522971807,-9.428719773438573,-1.971519707068056,100,jumping
1783087526244631600,5.3899871,-0.2078809722833335,14.543263511842488,1.0701578732073307,0.4617563188076019,0.2054669260978698,1.6224325895309448,1.699917373241484,-9.463366139405965,-1.930125328145176,100,jumping
1783087526254594600,5.3999501,-0.2575325996808708,14.305291791069507,0.8769834716685115,0.6147685050964355,0.1662137955427169,1.7422913312911987,1.5438172954693437,-9.500875493589042,-1.8762633895762264,100,jumping
1783087526264557600,5.4099131,-0.3086468469768762,14.095222807222603,0.8619969149388372,0.7336999177932739,0.1668177396059036,1.7847163677215576,1.3793036096170543,-9.53905704794526,-1.809502221945673,100,jumping
1783087526274520600,5.4198761,-0.2127346228595822,13.646755401623247,1.062376133289933,0.8028689026832581,0.186776265501976,1.809290885925293,1.2112664988789708,-9.575863806816937,-1.7337997690990563,100,jumping
1783087526284482800,5.4298383,0.0837478852014988,13.078005081564188,1.1552449711233377,0.8613631129264832,0.2190654724836349,1.8285086154937744,1.0407787070531398,-9.610303836557268,-1.652041669475287,100,jumping
1783087526294445600,5.4398011,0.4957688896741717,12.42905485110879,1.1483699707873165,0.919284462928772,0.2694516777992248,1.8634045124053955,0.8680282309923321,-9.642053896561263,-1.564512292973697,100,jumping
1783087526304408600,5.4497641,0.9993917077191172,11.726848831284045,1.0151223608143627,0.9925402998924256,0.2628812789916992,1.9575390815734863,0.6885203896258026,-9.671277068436146,-1.4706190805286168,100,jumping
1783087526314371600,5.4597271,1.3143551904968918,11.000073018348216,0.6565554447621107,1.090054631233215,0.1117719486355781,2.00714373588562,0.4994023142730817,-9.697777537348866,-1.3689799301318823,100,jumping
1783087526324334600,5.4696901,1.2369628848671912,10.37799092107415,0.4304910194039344,1.172834396362305,-0.077750563621521,1.958128929138184,0.3074467870047316,-9.7206329277575,-1.2590345775522291,100,jumping
1783087526334297600,5.4796531,0.8541042619928717,9.671761052560806,0.7282365331381558,1.158541202545166,-0.2231405079364776,1.8888992071151731,0.1191388315916527,-9.73879869904518,-1.1454263185508549,100,jumping
1783087526344260600,5.4896161,0.3790012898590415,8.703623291891812,1.3353839500002562,1.0190701484680176,-0.2377053648233413,1.8219236135482788,-0.0635653855302371,-9.751237324857712,-1.0391018598821014,100,jumping
1783087526354223600,5.4995791,-0.0009579035130329,7.722481672742963,1.8830520268030464,0.7975874543190002,-0.1386352479457855,1.7584517002105713,-0.2395097439952194,-9.757552499353883,-0.9503609886988996,100,jumping
1783087526364186600,5.5095421,-0.0948400283085182,6.956388579419255,1.8979881685197355,0.604846715927124,-0.0304140262305736,1.6814854145050049,-0.407493444045633,-9.758353294342756,-0.882547462471202,100,jumping
1783087526374149600,5.5195051,0.1924884285686537,6.272449453169107,1.1641425633281468,0.530051052570343,-0.0402496121823787,1.610572338104248,-0.5676297915965318,-9.755114458552002,-0.8282058506265282,100,jumping
1783087526384112600,5.5294681,0.4607515715025365,5.308737107726931,0.2746680050075054,0.6175185441970825,-0.1182888150215148,1.5319191217422483,-0.7211210020445287,-9.749532274505496,-0.772662169515714,100,jumping
1783087526394075600,5.5394311,0.4711175557594746,4.03915556332767,0.0047241059124469,0.7863379120826721,-0.2284968048334121,1.4062778949737549,-0.8655624254006892,-9.743041743442417,-0.7030829487897455,100,jumping
1783087526404038700,5.5493942,0.3050047641474753,2.7059119863569734,-0.0995242040693759,0.8977338671684265,-0.3728331327438354,1.162302851676941,-0.9931881769038736,-9.73663479900956,-0.6179883251544088,100,jumping
1783087526414001400,5.5593569,-0.0626827392105013,1.6337071174919604,0.2174164240002632,0.8680502772331238,-0.4150607585906982,0.7991248965263367,-1.0910230396468192,-9.731495682555437,-0.5273159013867378,100,jumping
