time,seconds_elapsed,acc_x,acc_y,acc_z,gyr_x,gyr_y,gyr_z,grav_x,grav_y,grav_z,fs_hz,activity
1783067194902440000,0.0,0.05203355409801,0.4467132554084062,0.3579689501591027,-0.2415865063667297,-0.4487393796443939,0.1365986913442611,-1.1238874906335026,-9.577599252307415,-1.7823693003483116,50,jumping
1783067194922364000,0.019924,0.0374433032095432,0.4823077158808708,0.3307072876155376,-0.2873215675354004,-0.5729756355285645,0.1866428852081298,-1.172743802934885,-9.564562076079843,-1.820499270647764,50,jumping
1783067194942290200,0.0398502,0.116817430306226,0.4163426670640707,0.1422542155101895,-0.3294969797134399,-0.6598973274230957,0.2791134119033813,-1.238501200350374,-9.547679330340028,-1.8650325321182608,50,jumping
1783067194962214100,0.0597741,0.028235183750838,0.6931506067097186,-0.2990112958863377,-0.3110795617103576,-0.8844084143638611,0.3857772946357727,-1.3317284962326288,-9.5268580761075,-1.9067966211363672,50,jumping
1783067194982138000,0.079698,-0.5606514770165085,0.8644505917012691,0.4074177484609186,-0.2299446165561676,-0.9602688550949096,0.2286970615386963,-1.430875391422212,-9.50736836273968,-1.932075147038698,50,jumping
1783067195002061000,0.099621,-0.6796347070544958,1.0203349808961153,0.4238847530066967,-0.2230921387672424,-0.9790650606155396,-0.00152053614147,-1.487865983405709,-9.495958495453,-1.945100925089419,50,jumping
1783067195021985000,0.119545,-0.1537891704812646,1.1293962441176175,0.1988340347357094,-0.2446285933256149,-0.974614441394806,-0.0433115623891353,-1.5190094558186829,-9.487852930408716,-1.9605172515384848,50,jumping
1783067195041909200,0.1394692,0.4737077914483845,0.9998977575451136,0.3050732262738049,-0.0287831164896488,-0.7960233688354492,0.0489103645086288,-1.5542407820671795,-9.48180546693802,-1.9621601964399216,50,jumping
1783067195061833200,0.1593932,0.8488929570853709,0.8321569263398647,0.3744575820147991,0.2814810574054718,-0.610607385635376,0.1449661254882812,-1.5987269895255565,-9.483754262918234,-1.9164733810201289,50,jumping
1783067195081757200,0.1793172,0.7141273437649012,0.2978869680315256,0.1164813302196562,0.4655421376228332,-0.4630014300346374,0.2860831022262573,-1.658489968831837,-9.491322067824006,-1.826090514783561,50,jumping
1783067195101681200,0.1992412,0.2235487892754376,-0.1118038399279117,-0.0923642493121325,0.5784642696380615,-0.4517629444599151,0.3336988687515259,-1.7365343086294829,-9.498820899146796,-1.710918221335858,50,jumping
1783067195121604000,0.219164,-0.1244900107607245,-0.2869885573983192,0.3714445178039371,0.526333212852478,-0.3053860664367676,0.3351401686668396,-1.811072393871844,-9.50634311134517,-1.5873993936948478,50,jumping
1783067195141528000,0.239088,0.5225776208184659,0.0454325483977794,0.6332435427576303,0.254780113697052,-0.0574239566922187,0.5198101997375488,-1.8940062592767175,-9.503127656430005,-1.507875190602988,50,jumping
1783067195161452000,0.259012,0.7270102062135935,-0.1608241836845874,-0.1648639605946839,0.1785853058099746,-0.1324991285800933,0.7235004305839539,-2.017933959979564,-9.484218373298644,-1.4655873699717223,50,jumping
1783067195181376300,0.2789363,0.0942367651857435,0.5225444492012262,0.0310891118772327,0.0928756743669509,-0.1583997160196304,0.6570360064506531,-2.155943377526849,-9.45890097669065,-1.4322954873532057,50,jumping
1783067195201300200,0.2988602,0.4817931904874741,1.6686328849226235,0.2787954602010548,-0.1344467550516128,-0.0834667459130287,0.5580378770828247,-2.270261538363248,-9.432130458664894,-1.4322022561118006,50,jumping
1783067195221223200,0.3187832,1.601351054418832,2.5668454609721896,-0.2824285560064017,-0.1895244866609573,-0.0837327912449836,0.7039541602134705,-2.3867985442928967,-9.39869872918427,-1.462196412359178,50,jumping
1783067195241147100,0.3387071,2.2186732438147065,2.654426713791489,-0.5536870448313653,0.0063985167071223,0.0476029887795448,1.049274206161499,-2.551018069504201,-9.35220527355671,-1.4828804500781,50,jumping
1783067195261071000,0.358631,1.8084549048498275,2.736495340669155,-0.3344472047962248,0.3271382451057434,0.1634897142648697,1.1666090488433838,-2.7582050681740045,-9.297207608956098,-1.4576131762221454,50,jumping
1783067195280995000,0.378555,1.1875979654565454,3.398182887622714,-0.5276128385066986,0.4744810461997986,-0.015355865471065,1.0576348304748535,-2.963945959688723,-9.244972394806146,-1.384157187128067,50,jumping
1783067195300919000,0.398479,2.080258752597868,3.8491234053373335,-0.1427899298220872,0.5135414004325867,0.057049423456192,0.943982720375061,-3.1438828401222825,-9.198218826937676,-1.2958259927242994,50,jumping
1783067195320842200,0.4184022,1.8465709927544,3.1346272282600403,-0.0271091023303568,0.5862504243850708,0.1572529226541519,0.9628992080688475,-3.31780820518136,-9.150209121528269,-1.1984227993968877,50,jumping
1783067195340766200,0.4383262,1.3270780400782822,2.9491181006520986,1.5193436562091112,0.3410155475139618,0.5944277048110962,0.7374225854873657,-3.466895481581986,-9.10326324595809,-1.1320817568745465,50,jumping
1783067195360690200,0.4582502,0.5119678178682923,2.2997943607091904,1.662494236037135,-0.3102456927299499,0.9152888059616088,0.5281866788864136,-3.561133269681036,-9.0604212985754,-1.1821574549030511,50,jumping
1783067195380614100,0.4781741,0.6465712263643741,1.1312807426899671,0.7559960622012615,-0.6589463949203491,0.7588615417480469,0.3467336893081665,-3.619720775467157,-9.01493789677322,-1.3412285843752323,50,jumping
1783067195400538000,0.498098,-0.5568570531696081,0.5045569570899009,0.8864310989715158,-0.5091444253921509,0.6606457829475403,-0.0432708486914634,-3.6297035325601694,-8.985866116067767,-1.4999454205170273,50,jumping
1783067195420461000,0.518021,-1.1448065792173143,-0.9447428565561772,1.0966600956857204,-0.2333571910858154,0.7722877264022827,-0.3794751167297363,-3.5674312007814644,-8.9902962074697,-1.618146998658031,50,jumping
1783067195440385000,0.537945,-2.4377000256210564,-3.6294267614454023,1.1737028572253885,0.0787718370556831,0.8459076285362244,-0.6569294333457947,-3.4496421489641067,-9.022882718297838,-1.6905511406116187,50,jumping
1783067195460309200,0.5578692,-3.960018021465838,-5.065329917901754,0.9451035065621136,0.3411422669887543,0.5546668767929077,-1.1778610944747925,-3.26209128639549,-9.090686672979592,-1.6995760124579071,50,jumping
1783067195480233200,0.5777932,-3.7275600956782697,-8.81855257036388,-0.5457873776227236,0.6648288369178772,0.0732477679848671,-1.1602764129638672,-3.0243878611698745,-9.18569427640736,-1.6268006991043686,50,jumping
1783067195500157200,0.5977172,-4.142018264169991,-14.380802666866778,-1.842172319404036,0.7496780753135681,0.029845967888832,-0.6962559819221497,-2.8548867422938344,-9.261939896219967,-1.495494286327064,50,jumping
1783067195520080100,0.6176401,-4.57112835060954,-16.45877330852747,-3.668295713543892,0.5011278986930847,-0.290458470582962,-0.8444859981536865,-2.725051571112871,-9.320344738915562,-1.3695537844970822,50,jumping
1783067195540004400,0.6375644,-5.441330053183436,-17.3800265684247,-3.52254868748188,-0.1194476708769798,-0.5586127042770386,-1.4309622049331665,-2.526273504348099,-9.385202118751408,-1.3062564935848116,50,jumping
1783067195559928000,0.657488,-4.311694739612936,-16.142117927139996,-4.843854573899507,-0.8552320003509521,-0.9670287370681764,-1.6745734214782717,-2.2451259280629454,-9.44830651744008,-1.363561850605905,50,jumping
1783067195579852000,0.677412,-3.353866776034236,-13.102778288292884,-6.001206746435165,-1.042797565460205,-0.6873159408569336,-1.1550794839859009,-1.99702473520264,-9.480530040174722,-1.5171848707400262,50,jumping
1783067195599776300,0.6973363,-1.3561121191218497,-6.0272910357624285,-7.29312404128313,-0.3642115592956543,-0.4181216955184936,-0.9034052491188048,-1.830121523865312,-9.49312122620046,-1.6436825680613516,50,jumping
1783067195619699200,0.7172592,-1.643817884878814,-0.2096317614734172,-5.7943853662073606,1.0278469324111938,-0.2633484899997711,-1.172168254852295,-1.6483587431788445,-9.538359713330864,-1.5725732882238923,50,jumping
1783067195639623200,0.7371832,-4.060006335915625,2.7158745774447914,-2.8054192392915485,2.1214423179626465,-0.0356306470930576,-2.17612886428833,-1.3517872416600585,-9.6312267975986,-1.2579898908048868,50,jumping
1783067195659547100,0.7571071,-3.208651957152784,6.597733546692132,-0.790257228243351,2.777710199356079,-0.1704369932413101,-3.5193419456481934,-0.7905626409307122,-9.743713943615557,-0.7780942045018077,50,jumping
1783067195679471400,0.7770314,0.8096549524787813,7.416007493630051,-0.7827636576175689,2.855757713317871,-0.6089975237846375,-3.499408721923828,-0.0849600648697,-9.80392437442839,-0.2150202130461111,50,jumping
1783067195699395000,0.796955,2.8603835861444478,6.708753542765975,0.759199242156744,1.7728183269500732,-0.7415034770965576,-1.9026288986206052,0.4647135704686865,-9.792485281047224,0.2483103420989587,50,jumping
1783067195719318300,0.8168783,3.2200787755742666,6.806075268355012,0.7529740840315818,0.0391360111534595,-0.9415081143379213,0.2909606993198395,0.6227646727107465,-9.777727856898307,0.4225786753768101,50,jumping
1783067195739242000,0.836802,0.8164943700447678,7.809616350838541,1.257782385534048,-1.627152919769287,-1.03432035446167,1.6973062753677368,0.4184647007193416,-9.794557995668052,0.2487684611300006,50,jumping
1783067195759166200,0.8567262,-1.3381778185024855,8.42751327138245,0.6276274564415216,-2.4396026134490967,-0.9969562292099,1.987762212753296,0.0435133940705796,-9.805075298029184,-0.1701851556174457,50,jumping
1783067195779090200,0.8766502,-1.8914400620505207,9.258504076552391,0.0168676212359219,-2.2591185569763184,-0.8622350692749023,1.478520393371582,-0.3088314097635448,-9.781038004359605,-0.6374146909624337,50,jumping
1783067195799014100,0.8965741,-0.8639093244314193,9.356595617470145,-0.4660470475621521,-1.5464282035827637,-0.916004240512848,0.9482597708702089,-0.553607915180549,-9.739369776931404,-1.0042919739160685,50,jumping
1783067195818938400,0.9164984,-0.3295066065888851,8.963613952249288,-0.5701800606012344,-0.8597571849822998,-1.0169456005096436,0.5203339457511902,-0.7200514731168747,-9.70372154044509,-1.220532851330936,50,jumping
1783067195838861300,0.9364213,-0.3241851193051785,8.57522195290625,0.0105361531920731,-0.4391423165798187,-0.806237518787384,0.0754262655973434,-0.8009400233644992,-9.682988549017905,-1.3298907594114542,50,jumping
1783067195858785300,0.9563453,0.3237899825077504,8.501347738400101,0.2618419873125851,-0.0069750258699059,-0.6062642931938171,-0.2700954079627991,-0.7963453159853816,-9.678695820260048,-1.363474172322452,50,jumping
1783067195878709000,0.976269,1.6574276002973316,7.989634479814767,0.4782746609725057,0.4521834552288055,-0.582953155040741,-0.2014804184436798,-0.7602003089580684,-9.689067576670649,-1.3093616199932991,50,jumping
1783067195898633200,0.9961932,2.129263898785412,7.9861168270826335,0.6148246734917163,0.7538571357727051,-0.9350077509880066,-0.0271655302494764,-0.7591820718262344,-9.70575216948986,-1.1800058298271148,50,jumping
1783067195918557200,1.0161172,1.61113200532943,7.260746204769611,0.912629223936796,0.9857330918312072,-1.3728009462356567,0.0114408154040575,-0.785880766724795,-9.724529350674151,-0.9931341816943138,50,jumping
1783067195938480000,1.03604,0.9122779993463308,6.130529876440763,1.741760664975643,0.9191686511039734,-1.4805206060409546,-0.0947668775916099,-0.8039403742242605,-9.742631993597746,-0.7779449322242289,50,jumping
1783067195958402300,1.0559623,0.4360596863817423,5.962751635834574,2.2503531611919403,0.3478571474552154,-1.4171254634857178,-0.2435240447521209,-0.7911496470384299,-9.754567930585145,-0.626785087333247,50,jumping
1783067195978326300,1.0758863,0.1630263699039816,5.594119398972392,2.514167763751745,-0.3905922770500183,-1.2145755290985107,-0.4413148760795593,-0.7424231716617942,-9.759432906273007,-0.6104780956547707,50,jumping
1783067195998250500,1.0958105,-0.7304993635036051,5.033749953767657,2.712871303975582,-0.8219566941261292,-1.2500293254852295,-0.7732709050178528,-0.6418270275119692,-9.759155842897297,-0.7192494360189885,50,jumping
1783067196018174500,1.1157345,-0.2696551452815532,3.066128277051449,3.2942408671110868,-1.1352527141571045,-1.2333791255950928,-0.8142632246017456,-0.4969383718449622,-9.753432789075374,-0.8910611699249595,50,jumping
1783067196038097400,1.1356574,0.2599131746744736,2.7112363962501287,3.27006445723176,-1.612342119216919,-1.4681774377822876,-0.4652320146560669,-0.4004228846048936,-9.731034494784474,-1.1476049777641892,50,jumping
1783067196058021400,1.1555814,1.3830926266364751,-0.4860772975474596,1.6973253109216688,-1.63456130027771,-1.648736596107483,0.0846542119979858,-0.3990757077796384,-9.6892797581166,-1.4591023918665944,50,jumping
1783067196077945300,1.1755053,1.29612292984426,-7.435210791271925,0.3994016152657568,-1.4459807872772217,-1.2618645429611206,0.9357995986938475,-0.5446427010996266,-9.636343702220916,-1.736263967255503,50,jumping
1783067196097869300,1.1954293,-0.0446160443831235,-9.920648135101796,-0.6755623430490494,-1.570699691772461,-0.9507408738136292,1.3001962900161743,-0.8089168474625795,-9.563962941142917,-2.0116300375297667,50,jumping
1783067196117793300,1.2153533,-1.045314962243289,-15.16149244081974,-2.3827292490273715,-1.1841567754745483,-0.5187214016914368,1.4103950262069702,-1.0922581343997269,-9.477086037200689,-2.27204783725813,50,jumping
1783067196137716200,1.2352762,-2.146310310654342,-21.822820800065998,-4.561480524559319,-0.0641797259449958,-0.0309599936008453,1.7058180570602417,-1.4002506821863352,-9.407446683785318,-2.389485445289313,50,jumping
1783067196157640400,1.2552004,-4.869327453330159,-23.44460484005213,-4.735426347884536,0.7512142062187195,0.1887522041797638,1.4914236068725586,-1.706796465230733,-9.376009342992305,-2.31250508146137,50,jumping
1783067196177564400,1.2751244,-7.574402988862991,-19.62871734936237,-3.428224390143156,0.7520442008972168,0.54582279920578,0.364835113286972,-1.8753613261699675,-9.375091643625495,-2.181988357757032,50,jumping
1783067196197488400,1.2950484,-7.539311217215657,-16.200279024207592,-4.472491450768709,1.5023410320281982,0.9112703204154968,-0.735294759273529,-1.804210399147868,-9.42516061965227,-2.0202843224979934,50,jumping
1783067196217412400,1.3149724,-4.922448218142986,-12.38893209955692,-5.378102320376038,3.1191678047180176,0.8552632927894592,-1.4837762117385864,-1.5535682896330951,-9.547191254562138,-1.614911669998616,50,jumping
1783067196237336300,1.3348963,-1.9432019596002996,-6.809216488990187,-3.523938680535555,3.947902202606201,0.6397815942764282,-1.8856326341629028,-1.2053227149784564,-9.686832364964484,-0.9396016212102024,50,jumping
1783067196257259300,1.3548193,0.0375353654071688,-2.5149539456933736,-0.8076374021112919,3.868207454681397,0.6422917246818542,-1.5388669967651367,-0.8523121909443289,-9.767748899197578,-0.1871533694173209,50,jumping
1783067196277183200,1.3747432,0.8596035169962793,-0.1752525220096111,0.9185995305180548,3.252102851867676,0.1480704098939895,-0.6442157626152039,-0.6399355877421796,-9.772356100732088,0.511786469952017,50,jumping
1783067196297107500,1.3946675,0.1128476133598014,2.884843489140272,1.5391665470540523,1.780101299285889,-0.7177082896232605,-0.3033170104026794,-0.5559245215598494,-9.738096103733778,1.015297132859379,50,jumping
1783067196317031400,1.4145914,-0.4063488771203905,5.692657514613867,2.004474028295278,0.0908809602260589,-0.8455562591552734,-0.3844568729400635,-0.4708267195867374,-9.721649995845556,1.1992672143317755,50,jumping
1783067196336955400,1.4345154,0.4757650893043726,7.615477926573157,0.8362124853409826,-0.7490283250808716,-0.4277202785015106,-0.5029656291007996,-0.3704202893227338,-9.735095752874017,1.1229929529465734,50,jumping
1783067196356878300,1.4544383,1.742902236226201,9.472018816938997,-1.128700151612237,-0.5063323974609375,-0.5014598369598389,-0.4554016292095184,-0.2629862985095009,-9.753037652277946,0.989686598523706,50,jumping
1783067196376802600,1.4743626,1.7305222087331116,9.240797154948115,-1.6885925538897513,0.1515962481498718,-0.7109988331794739,-0.068289116024971,-0.1986820042454637,-9.757495800730586,0.9603060441300272,50,jumping
1783067196396726300,1.4942863,0.4972904732182621,10.70186865493059,-1.6826199092209335,0.1679234504699707,-0.8805533051490784,-0.0776317045092582,-0.1760186110112816,-9.753315300175547,1.0061083026230335,50,jumping
1783067196416650200,1.5142102,-0.5194747594323009,11.361214022672176,-1.3851356767714025,-0.3434907793998718,-0.6881948709487915,-0.3552356362342834,-0.1185800012656487,-9.755303259122371,0.9951803005691616,50,jumping
1783067196436574500,1.5341345,-0.736820456283912,11.25297927340269,-1.844925271373987,-0.7536574006080627,-0.3997231423854828,-0.5441456437110901,-0.0188493776291783,-9.766780346426367,0.8832041728142649,50,jumping
1783067196456497400,1.5540574,-0.2004753174030221,11.1585567763865,-3.305508695578575,-0.7172552347183228,-0.3337430357933044,-0.5922902226448059,0.0996196364010218,-9.7787484321177,0.732490025864169,50,jumping
1783067196476421400,1.5739814,0.4024615142930299,10.709779574185609,-3.827749777919054,-0.3101436793804168,-0.2497208416461944,-0.4718807339668274,0.210603821375966,-9.78426982588768,0.6277491831250488,50,jumping
1783067196496345300,1.5939053,0.6817073486100882,9.62844622696936,-3.4924738672137257,0.1939713507890701,-0.0685724169015884,-0.1667499095201492,0.2755243478422053,-9.783320562338828,0.6173370216388255,50,jumping
1783067196516269600,1.6138296,0.2979780255821533,9.174310712605717,-3.0589819124281403,0.3433513641357422,0.035641074180603,-0.1216590702533721,0.2986271919395774,-9.778847216317056,0.6748053872019052,50,jumping
1783067196536193300,1.6337533,-0.4112507872851565,8.733362012073398,-1.931005471980572,0.2423905879259109,0.1888062506914138,-0.4225909113883972,0.343913865593262,-9.77304466751814,0.7346531952474266,50,jumping
1783067196556116200,1.6536762,-0.298611811707355,8.065205561366676,-1.333425363278389,0.1676364690065384,0.2109445184469223,-0.8313530087471008,0.4659067257760092,-9.764790049391983,0.7760255084689706,50,jumping
1783067196576040200,1.6736002,0.7051486491478979,6.684313513514399,-1.1798982777994125,0.0424439795315265,0.2505808174610138,-0.8692132830619812,0.6344072527747601,-9.753381935670973,0.7996686882544308,50,jumping
1783067196595964400,1.6935244,1.068545396509394,5.359059181731939,-0.7929226480603218,-0.171258196234703,0.4581027030944824,-0.6003637909889221,0.7740920561883599,-9.74388988470435,0.7923240976452827,50,jumping
1783067196615888400,1.7134484,1.0080956039827316,3.746564363616705,0.1716577123880386,-0.5100938677787781,0.8092526197433472,-0.3173820376396179,0.8550422734953462,-9.741196407836677,0.7405337046533823,50,jumping
1783067196635812400,1.7333724,1.0229426791764795,1.598205595999956,0.2846201477665454,-1.0683714151382446,0.7788109183311462,-0.1849572658538818,0.8834404657881706,-9.74806863169372,0.6042275473600253,50,jumping
1783067196655736300,1.7532963,0.1233448593135923,0.3599491641908884,0.1373918701708316,-1.6491292715072632,0.4526958167552948,-0.7368652820587158,0.9552430616520344,-9.753749015417696,0.3496781282084062,50,jumping
1783067196675659500,1.7732195,2.500793902915716,-1.9327777423501011,-1.3364356510102748,-1.7637939453125,0.4868465363979339,-1.2330814599990845,1.1653273891985416,-9.7371596996665,0.0113942598672409,50,jumping
1783067196695583200,1.7931432,4.462793063575029,-9.53615022058785,-1.996009566810727,-0.6655176877975464,0.524055004119873,-0.4224874079227447,1.331922995891422,-9.7132311270684,-0.222517546531558,50,jumping
1783067196715507200,1.8130672,3.219254891970753,-12.042758362740278,-0.9213450298339128,0.5532592535018921,0.1491334736347198,-0.1450878977775573,1.380006643319875,-9.706619599974156,-0.2179956669266335,50,jumping
1783067196735431400,1.8329914,1.6012610380478205,-16.56050583629608,2.6473884857177734,0.7426168918609619,-0.0524274706840515,0.1747812628746032,1.3852062577895818,-9.708077397567031,-0.0695816455784952,50,jumping
1783067196755355400,1.8529154,-0.790506088437885,-18.51831748213768,4.807697803369164,-0.5922430157661438,-0.095332458615303,0.4397017061710357,1.314985743485391,-9.717999072122574,-0.0409919675678713,50,jumping
1783067196775278300,1.8728383,-3.2308161504268647,-18.74598057486415,3.9677883632063855,-1.8823692798614504,0.1593680679798126,0.1647994071245193,1.2547022474363445,-9.721526077204942,-0.2967288109723478,50,jumping
1783067196795202300,1.8927623,-3.207478529459238,-18.9821063755095,0.3656266253054142,-1.7317432165145874,0.519182026386261,-0.0271759890019893,1.2470759903416038,-9.704619366067648,-0.6599636457704007,50,jumping
1783067196815126500,1.9126865,-2.219823875154555,-17.31128679419756,-2.540318688574433,-0.4689969718456268,0.4898227453231811,-0.2144051045179367,1.2781542885638772,-9.684084527561067,-0.8690241832271218,50,jumping
1783067196835050200,1.9326102,-2.452758478543162,-14.760912575554848,-3.1664117750555274,1.0124187469482422,0.5061289668083191,-0.759398877620697,1.372075704190135,-9.677002460345625,-0.8021272603876888,50,jumping
1783067196854974200,1.9525342,-0.1339496207624674,-10.3997573472023,-2.667290871539712,2.163132429122925,0.2917313873767853,-1.4895552396774292,1.59905125304386,-9.663501758259534,-0.4797376461971551,50,jumping
1783067196874897400,1.9724574,2.080195916494727,-4.319791536828875,-0.1978928083628416,2.6695473194122314,-0.7049561142921448,-1.5187550783157349,1.9042042665556072,-9.61999813209772,-0.0036692696617261,50,jumping
1783067196894821400,1.9923814,3.8201545004844655,1.0451748231202362,0.3942541693747043,1.7142236232757568,-2.252967357635498,-0.4871843457221985,2.1162683697424827,-9.567934182861446,0.3826646712047979,50,jumping
1783067196914745300,2.0123053,3.026231150949001,3.342173415631056,0.2055763486027717,-0.8219987154006958,-2.5400006771087646,1.3694807291030884,2.063991070016473,-9.579667290753124,0.3745680931845679,50,jumping
1783067196934669300,2.0322293,-0.4132167901284992,6.7542410362213845,0.927855434641242,-3.2028818130493164,-1.825767040252685,2.826666116714477,1.6421902836769815,-9.66753554382026,-0.1111334663856774,50,jumping
1783067196954593500,2.0521535,-2.8442782545179126,12.113107910251616,-0.1830313393175602,-3.8991756439208975,-1.4993550777435305,2.239971876144409,1.106387124451995,-9.704991121989488,-0.8714649274427443,50,jumping
1783067196974517500,2.0720775,-2.366205984249711,15.426969423633812,-1.0993592716418206,-2.7800137996673584,-1.383957028388977,0.5271703004837036,0.8057849791776388,-9.647215809369088,-1.5659854342661796,50,jumping
1783067196994440400,2.0920004,-0.3394440632354468,14.310201774942874,-1.4328003681354224,-1.0638117790222168,-1.220374584197998,-0.3166840970516205,0.7564839918486773,-9.581203998801112,-1.949009330704808,50,jumping
1783067197014364400,2.1119244,0.2500216395288706,13.103949670159816,-0.2875641653291881,0.0857578366994857,-0.7212038040161133,-0.2010074853897094,0.7760432633213699,-9.559482580858468,-2.0455850602321326,50,jumping
1783067197034288400,2.1318484,0.3098810649469494,12.530278844833374,0.5709536753222346,0.4164190590381622,-0.0901782512664794,0.1775847673416137,0.7591299763128161,-9.571794949942827,-1.9937084502615037,50,jumping
1783067197054212600,2.1517726,0.254021230559051,12.790755827403068,0.7196919921547174,0.4392369985580444,0.1873115599155426,0.1148402318358421,0.7274517394360155,-9.59090413956046,-1.9120044189125296,50,jumping
1783067197074136600,2.1716966,0.1358936675023287,12.022072133064269,0.6626433863736688,0.6459001898765564,0.1392877101898193,-0.1335920095443725,0.7376906632471829,-9.610361119702455,-1.807520400478691,50,jumping
1783067197094059500,2.1916195,0.5185748149178921,10.633757826256751,0.4616602107800543,0.7276859283447266,0.0499411113560199,0.0067009986378252,0.7605274220205843,-9.633878773412109,-1.6674400218762455,50,jumping
1783067197113983500,2.2115435,0.7283558486688881,9.646068392899632,0.0226315185248851,0.4037045240402221,0.0913199111819267,0.4578732550144195,0.7202857933294028,-9.655645199540256,-1.555668769043684,50,jumping
1783067197133907500,2.2314675,0.3539295020425692,7.673821394470334,-0.1885245299063623,0.1006821393966674,0.3055461347103119,1.045218586921692,0.579958783022128,-9.672979196178913,-1.505821765204519,50,jumping
1783067197153831400,2.2513914,-0.1036633497007191,6.832385183131694,-0.320733444481343,-0.1471938639879226,0.4869132339954376,1.2613670825958252,0.3617882161863148,-9.68328022544086,-1.5078376350715756,50,jumping
1783067197173755400,2.2713154,-0.7099345682501792,5.63261601062715,-0.2076690830983221,-0.2116059362888336,0.6723886132240295,1.1201987266540527,0.1484942972098477,-9.683156891322136,-1.5442879817210138,50,jumping
1783067197193678300,2.2912383,-1.1803981170803308,2.455060325744748,-0.0332866219215095,-0.0797123461961746,1.0538932085037231,1.0908626317977903,-0.0364548515779082,-9.6797128883481,-1.5723247202903032,50,jumping
1783067197213602600,2.3111626,-1.145664803481847,0.2194967374056577,0.3918611367583274,-0.1800305396318435,1.4310001134872437,0.9925057291984558,-0.2016722355700098,-9.674348730966448,-1.5927026146695016,50,jumping
1783067197233526500,2.3310865,-1.0194006957206874,0.0727595312625169,1.1458866295389831,-0.7607873678207397,1.3600095510482788,0.5792421102523804,-0.3116258627876639,-9.655851535767315,-1.6845824414655566,50,jumping
1783067197253450500,2.3510105,-1.333685913910717,0.0905751739382743,1.8041870182722808,-1.4858903884887695,1.4240100383758545,0.1228739395737648,-0.3250470333641395,-9.61306336439848,-1.91147703403756,50,jumping
1783067197273374500,2.3709345,-0.4222826881049201,-2.599218036788702,0.9774959561228752,-1.6584213972091677,1.916400671005249,0.3765554428100586,-0.2932843878732062,-9.544472058731316,-2.233254434613883,50,jumping
1783067197293297400,2.3908574,1.3476266148492693,-6.052869713655114,-0.9646195234149694,-1.1011974811553955,2.0741870403289795,0.9913240671157836,-0.3215615658685565,-9.473078555124998,-2.5155019349649548,50,jumping
1783067197313221400,2.4107814,0.2670808378141373,-9.348239292535183,-1.0884928635820743,-0.3222329020500183,1.7861579656600952,1.3434014320373535,-0.4527812136778608,-9.427989121076465,-2.660528245536983,50,jumping
1783067197333145300,2.4307053,-1.958700411374867,-11.898897004294394,0.6923544878959655,0.2191623449325561,1.6923515796661377,1.3004881143569946,-0.6074348920339718,-9.412491107693317,-2.6844796144887804,50,jumping
1783067197353069600,2.4506296,-3.034118689328432,-15.611449208194015,1.883934216465056,0.4246239364147186,1.617969632148743,1.5471354722976685,-0.7807423809230327,-9.41109994559586,-2.64424258890748,50,jumping
1783067197372993500,2.4705535,-3.834123404604196,-18.66133829810619,1.2366098336458204,0.630172610282898,1.0526554584503174,1.8077876567840576,-1.029846905606985,-9.407533193024992,-2.570629071164131,50,jumping
1783067197392917500,2.4904775,-6.138943484520912,-18.98686087656021,1.3207570203632115,0.7202618718147278,0.3200612664222717,1.1480202674865725,-1.2884687618292867,-9.406275301918386,-2.4560578123494983,50,jumping
1783067197412840700,2.5104007,-6.410090914186835,-16.80491314307451,1.0713374383807182,0.4769698083400726,-0.1395200937986374,0.3710531294345855,-1.415207574430108,-9.416981404849889,-2.342658227662742,50,jumping
1783067197432764400,2.5303244,-4.398571351294219,-15.252774886244534,-0.7100953117698431,0.4919333755970001,-0.2716058194637298,0.4435741603374481,-1.4938582095578312,-9.426805464249847,-2.252579751200229,50,jumping
1783067197452688400,2.5502484,-2.4651491735607385,-11.553330001199244,-2.312888820081949,0.8983778953552246,-0.642494797706604,0.3717676103115082,-1.597362423174083,-9.44232276685536,-2.1121946905627844,50,jumping
1783067197472612400,2.5701724,-1.15893330424726,-6.984437446817755,-2.5580074900001284,1.3571146726608276,-1.116934299468994,-0.2553915977478027,-1.6490163303047418,-9.48437794777453,-1.8702179719321428,50,jumping
1783067197492536600,2.5900966,0.5152461088865995,-3.5519957312405106,-1.827377339723706,1.7632185220718384,-1.4953011274337769,-0.9057238101959229,-1.576925053692609,-9.557455458945036,-1.5292930955544113,50,jumping
1783067197512459500,2.6100195,1.693451392097771,-1.1232640249729156,-0.52987157721892,1.78814435005188,-1.600977063179016,-1.144657850265503,-1.4220089250080286,-9.636429042416813,-1.1346970539394765,50,jumping
1783067197532383500,2.6299435,1.6331085670769214,1.356357326054573,0.1891460228055715,1.4504399299621582,-1.424341082572937,-1.4385986328125,-1.20379835495539,-9.701197574925422,-0.7797654256496578,50,jumping
1783067197552307700,2.6498677,2.787490199369192,4.5898651997834445,-0.7402777571309358,0.8973524570465088,-1.566048502922058,-1.7613953351974487,-0.906545812369883,-9.75071768489778,-0.5216160092446953,50,jumping
1783067197572231400,2.6697914,1.450940858851373,6.307690862420201,0.1725742427110672,0.4520066082477569,-1.3850610256195068,-1.593542218208313,-0.5905246007001027,-9.78182710891068,-0.3708441772906109,50,jumping
1783067197592155400,2.6897154,-2.536993051283061,7.31658616541326,0.6437994235634803,0.136894479393959,-0.852554440498352,-1.4317322969436646,-0.3067199340349063,-9.797128722938895,-0.3042718284967355,50,jumping
1783067197612079400,2.7096394,-4.319224550595879,10.724838027107715,0.8134341056913137,0.0462458543479442,-0.0832725390791893,-1.853869915008545,0.0014314585741631,-9.80232161540687,-0.291348688836582,50,jumping
1783067197632002600,2.7295626,-3.5404832803621886,13.98383280879259,0.2172031100431457,0.4097958505153656,0.0829268991947174,-2.609251022338867,0.4368498869113624,-9.793678874745964,-0.2517693051801063,50,jumping
1783067197651926500,2.7494865,-1.7180746689617632,16.715805119079352,-0.3272013253211975,0.9673477411270142,-0.129177838563919,-3.160182476043701,1.0072962702985853,-9.754066410803794,-0.1181199825384654,50,jumping
1783067197671850500,2.7694105,0.4874589611642062,16.113081217747926,-1.0708896946132185,1.4672539234161377,-0.3785011172294616,-2.6340160369873047,1.593401410588622,-9.675671504002809,0.1133582388962153,50,jumping
1783067197691774700,2.7893347,1.3993746300041674,12.433092728322745,-1.7178630720376968,1.5863001346588137,-0.6948084831237793,-1.143116116523743,1.95729580527395,-9.6011999081254,0.3953656742805614,50,jumping
1783067197711698400,2.8092584,-0.0275651755347847,11.071274798774718,-1.3164333119452,1.1900650262832642,-1.143553614616394,-0.3578319549560547,2.097651785947382,-9.559036590656635,0.6285488821353763,50,jumping
1783067197731621400,2.8291814,-0.2971599689312279,9.01549319256842,-0.6587048048157245,0.5147197246551514,-1.4542685747146606,0.0054804654791951,2.148625747989863,-9.53967313401699,0.7405566471375524,50,jumping
1783067197751545300,2.8491053,1.1498761375665665,7.789408844590187,-0.9996422484140842,-0.0636133253574371,-1.8653322458267207,0.3550005555152893,2.139906873352825,-9.544359830528498,0.704556747669354,50,jumping
1783067197771469600,2.8690296,2.216031351003796,4.869503394418954,-0.9818423878293484,-0.2965429425239563,-2.0621414184570312,0.9984316229820251,2.042804635733366,-9.573512859776615,0.5875474845854565,50,jumping
1783067197791393500,2.8889535,1.0504628465257584,3.664380001404881,-0.4188040887415409,-0.8157246708869934,-2.065830945968628,1.48342764377594,1.8146484987929463,-9.62878466514349,0.4048875358635559,50,jumping
1783067197811317500,2.9088775,-1.6179713498301802,3.296128872814774,-0.5378536620140075,-1.207550287246704,-1.903992176055908,0.8195403814315796,1.5872956410594283,-9.67637760644555,0.1363761081238743,50,jumping
1783067197831240400,2.9288004,-2.812850850597024,2.0538813255429265,-0.6403589277207851,-1.351658821105957,-1.317324995994568,-0.186941459774971,1.5344966555468738,-9.684500122624636,-0.1616983361706137,50,jumping
1783067197851164700,2.9487247,-2.6202918044775725,0.3099175975650549,-1.7389929538279771,-1.2871787548065186,-0.6599504351615906,-0.742251992225647,1.6205631198890509,-9.661220369324088,-0.4527491015065461,50,jumping
1783067197871088400,2.9686484,-2.4341857338897883,0.3211924402952194,-2.4392121837496754,-1.0522814989089966,-0.201975479722023,-1.3704880475997925,1.8134889534942804,-9.612639001506569,-0.6919544557277113,50,jumping
1783067197891012400,2.9885724,-0.0316124050989747,0.1383428872853517,-3.9535014791786662,-0.2757343351840973,0.0072256065905094,-1.965717077255249,2.137612332674861,-9.534238834008574,-0.8362485795676707,50,jumping
1783067197910936600,3.0084966,2.4620982615575198,-5.298659365826845,-3.630017128553986,0.8979886770248413,0.3203432559967041,-1.9447616338729856,2.5187390171900392,-9.44707902147174,-0.7609488623030484,50,jumping
1783067197930859500,3.0284195,2.9774905009165407,-8.876694962731003,-1.3238959029108286,1.07844877243042,0.0898379310965538,-1.4325625896453855,2.848051051054895,-9.36786987567842,-0.5495670057592913,50,jumping
1783067197950783200,3.0483432,4.560194868662953,-14.578929868507384,1.0372989751785993,0.3655018806457519,-0.0575200319290161,-0.1474001556634903,2.998150134846568,-9.3282205868572,-0.4071748065505176,50,jumping
1783067197970707200,3.0682672,3.2296058978542685,-17.599996184039114,2.092494257053733,-0.7015073895454407,0.0746433287858963,0.7954487800598145,2.930974541196227,-9.348091993018985,-0.4392980472484603,50,jumping
1783067197990631200,3.0881912,0.1257578387394547,-20.46304752808809,0.8073428030788898,-1.2033312320709229,0.3824880421161651,1.0891915559768677,2.747433791051805,-9.393694052764772,-0.6168542796231806,50,jumping
1783067198010555400,3.1081154,-3.0270307768940925,-20.238340947079656,-1.5638976682066916,-0.8650355339050293,0.2999786734580993,0.5908105373382568,2.583355574007332,-9.426565810275076,-0.7978329241946339,50,jumping
1783067198030478300,3.1280383,-4.628756655974686,-18.25984774773717,-2.2090828470401465,-0.3503330945968628,0.4221214056015014,-0.1663069427013397,2.5511875808522104,-9.426698496744036,-0.8939520690608769,50,jumping
1783067198050402000,3.147962,-3.862355227354169,-13.99556299407482,-2.4274311450630424,-0.0476991273462772,0.6072841286659241,-0.8579818606376648,2.656874399204552,-9.39683351983428,-0.9005091625541448,50,jumping
1783067198070326000,3.167886,-1.4518638189151882,-7.582748207882046,-2.3864824640810487,0.1081135347485542,0.6625894904136658,-1.3673222064971924,2.881202502289414,-9.334532254222037,-0.8576607123654335,50,jumping
1783067198090250200,3.1878102,1.714421699412167,-0.7319511697471142,-2.3983874214082954,0.1423819810152053,0.6443999409675598,-1.4581893682479858,3.1642128037065267,-9.247978590884804,-0.7956272308439016,50,jumping
1783067198110174200,3.2077342,3.100475367811322,2.9040602307856083,-1.96351541044116,0.430726408958435,0.4475326836109161,-0.7169813513755798,3.37838396217525,-9.1794124196589,-0.7037747304461897,50,jumping
1783067198130098200,3.2276582,1.0800178807035088,5.3652410852372645,-0.362971142360568,0.2676564753055572,0.5329837203025818,0.1220864281058311,3.439636303256452,-9.163492381471396,-0.6080272319039329,50,jumping
1783067198150021000,3.247581,-1.1903490177303553,8.141483914405107,0.2373779195982962,-0.0623179040849208,0.5818074941635132,0.3080011904239654,3.395558092077076,-9.183559602466223,-0.5502699663968756,50,jumping
1783067198169945300,3.2675053,-1.0937678813755511,9.562051554563642,-0.4301549193173646,0.136342242360115,0.4141419529914856,0.5303471684455872,3.3336931720554825,-9.208308259275556,-0.5137593774601816,50,jumping
1783067198189869000,3.287429,-1.8550050591006877,9.385216731798648,-0.0331189737370237,0.2661194801330566,0.2944810092449188,1.1260735988616943,3.186330527490377,-9.263710413023828,-0.4487140007715672,50,jumping
1783067198209793000,3.307353,-4.134097408042848,8.19207837561071,2.354090599042177,-0.4872002303600311,0.9596574902534484,1.6102917194366455,2.929963318327069,-9.349225380963087,-0.4215211291478946,50,jumping
1783067198229717200,3.3272772,-5.41278784931004,9.839556244301797,1.9008225151628253,-1.2730815410614014,0.98198264837265,1.202279567718506,2.6630466580986973,-9.422664711183309,-0.540317275648564,50,jumping
1783067198249640200,3.3472002,-5.059732536286115,11.539488522851466,0.8302781999211758,-1.23854660987854,0.9629308581352234,0.4673421084880829,2.5206822602123022,-9.44830417935252,-0.7389994077581912,50,jumping
1783067198269564200,3.3671242,-2.8585660153284667,11.568249337911606,-1.6712644024699923,-0.4520837664604187,0.9487949013710022,0.1891589015722274,2.482975629891455,-9.448034714761375,-0.8601547211382538,50,jumping
1783067198289488100,3.3870481,-1.0267229283675552,9.963697003233433,-2.202268636980653,0.4298091828823089,1.0293453931808472,0.4011777937412262,2.4481303803510963,-9.4618113111794,-0.8069437938239425,50,jumping
1783067198309412400,3.4069724,-0.3491204577930271,8.308163838380574,-0.9545873742222786,0.5777093172073364,0.9511120915412904,0.6236246228218079,2.3626440539844333,-9.495538224214314,-0.6504258559659123,50,jumping
1783067198329336000,3.426896,-0.0560728926166892,6.715929718005657,0.3956178954759612,0.0856958925724029,0.7239333391189575,0.653495728969574,2.249909801338613,-9.52956499697864,-0.5437593423938378,50,jumping
1783067198349259300,3.4468193,0.0778979170642793,5.533868636149168,0.7526257089853287,-0.5146398544311523,0.4313770234584808,0.5682727694511414,2.1392823117136954,-9.55403249875903,-0.5606404441658407,50,jumping
1783067198369183000,3.466743,1.218470073582232,4.3690942046582695,-0.1468413241047412,-0.8781618475914001,0.2948143780231476,0.8045127391815186,2.0196878179095683,-9.57199427190721,-0.6842457810465246,50,jumping
1783067198389107200,3.4866672,1.7095865343406795,3.7162832071214913,-0.7725340130914002,-0.9070555567741394,0.2373526841402053,1.064491629600525,1.8392190225563945,-9.595246552678942,-0.8478918902840464,50,jumping
1783067198409031200,3.5065912,0.4672926637090742,2.921518730586767,-0.1770809064805507,-0.9940283298492432,0.3485320806503296,0.8856831192970276,1.6521742098137735,-9.613012510994077,-1.0152314472120254,50,jumping
1783067198428955100,3.5265151,-0.7453302912801504,2.565470080965757,0.5964626489795745,-1.2478028535842896,0.6604792475700378,0.3506440222263336,1.5427490817159413,-9.608013095271588,-1.2150645029224454,50,jumping
1783067198448878000,3.546438,-0.2544092069633304,2.6675018839418887,0.3881343713201582,-1.1863213777542114,0.850071370601654,-0.200838103890419,1.551467956352979,-9.576718377819656,-1.4317068738102912,50,jumping
1783067198468802300,3.5663623,0.6993051838167011,1.8288094183534385,0.1547906026087701,-0.9065013527870178,1.0401667356491089,-0.4179655909538269,1.6441694747954605,-9.534548630610107,-1.599841380508244,50,jumping
1783067198488726000,3.586286,0.3488669214233756,1.5033207421690225,0.0942167453110218,-0.8847609758377075,1.128622055053711,-0.5254712104797363,1.7685053179077803,-9.490078789764642,-1.7266133647263049,50,jumping
1783067198508650000,3.60621,0.7520633989274501,-0.8166817093104124,-1.4535998489275574,-0.7356314659118652,1.7198542356491089,-0.6030720472335815,1.9271977502606807,-9.437682832095026,-1.8402227927714585,50,jumping
1783067198528574200,3.6261342,0.3932258492402732,-3.8176825574129816,-2.7984049766153096,0.1119607388973236,2.099282741546631,-0.8998936414718628,2.1296640040189025,-9.39681364609003,-1.8261450214497743,50,jumping
1783067198548497200,3.6460572,0.7647399251490831,-4.9942351049810645,-1.683898112463206,1.2352007627487185,2.236045360565185,-1.0251553058624268,2.4038361883334813,-9.371273546642064,-1.6034902584046125,50,jumping
1783067198568421000,3.665981,3.80637527371794,-10.991033971846104,0.4004062622636556,2.013608932495117,2.29774022102356,0.2788489460945129,2.554419986902177,-9.394994029447435,-1.1744817326433956,50,jumping
1783067198588345000,3.685905,4.241858110059797,-15.713191088312865,3.744029292181134,1.6059361696243286,1.9029581546783447,1.8350054025650024,2.3840948382921514,-9.486229713121055,-0.7056378209043294,50,jumping
1783067198608269300,3.7058293,0.914499986244738,-17.428062577319142,6.51483957490623,0.0873934477567672,1.050806760787964,2.36572265625,1.9872724258646368,-9.591700842896104,-0.4694803099464625,50,jumping
1783067198628193000,3.725753,-1.7090655792064964,-16.455053411221503,5.574436793380976,-1.3751713037490845,0.4930299520492553,2.0592260360717773,1.5609240592233835,-9.664040687441826,-0.5832745199739933,50,jumping
1783067198648116200,3.7456762,-0.5563384361229836,-14.474642980080842,0.3154068426311016,-0.9959314465522766,0.2730894386768341,1.759040594100952,1.2038204206567258,-9.696768068045378,-0.8330030948404222,50,jumping
1783067198668040200,3.7656002,0.7245669047147035,-11.91151098667383,-2.323828731769323,0.5429655313491821,0.1249543726444244,1.611652135848999,0.8773036435335874,-9.728179689875244,-0.8736274392388761,50,jumping
1783067198687964200,3.7855242,0.0529996957164257,-8.107288799336553,-0.4622521122585982,1.3663872480392456,-0.1164755523204803,0.985520362854004,0.6202197374682873,-9.763930217692256,-0.671851140506193,50,jumping
1783067198707888000,3.805448,0.7754637829329818,-5.470626290294527,1.250644788739085,1.486976981163025,-0.4928692877292633,0.4241549670696258,0.4840360740434378,-9.786872701862452,-0.3914259967440739,50,jumping
1783067198727812000,3.825372,1.7194276910059152,-2.5574907726496456,1.247275020045042,1.183862328529358,-1.0965474843978882,0.3305328786373138,0.4175470378851518,-9.796888484442231,-0.1303799090495333,50,jumping
1783067198747735300,3.8452953,1.1184412079263475,-0.3370043419331312,0.6830278566241264,0.6154892444610596,-0.955903947353363,0.7186814546585083,0.3146380502156913,-9.801541863206028,0.0341853722759638,50,jumping
1783067198767659300,3.8652193,0.2255760025204159,1.7485937258660793,-0.8726198696315288,0.6811157464981079,-0.6997082233428955,0.6447374224662781,0.1721607482730411,-9.804035433587432,0.1471769857998937,50,jumping
1783067198787583200,3.8851432,-0.4441829332131892,4.572945044642687,-1.0687947681605816,0.928241729736328,-0.8156494498252869,0.0320379845798015,0.1061516776514239,-9.801281750965115,0.3065405588800087,50,jumping
1783067198807507200,3.9050672,-0.5424177185265348,6.190046479770541,-0.9814952548921108,0.7787396311759949,-0.9428886771202089,-0.3799950778484344,0.1545570313149131,-9.793768891116976,0.4781148307682946,50,jumping
1783067198827431200,3.9249912,-0.3299379106782376,6.737244308713078,-1.569156027126312,0.2348125725984573,-0.8858631253242493,-0.2943179011344909,0.2362646793930791,-9.786858673337102,0.5761605232503265,50,jumping
1783067198847355100,3.9449151,0.0133269712206907,7.239089668756723,-2.521081488662958,-0.2199686765670776,-0.5635859966278076,-0.0821561738848686,0.2780175528974272,-9.786219790911671,0.5683104673370719,50,jumping
1783067198867278000,3.964838,-0.0341100671336054,8.56280378535986,-3.097056499278545,-0.2728150486946106,-0.3115893304347992,-0.2738485336303711,0.3106404319468885,-9.78833576015234,0.5122163858018816,50,jumping
1783067198887202300,3.9847623,0.3249800690751522,9.289955445870756,-3.549417989706993,0.0981813296675682,-0.3039243519306183,-0.8058120608329773,0.4167734962293878,-9.78570424260497,0.4864856226200237,50,jumping
1783067198907126300,4.0046863,0.9012889147549868,7.948212336102127,-3.0329215884983536,0.4287486970424652,-0.3026575446128845,-1.0912413597106934,0.611247910983488,-9.7725934166193,0.5414556320287287,50,jumping
1783067198927050200,4.0246102,0.5071899359419941,6.955633377137779,-1.5797592542052268,0.2388650923967361,-0.1380733400583267,-1.063387155532837,0.825482417012006,-9.752808519697188,0.6096586690306663,50,jumping
1783067198946975200,4.0445352,0.2135987654082477,6.962483973684907,-1.192711070686579,0.0021270206198096,0.0230240803211927,-1.130238056182861,1.034229285409674,-9.731827690988778,0.6263322289992124,50,jumping
1783067198966898200,4.0644582,-0.0549558712854981,7.361482122716307,-1.6170260318040848,0.1121443882584571,-0.1665155589580536,-1.4157336950302124,1.27959002045542,-9.70211468977034,0.6340571241628378,50,jumping
1783067198986822100,4.0843821,-1.0118978458099066,6.995486664098501,-1.2884604323923587,0.1141163036227226,-0.2800116240978241,-1.4372278451919556,1.566454805343598,-9.658587098211049,0.6544453207403421,50,jumping
1783067199006746400,4.1043064,-1.495312353888899,6.132380472743511,-1.2751707427084444,-0.1951252222061157,-0.124161310493946,-1.012442708015442,1.8077555244088173,-9.617140989100932,0.6426528838768601,50,jumping
1783067199026670300,4.1242303,-2.06748957965672,6.062070088198781,-0.9940262351632118,-0.584313690662384,0.1999501138925552,-0.6770870089530945,1.9621444143489,-9.591571663558485,0.567558772186935,50,jumping
1783067199046594000,4.144154,-2.167094009355456,6.7070414781510825,-1.594315018302202,-0.7286320924758911,0.2235866636037826,-0.6029722690582275,2.08269854696542,-9.572453121590614,0.4482409764323383,50,jumping
1783067199066517200,4.1640772,-1.6157355536021292,5.8975569868683815,-1.451232243013382,-0.7937541604042053,0.4432840645313263,-0.3627649247646332,2.1740337454907595,-9.557394668668508,0.3165297822464257,50,jumping
1783067199086441200,4.1840012,-1.0307644588433205,5.4999593522846695,-1.9034674767136568,-0.9677556157112122,0.5304499268531799,-0.3200035989284515,2.229062243621051,-9.548403552961348,0.1721600176206789,50,jumping
1783067199106365200,4.2039252,-0.0761687551841139,3.954661170607805,-2.492378541269898,-1.105946063995361,0.6447195410728455,-0.4926552176475525,2.3060684725426137,-9.531654662734269,-0.0010326504626737,50,jumping
1783067199126289200,4.2238492,2.2605934001773598,0.900046221217513,-3.8863673865824935,-0.7813596129417419,0.5190377235412598,-0.5595921277999878,2.410793313995004,-9.504358075007795,-0.1601329317511059,50,jumping
1783067199146213400,4.2437734,3.862525615485013,-3.40341202044785,-2.721687063115835,-0.2054093480110168,0.4758142530918121,-0.4440858662128448,2.508894499523937,-9.477543133318424,-0.2281187823384068,50,jumping
1783067199166136300,4.2636963,4.486451294799148,-7.892944622388482,-0.1279594221706502,0.0107145961374044,0.6242901682853699,-0.0652181729674339,2.563574476477504,-9.463220593455434,-0.2142617776279337,50,jumping
1783067199186060300,4.2836203,6.124146312883496,-11.509260557848217,1.991073279452324,0.2871558666229248,0.5730254650115967,0.0525505244731903,2.558575937537849,-9.465591414240002,-0.1632501321898773,50,jumping
1783067199205984300,4.3035443,5.399283640092611,-18.31160716106892,4.184827770587802,0.8287252187728882,-0.0112581932917237,0.0614356771111488,2.5502137673839926,-9.46921194282472,-0.0284936177746043,50,jumping
1783067199225908200,4.3234682,1.6849372462525962,-19.852886170232296,6.548789190781116,-0.1303112953901291,-0.7152230739593506,-0.2613639831542969,2.5628254116758704,-9.465759172022342,0.0414008177968207,50,jumping
1783067199245832200,4.3433922,-1.3545970383837818,-19.15681412311792,5.853113449507951,-1.8199273347854612,-0.6531451344490051,-0.2777471840381622,2.621877904625237,-9.447760573995112,-0.1896296964029781,50,jumping
1783067199265755100,4.3633151,-2.2716952244281767,-14.22432732604146,0.3297428264975547,-2.444206714630127,-0.8308563828468323,-0.3085623681545257,2.669282629878819,-9.414073992970586,-0.6484708494406193,50,jumping
1783067199285679400,4.3832394,-2.281810375729203,-9.646252517294885,-3.2728976348310708,-1.995741844177246,-0.8703617453575134,-0.1484823822975158,2.6964561757475134,-9.361913013100624,-1.1198637880753726,50,jumping
1783067199305603300,4.4031633,-1.3425409821480512,-4.355716252169013,-5.306729275035858,-1.1289936304092407,-0.6719697713851929,0.0400587581098079,2.69062615441978,-9.316821240964533,-1.458686066150665,50,jumping
1783067199325527300,4.4230873,-1.3899685037553309,-2.2070213844656945,-5.106265739402175,-0.0254905987530946,-0.4514160752296448,0.4289199709892273,2.6307632218703625,-9.312529681250451,-1.5894181861713528,50,jumping
1783067199345451300,4.4430113,-1.6248074794605374,0.0403051223814487,-2.8263071290194985,0.3848349452018738,-0.2374784797430038,0.7441156506538391,2.5096146304920315,-9.350008055773376,-1.5651077746488151,50,jumping
1783067199365374200,4.4629342,-0.6623718759559094,2.7857483241379257,-0.7469533624373376,0.3054651319980621,0.2597146332263946,0.7825419902801514,2.3598607068762183,-9.399280912986397,-1.5016509092606602,50,jumping
1783067199385298200,4.4828582,0.5455306263826787,5.822968486613035,-0.167561382985115,0.638581395149231,0.2456305176019668,0.5950860977172852,2.2435646700955925,-9.442851759165524,-1.4033341812849045,50,jumping
1783067199405222100,4.5027821,0.957635948137939,5.476294399058818,1.5670092243559657,0.876085102558136,0.21389701962471,0.7355765104293823,2.1254970935977995,-9.492416877323388,-1.2436425087615848,50,jumping
1783067199425146400,4.5227064,0.7083242104440927,5.082256502783298,3.411237014985084,0.566194474697113,0.2382665425539016,0.7919779419898987,1.982758455571532,-9.542055645239351,-1.090058432398364,50,jumping
1783067199445070300,4.5426303,0.0016474749460816,6.185827400770783,4.298094668805599,-0.1800576001405716,0.1905034780502319,0.5007018446922302,1.858647361125797,-9.572426233583688,-1.0413820067085324,50,jumping
1783067199464993300,4.5625533,-0.5672310015372931,8.352050910902022,2.979899607884884,-0.6087287664413452,0.0300263278186321,-0.0136378221213817,1.813412965648621,-9.571747019147873,-1.1240939729910344,50,jumping
1783067199484917200,4.5824772,-0.9441669563643634,9.791614343431592,1.0169837707720697,-0.4897326231002807,0.0017165918834507,-0.2616993188858032,1.8476792462572451,-9.551447158440949,-1.235454672261327,50,jumping
1783067199504841200,4.6024012,-1.043888582701981,10.033986929512023,-0.0591886865496635,-0.0845049172639846,0.2800362110137939,0.0700874924659729,1.876921122832596,-9.538835514149069,-1.2876995310224593,50,jumping
1783067199524765200,4.6223252,-0.8161001100301742,9.62015010778904,-0.4577133728504181,0.3419709801673889,0.6431214809417725,0.602609395980835,1.823610096144676,-9.554907528027892,-1.244414662177861,50,jumping
1783067199544689200,4.6422492,-1.0585719187013805,9.901696766394377,-0.0326665172617882,0.5844886898994446,0.6845160722732544,0.8251829147338867,1.6975243406251073,-9.59224561729729,-1.1303167930286375,50,jumping
1783067199564612000,4.662172,-1.2637146981924772,9.902817879378794,0.8794320338644087,0.707711398601532,0.7359365820884705,0.791649341583252,1.5565550503589212,-9.63227133821547,-0.9832803116779774,50,jumping
1783067199584536300,4.6820963,-1.1363020779833195,9.417185402989388,0.9453186106175184,0.8908907771110535,0.6626905798912048,0.794036865234375,1.416872438902408,-9.66992331573963,-0.8095970848117023,50,jumping
1783067199604460300,4.7020203,-0.975154799824208,9.003972850644589,0.590114010605216,1.1439013481140137,0.5152199268341064,0.7441580295562744,1.2756271081738173,-9.70487480213344,-0.5987930281559005,50,jumping
1783067199624384300,4.7219443,-0.8084555135611444,7.37441993022263,0.8103279563695192,1.1501678228378296,0.5201314091682434,0.802456796169281,1.1349649110954254,-9.734204941514134,-0.357075618048571,50,jumping
1783067199644308200,4.7418682,-0.3469582382578403,5.507885469108819,0.92259999833107,0.8071802854537964,0.4782125055789947,1.0861294269561768,0.9570306757211684,-9.758640879112482,-0.1530137656619772,50,jumping
1783067199664231400,4.7617914,0.0110891839649528,3.3255507821321486,0.3480103045940399,0.2772033512592315,0.301952451467514,1.3576313257217407,0.717047176734358,-9.780317288869618,-0.0400559699259698,50,jumping
1783067199684155100,4.7817151,0.3201726322608068,1.5302566798895596,-0.6366892992973328,-0.0572158768773078,0.225197821855545,1.3038405179977417,0.4512091420555487,-9.796237911579013,-0.0227637049536337,50,jumping
1783067199704079000,4.801639,1.210450433255732,-1.5412322474122049,-1.4935469516515731,0.0835439637303352,0.2635611295700073,1.1815712451934814,0.2136505869270302,-9.804290869653224,-0.0249752480898401,50,jumping
1783067199724003300,4.8215633,1.4857117279812693,-5.4208121658116575,-1.1113748497366904,0.2343624383211136,0.1592020243406295,1.2782305479049685,-0.0255481868562987,-9.80660966798961,0.0121365901090553,50,jumping
1783067199743927300,4.8414873,0.0410308793727308,-7.965970111110806,0.854422534161806,-0.0826867222785949,0.2189660817384719,1.2198617458343506,-0.2746150692438706,-9.802746562820673,0.0335272668435471,50,jumping
1783067199763850200,4.8614102,0.0964041358200833,-9.875720613616704,0.5481435853600501,-0.2342076450586319,0.2186108827590942,1.0529874563217163,-0.4950386757034808,-9.794141231560706,-0.010196552824031,50,jumping
1783067199783774200,4.8813342,-0.1222162936750799,-13.257926764428614,-0.0183019603213993,0.082345001399517,0.1712227910757064,0.9468355774879456,-0.6933085006851702,-9.782073192626235,-0.0268884133509593,50,jumping
1783067199803698200,4.9012582,-1.713785739596188,-15.595690498048066,0.7832979106247424,0.2851805686950683,0.3701702654361725,0.5731934905052185,-0.8438203299961984,-9.770277540892362,0.0052921955446741,50,jumping
1783067199823622100,4.9211821,-3.0195480199232696,-19.04415454314351,1.828866116976738,0.5512943863868713,0.6191397309303284,0.1927297860383987,-0.920858853752166,-9.76302888493836,0.075272970821592,50,jumping
1783067199843546000,4.941106,-4.226937019781768,-18.30902591240406,2.955995000684261,0.7209050059318542,0.262146383523941,-0.5820159316062927,-0.8920155480403452,-9.7640354316324,0.1956723193017766,50,jumping
1783067199863469300,4.9610293,-3.9167993497252462,-15.115337423366308,4.004903165113926,0.4444751143455505,-0.1875635832548141,-1.4056655168533323,-0.6881483414430171,-9.777477681529522,0.3127405094986781,50,jumping
1783067199883393300,4.9809533,-1.3377154616877436,-11.333505347013473,2.725916663509607,0.3330062627792358,-0.3636787533760071,-1.4318368434906006,-0.3989785675480961,-9.7909848133564,0.3844504951756447,50,jumping
1783067199903317200,5.0008772,0.9229308377206324,-7.4096169158101075,0.8084135741155594,0.5174731612205505,-0.6587818264961243,-0.8940964937210083,-0.1591805446634069,-9.794067581802606,0.4703889492239803,50,jumping
1783067199923241200,5.0208012,0.7643688268143684,-4.858159578105807,0.5469289488732815,0.2654179334640503,-0.6731503009796143,-0.0692397430539131,-0.0577800755604868,-9.790464004352687,0.5602397909430786,50,jumping
1783067199943165000,5.040725,-0.78622351574786,-2.167033072948456,0.2505985261013731,-0.4785214066505432,-0.5682814121246338,0.3443794250488281,-0.0906528331512119,-9.791254862469437,0.541732658871822,50,jumping
1783067199963088000,5.060648,-1.8823311651825905,1.7287445315361023,-1.0088625697672366,-0.8962163329124451,-0.4299998581409454,0.0215765722095966,-0.1284989998069126,-9.797654208117724,0.3998378147259354,50,jumping
1783067199983011800,5.0805718,-1.4717363941207526,5.800399511930346,-1.9498072030842304,-0.8865783214569092,-0.2953211963176727,-0.4941545724868774,-0.0780604141496121,-9.803803378397223,0.2229887259735725,50,jumping
1783067200002935800,5.1004958,-0.5284989006262272,8.387684534341096,-1.7744108886897565,-0.7846430540084839,0.021654549986124,-0.65677410364151,0.0396327075791778,-9.806399240109323,0.0579176117344992,50,jumping
1783067200022859800,5.1204198,-0.0917709778604097,10.175256517899037,-1.6996885329216718,-0.5266718864440918,0.3210736811161041,-0.5560126900672913,0.1622502709649503,-9.805053086197375,-0.0706739480269607,50,jumping
1783067200042784000,5.140344,0.0575902018444612,11.175645858353375,-0.5426853199541568,-0.3882313072681427,0.5825710296630859,-0.4197390079498291,0.2550028072086163,-9.802122293442489,-0.1541768546245992,50,jumping
1783067200062707000,5.160267,0.825830718993023,11.821050379025936,0.5600666628658771,-0.3474977016448974,0.5676923990249634,-0.5200142860412598,0.3482258105082437,-9.797949976193904,-0.2220353890378028,50,jumping
1783067200082631000,5.180191,2.2332908211015163,10.895673901718856,1.064820019310713,-0.329252541065216,0.2951484024524688,-0.5596155524253845,0.4573430051680654,-9.791797298783065,-0.2862552564213984,50,jumping
1783067200102555000,5.200115,2.739165728922188,9.671929394865035,0.9760445882707832,-0.3009142279624939,-0.1012171804904937,-0.4286888241767883,0.5563032917443662,-9.784756148099898,-0.3456214001635089,50,jumping
1783067200122478800,5.2200388,1.6617722053728996,9.011051995250584,1.3930004187971352,-0.2937243580818176,-0.2620746493339538,-0.3507323563098907,0.6281321180280298,-9.778093183079362,-0.4058414025222882,50,jumping
1783067200142402800,5.2399628,-0.0075230159159749,9.773199565818905,0.8984493074148893,-0.1095379889011383,-0.4962813258171081,-0.5380812883377075,0.7084255519267171,-9.77050491990745,-0.4535765287740155,50,jumping
1783067200162325800,5.2598858,-0.1521960560709238,10.00566216778159,-0.4546452539840713,0.3178593516349792,-1.0351362228393557,-0.6087540984153748,0.8200286816507577,-9.762053317904472,-0.4475200417466461,50,jumping
1783067200182249700,5.2798097,-0.2660967952128499,8.998916151776909,-0.1153676333567127,0.4042071402072906,-1.2906033992767334,-0.1392891854047775,0.8887388644572347,-9.75862568154335,-0.386966021660529,50,jumping
1783067200202174000,5.299734,-1.1469500940520316,8.444474343055486,1.1664070011287926,-0.1654378920793533,-1.1497105360031128,0.4718396663665771,0.8445324237883091,-9.762782216700913,-0.3811090757932514,50,jumping
1783067200222098000,5.319658,-2.067229613546282,8.414885844999551,0.8533686411947011,-0.5483916997909546,-1.1865758895874023,0.6767475605010986,0.7128595157861709,-9.76895710594356,-0.4792743760669604,50,jumping
1783067200242022000,5.339582,-2.4854998876720664,8.244063414391874,0.1444599088609218,-0.2289194017648697,-1.240730047225952,0.369161307811737,0.5927337646495551,-9.771564073571565,-0.5793070045825094,50,jumping
1783067200261944800,5.3595048,-1.812733312821388,7.558886270779371,-0.137284902665019,0.3303607106208801,-1.0512518882751465,0.0205436404794454,0.5484451986551284,-9.774121356838942,-0.5797783118886872,50,jumping
1783067200281869000,5.379429,-0.7900405898179859,4.579888580170273,0.3703057230323552,0.3333689570426941,-0.6537613272666931,0.3032651245594024,0.5150067106401548,-9.779645673218369,-0.5135088002325967,50,jumping
1783067200301792800,5.3993528,0.2025830850709229,1.2727648506104945,-0.4364887985140085,0.0879006162285804,-0.4792665839195251,0.5728427767753601,0.4157194205991923,-9.78609762583673,-0.479443047164753,50,jumping
1783067200321716700,5.4192767,0.2248201974507421,-0.7831956192940474,-1.528710034969449,0.1273321360349655,-0.5546210408210754,0.1066343858838081,0.3379668302897364,-9.78959949647784,-0.4689522674843668,50,jumping
1783067200341639700,5.4391997,1.665611637405306,-6.446628792989253,-2.373708907225728,0.4414806962013244,-0.3464836776256561,0.3124786019325256,0.3154406718354672,-9.79264251743555,-0.4183792874582112,50,jumping
1783067200361564000,5.459124,1.7992820028349756,-15.363260044789314,-1.8649784638434648,0.7286542654037476,0.0395002625882625,1.4440511465072632,0.1413682173227425,-9.80099591976106,-0.3014747999230399,50,jumping
1783067200381487900,5.4790479,-1.0760543839000165,-21.08001272073984,0.4214835370838642,0.6868815422058105,-0.0365125499665737,1.5930633544921875,-0.1770109282505698,-9.803841956841945,-0.1540809565020725,50,jumping
1783067200401411800,5.4989718,-3.894439049357176,-24.101076698184013,2.5386919641554355,0.1471631973981857,-0.5452118515968323,0.7676814794540405,-0.4110837601551785,-9.79782781111896,-0.0630872466244734,50,jumping
1783067200421335800,5.5188958,-4.525352103340626,-25.06371878404617,3.309923589411378,-0.4989364743232727,-0.4019343852996826,0.1224927306175232,-0.4928945763468742,-9.79376070781052,-0.0982515903176739,50,jumping
1783067200441259000,5.538819,-4.238554684600234,-22.51392207303047,1.2153075178980826,-0.5871943831443787,-0.0785125270485878,-0.1243899688124656,-0.4902928328832611,-9.792087806162238,-0.2121371318904683,50,jumping
1783067200461182700,5.5587427,-4.4185336506098505,-17.285265048712493,-0.3143921491632238,-0.1818196922540664,0.2916690707206726,-0.5030566453933716,-0.4366080775121226,-9.792558346283435,-0.2925378072896041,50,jumping
1783067200481106700,5.5786667,-3.724355746679008,-10.326281776624915,-0.9892162045329808,0.5680682063102722,0.4846163988113403,-1.409401774406433,-0.2528620140539482,-9.799826291459798,-0.2642978742984123,50,jumping
1783067200501031000,5.598591,-1.2373562680989505,-4.686137708580493,-1.0886866325885056,1.4290072917938232,0.0942322164773941,-2.1835999488830566,0.1108841951991897,-9.805816471785306,-0.0638219495406141,50,jumping
1783067200520955000,5.618515,1.6289046856462954,-0.2918763294398784,-0.5723100583672524,1.438397765159607,-0.6100402474403381,-1.7591874599456787,0.5157015610365197,-9.79040613668561,0.2288918125375174,50,jumping
1783067200540877800,5.6384378,2.5804718352645635,3.610833120134473,-0.1681599334001541,0.6990220546722412,-0.6059961915016174,-0.4240055382251739,0.7425303583633154,-9.768719790056346,0.4372086372211575,50,jumping
1783067200560802000,5.658362,2.140874987732619,6.134850077727437,-0.7274409988462924,-0.4880399405956268,-0.5161992311477661,0.9171777963638306,0.6881736220147461,-9.77209131231606,0.4506109204340726,50,jumping
1783067200580726000,5.678286,0.6172550424437969,8.646729438281058,-1.8339269074976443,-1.086470127105713,-0.7979902029037476,1.451377272605896,0.4511574849335476,-9.792356101709604,0.2767985507627949,50,jumping
1783067200600649700,5.6982097,-1.0976926536038518,10.611917750370502,-2.63853648622036,-0.977766752243042,-0.738446056842804,1.2231277227401731,0.1817608261913992,-9.804773684734103,0.0616273438394768,50,jumping
1783067200620573700,5.7181337,-1.4238481231339275,11.000353588855264,-2.4198422973692417,-0.5490318536758423,-0.3481545150279999,0.6572852730751038,-0.0013003878173221,-9.806243757286667,-0.0891316788653843,50,jumping
1783067200640497000,5.738057,-0.1570220879878848,10.830420216041803,-1.8599018912315368,-0.1283853352069854,-0.0104109067469835,0.3928669095039367,-0.0969128251277375,-9.80495313295424,-0.154519567115046,50,jumping
1783067200660420900,5.7579809,1.2549180821441113,10.30387939068079,-1.313926882082224,0.0942924246191978,0.0057008871808648,0.3981029987335205,-0.1719907254683785,-9.803938987475632,-0.1535690066582523,50,jumping
1783067200680344800,5.7779048,1.3202180911809205,9.194616418531536,-0.1907113906924612,-0.1704409122467041,-0.1922962218523025,0.5163806676864624,-0.2609335672307759,-9.801996621236205,-0.1522580610570032,50,jumping
1783067200700269000,5.797829,0.3885074058836326,8.522270114919543,0.8072785056710243,-0.7813553810119629,-0.2990659475326538,0.5290277004241943,-0.3674084672208875,-9.796733586141466,-0.2437434908411465,50,jumping
1783067200720193000,5.817753,-0.384274188760668,8.515758541068434,0.6333984410583973,-1.138529896736145,-0.1602010577917099,0.3494715094566345,-0.4553424059353768,-9.786331434592604,-0.4367743739897385,50,jumping
1783067200740116000,5.837676,-0.8715895036704838,8.889861902818083,-0.6805308521766216,-0.8259785771369934,-0.0745897591114044,-0.0270075388252735,-0.4914595751076936,-9.773473122063278,-0.6388236809775233,50,jumping
1783067200760039700,5.8575997,-1.0789524434290825,8.663901522356271,-1.1543576668947937,-0.1010847985744476,0.0173612665385007,-0.4806712865829468,-0.4409166248936206,-9.76957436105907,-0.728980994829908,50,jumping
1783067200779964000,5.877524,-1.2550485766559838,7.801248335465789,-0.3257558757532388,0.2884800434112549,0.0928361862897872,-0.86600661277771,-0.3089635847758502,-9.776614927220344,-0.7019554791297763,50,jumping
1783067200799888000,5.897448,-1.2927512614540757,6.833984435021877,0.7606927686501294,0.1969865262508392,0.2356155812740326,-1.1565710306167605,-0.1083056316817644,-9.784388483831286,-0.6514573179055005,50,jumping
1783067200819811800,5.9173718,-0.3404373851217329,6.275103182548285,0.8692020970772951,0.106013149023056,0.2963506281375885,-1.1779006719589231,0.1291491160124074,-9.785901811003685,-0.6243950503915549,50,jumping
1783067200839734800,5.9372948,0.7931608407303691,5.279929530915617,0.876463101056218,0.0768938809633255,0.1700085997581482,-0.9213730096817015,0.339296507990919,-9.782225752839446,-0.6027757045838982,50,jumping
1783067200859659000,5.957219,0.9662059158235788,4.0665614566475154,1.1980138532698157,-0.1775507032871246,-0.0747239142656326,-0.7077022790908813,0.4969505372067913,-9.775085817956924,-0.6091899190077558,50,jumping
1783067200879583000,5.977143,1.1638676919095217,2.290494617444277,0.8816128119695931,-0.5356207489967346,-0.3913602530956268,-0.4166136384010315,0.6055968994844705,-9.764143568181993,-0.6819962485540658,50,jumping
1783067200899506700,5.9970667,1.9891085552506147,0.0835509743899106,0.2861204693268984,-0.8864541053771973,-0.5499169826507568,0.0778304561972618,0.6355350146956742,-9.751188809540867,-0.8251153372652829,50,jumping
1783067200919431000,6.016991,2.753722954323888,-2.6982150021135807,-0.2268950309634208,-1.3588312864303589,-0.6107708811759949,0.6358945369720459,0.5556624365575611,-9.734723996952177,-1.0472693111814555,50,jumping
1783067200939353900,6.0369139,2.537859312723577,-5.881415414884686,-1.0857254446953537,-1.6524288654327393,-0.6578880548477173,1.1561675071716309,0.3624167964134365,-9.70588485595882,-1.3545643051579594,50,jumping
1783067200959277300,6.0568373,0.9619056613463908,-7.650296726498007,-1.9596675028413533,-1.1923627853393557,-0.6670466661453247,1.204208493232727,0.1072549901176709,-9.667262572097778,-1.6440546162441372,50,jumping
1783067200979201300,6.0767613,-0.534910375103727,-12.07770225034952,-3.065327482062578,-0.3484154343605041,-0.4503738284111023,1.1282356977462769,-0.1341193878388032,-9.64069839029908,-1.791460369298607,50,jumping
1783067200999125500,6.0966855,-2.124365313088894,-18.93073859184384,-3.02349208137393,0.3194209337234497,0.1300600469112396,1.548082947731018,-0.3843089678131043,-9.634480246436596,-1.7887039101973174,50,jumping
1783067201019048400,6.1166084,-4.814495208424329,-24.95308983311653,-1.5534071077220142,0.5450915694236755,0.4724272489547729,2.10010313987732,-0.7345158326033503,-9.63070481955111,-1.6971702664904296,50,jumping
1783067201038972400,6.1365324,-9.351172423377632,-22.310344789290426,2.0424819796502587,-0.2948598563671112,0.8656216859817505,1.6137720346450806,-1.0873969581041485,-9.601219781869649,-1.6746726034782826,50,jumping
1783067201058896400,6.1564564,-9.880444719529152,-16.540208898198603,1.8026916651479896,-0.5179942846298218,1.4399709701538086,0.1988942325115203,-1.226855040089786,-9.560779634931682,-1.8046368078663944,50,jumping
1783067201078820400,6.1763804,-5.602023303964733,-10.719091007888316,-0.5507368167236447,0.5651838779449463,1.9239962100982664,-1.130951762199402,-1.062237382406369,-9.569974164256452,-1.8594762131653728,50,jumping
1783067201098744300,6.1963043,-0.761989530462399,-6.82911186054945,-0.9321569312274456,2.307508707046509,1.7039568424224854,-1.5625662803649902,-0.7261565119937062,-9.645988313400744,-1.6118322625532746,50,jumping
1783067201118667300,6.2162273,2.203527112609148,-2.08474057418704,1.2206927180677651,2.618961811065674,1.080295443534851,-1.24580979347229,-0.408324853368476,-9.733338095551728,-1.1250744353957474,50,jumping
1783067201138591500,6.2361515,3.2354657297983764,1.4970114128917456,2.093943286818266,1.7966856956481934,0.428862452507019,-0.6300385594367981,-0.2093446150951087,-9.779901109284165,-0.6928866220112889,50,jumping
1783067201158515500,6.2560755,2.918105122750997,4.125923746198415,1.9901415515601637,0.751008927822113,0.1152069419622421,0.1975022405385971,-0.164024970753584,-9.795242470800876,-0.4434871329687535,50,jumping
1783067201178439400,6.2759994,2.044798147638142,7.1613652085632085,0.7248463061779737,-0.0422272868454456,0.0234768185764551,0.8161452412605286,-0.2690486855546943,-9.795435363024472,-0.3839720274763181,50,jumping
1783067201198363400,6.2959234,0.8607399006150662,9.494877714478967,0.0291418867995962,-0.2084757536649704,0.1835702806711197,0.9512595534324646,-0.448039499043487,-9.78757003647685,-0.416104693589732,50,jumping
1783067201218286600,6.3158466,0.3055133347241208,11.652269683378934,-0.0225549826899543,-0.0683753788471221,0.3225358128547668,0.6429349780082703,-0.606285027879104,-9.77761095252037,-0.4485039382174611,50,jumping
1783067201238210600,6.3357706,0.6287386325538158,12.045303371047972,0.1032843968531116,0.1342322826385498,0.3358388543128967,0.332552045583725,-0.6950281640846282,-9.771861010691524,-0.4450567203730344,50,jumping
1783067201258134300,6.3556943,0.6501788954675197,11.318602376914024,0.2566390118420124,0.1222189664840698,0.3394429087638855,0.0768777802586555,-0.7327788527429103,-9.77015186868608,-0.4213901597119867,50,jumping
1783067201278058500,6.3756185,0.9370864235188812,10.532983914387223,0.2767530311206355,-0.1016372367739677,0.4493232071399688,-0.0198962390422821,-0.7307360218036919,-9.7702810480237,-0.4219016163654625,50,jumping
1783067201297982500,6.3955425,0.9788581843867896,10.08240872285366,-0.247364987540245,-0.2951596975326538,0.5091114044189453,-0.0490316748619079,-0.7216311435237527,-9.768618083247542,-0.4729901812309399,50,jumping
1783067201317905400,6.4154654,0.6707846072532236,9.207607417529822,-0.8001865015834569,-0.1274154186248779,0.434686005115509,-0.2553522884845733,-0.6894893077231943,-9.768299518817663,-0.524704915170744,50,jumping
1783067201337829400,6.4353894,0.3619026363462209,8.232105265572667,-0.5648924390545115,0.0360576137900352,0.4056523442268371,-0.4462146461009979,-0.615687866192311,-9.772623811757564,-0.5358418107349425,50,jumping
1783067201357753600,6.4553136,0.5313274020504206,7.385257550579309,0.1516455460486933,-0.0393788740038871,0.5402945280075073,-0.4240755438804626,-0.5221993255579844,-9.777961665654182,-0.5377106002815067,50,jumping
1783067201377677600,6.4752376,0.6110694126114249,7.0081848176300525,0.2144827451685443,-0.1674797981977462,0.44120854139328,-0.4488826692104339,-0.4343472929732874,-9.78081939317286,-0.563287999532558,50,jumping
1783067201397600500,6.4951605,0.4160553745552897,6.4268561710268255,0.485686179338023,-0.3097122013568878,0.3261986076831817,-0.4962963163852691,-0.3370467197701334,-9.78173241636455,-0.611980243846029,50,jumping
1783067201417524200,6.5150842,0.6074903485482558,5.323606760078668,0.6694920832246541,-0.4978713095188141,0.3608970046043396,-0.3736127912998199,-0.2449183433067984,-9.779216049629447,-0.6908902605623006,50,jumping
1783067201437448400,6.5350084,0.7897552700705825,3.202259918028116,0.99954996702075,-0.8985477685928345,0.4620957374572754,-0.0178654696792364,-0.1965917722342536,-9.770003984647987,-0.8238752740763128,50,jumping
1783067201457372400,6.5549324,0.8418107437394559,1.5567390286237,0.8429501960981637,-1.364590764045715,0.4013714492321014,0.2547673881053924,-0.2169239277755841,-9.74804992699325,-1.0482531345870345,50,jumping
1783067201477296400,6.5748564,1.4331747544057667,0.0178758484303951,-0.4757302371867001,-1.6015433073043823,0.2539733946323395,0.1628311425447464,-0.2525340607412159,-9.711101713824272,-1.342067519417405,50,jumping
1783067201497219300,6.5947793,1.805231997280568,-3.655460197368264,-1.980458508066088,-1.3872320652008057,0.2574644088745117,0.2316092103719711,-0.2775817735623568,-9.664531685829164,-1.6401730986356735,50,jumping
1783067201517143600,6.6147036,1.172342528657615,-7.209532150360942,-2.662521172919869,-0.8408560156822205,0.292032241821289,0.4439433813095093,-0.3381128511643037,-9.623202481096982,-1.857432286247611,50,jumping
1783067201537067500,6.6346275,-0.7758313010711222,-7.121179913169145,-1.2728593970261513,-0.3658011853694916,0.1084991097450256,0.0684532672166824,-0.3874514670899137,-9.598876433613896,-1.970236096998304,50,jumping
1783067201556991200,6.6545512,-0.9775837805368006,-6.837729466769098,-0.7577186482101679,-0.036889087408781,-0.0875546261668205,-0.5699172019958496,-0.3359349956685677,-9.593077391946316,-2.0075844154007734,50,jumping
1783067201576915500,6.6744755,-0.0234609002874232,-7.788215835413336,-1.2850550078630447,0.2953228950500488,-0.1464848518371582,-0.6299698352813721,-0.2161088667993433,-9.601319735112783,-1.984526634287834,50,jumping
1783067201596838400,6.6943984,1.061060520646721,-10.221555327737333,-1.638609502580762,0.5987446308135986,-0.0635465607047081,0.0477322228252887,-0.1553040868225507,-9.62098889670074,-1.8928378000192343,50,jumping
1783067201616762400,6.7143224,-0.1449518936289474,-11.80453646659851,-0.0671906450890004,0.2274909019470214,0.2531241178512573,0.8090183138847351,-0.2390180332218296,-9.636436056679488,-1.803429039511829,50,jumping
1783067201636686300,6.7342463,-2.1468173833936453,-12.43190614888668,-0.0367272638946771,-0.3622754216194153,0.3835953772068023,1.1493626832962036,-0.4230589331744238,-9.626771571755407,-1.8211733705170448,50,jumping
1783067201656610600,6.7541706,-3.56351344281584,-11.485553519046306,-0.6970993443354964,-0.6620250344276428,0.4834118485450744,1.07375967502594,-0.6255913475040346,-9.594195582321284,-1.931435387830436,50,jumping
1783067201676534500,6.7740945,-3.389939959934354,-9.088857119464874,-2.496158059808612,-0.3366749584674835,0.6509427428245544,0.5499917268753052,-0.7622041230611503,-9.560776712322234,-2.044744810015708,50,jumping
1783067201696457500,6.7940175,-1.097307380613312,-7.216526539292931,-3.613680326259136,0.349250853061676,0.6651670336723328,0.1406440287828445,-0.7954586693439633,-9.556502688264846,-2.052048557157814,50,jumping
1783067201716381200,6.8139412,1.727942129112035,-5.669270209285616,-2.759038011866808,0.6498527526855469,0.5435348153114319,0.3855181932449341,-0.8106636180646717,-9.574911036136744,-1.9581378090560435,50,jumping
1783067201736305400,6.8338654,4.136874471540748,-3.490815578612685,-2.088605432921648,0.2385535091161728,0.0641258507966995,1.2572087049484253,-0.9460021359022708,-9.58062766021788,-1.867364043805748,50,jumping
1783067201756229400,6.8537894,4.63233831385374,-2.6528362297296524,-0.0402238738387823,-0.8047545552253723,-0.3340605497360229,2.5810372829437256,-1.3178652444444596,-9.528263266730308,-1.909404173286259,50,jumping
1783067201776152300,6.8737123,2.6002666690587994,1.9135382043510676,1.6023805435970424,-2.037272453308105,-1.0360662937164309,2.971827507019043,-1.8878426220804447,-9.378211821472645,-2.157685837280005,50,jumping
1783067201796076300,6.8936363,0.8442585752829909,4.872006901672482,3.7679298077285286,-2.9813334941864014,-0.6862701177597046,2.755160331726074,-2.4597461454734204,-9.134882957580684,-2.583398536366224,50,jumping
1783067201816000500,6.9135605,1.7495590637668963,7.10916097407341,4.589643665987253,-3.463085651397705,0.846924364566803,2.8763182163238525,-2.9535432236179706,-8.797821332502364,-3.1694334609642625,50,jumping
1783067201835924500,6.9334845,3.752565649858117,8.294459722676873,2.464071899718046,-3.202772617340088,1.8296170234680176,3.1887755393981934,-3.3715883106857536,-8.36658504768908,-3.8474715464770792,50,jumping
1783067201855848200,6.9534082,2.0931807780131697,8.336985443717241,2.1687340316474435,-1.8518301248550413,0.832298994064331,2.5790798664093018,-3.741289345823228,-7.940295571628212,-4.373195502497255,50,jumping
1783067201875771600,6.9733316,-0.367919120156765,7.634583609059453,4.438490981489419,-0.8348953723907471,0.014466343447566,0.9877352714538574,-3.989827176535129,-7.694737925770879,-4.587230759626626,50,jumping
1783067201895695400,6.9932554,0.3324830651164054,7.589729737332463,7.165437572568655,-0.9984645247459412,0.815316379070282,0.2201010137796402,-4.03885687264204,-7.57192286248505,-4.74594628059417,50,jumping
1783067201915619300,7.0131793,2.700766147901118,7.279651980769634,6.524242194023728,-1.335349202156067,2.005861520767212,0.4254461228847503,-3.937072030164301,-7.437818927943706,-5.034749486199021,50,jumping
1783067201935543300,7.0331033,4.512358473993838,6.187897777304053,5.203469976091385,-1.3992656469345093,2.545318841934204,1.6221083402633667,-3.836295487946272,-7.217104631441831,-5.419097178587317,50,jumping
1783067201955467500,7.0530275,5.177506098273396,5.509181354138255,5.015865922030806,-1.0775196552276611,2.484945297241211,2.5431249141693115,-3.853063667395711,-6.911435338971018,-5.79278436075151,50,jumping
1783067201975390500,7.0729505,3.464569376721978,5.170120079675317,4.250313511455059,-0.6068530082702637,1.9489047527313232,2.390761137008667,-3.935478915753961,-6.615170419183373,-6.076341774657369,50,jumping
1783067201995314700,7.0928747,1.844738516630232,3.542981819179654,5.561660898438095,-0.1558415740728378,2.223921060562134,2.444272756576538,-3.987699224595725,-6.386695425552129,-6.283213423767686,50,jumping
1783067202015238400,7.1127984,1.8976383321687575,4.501252850350737,3.5800270629823205,-0.0181475151330232,2.170827627182007,2.1264121532440186,-3.999298476974666,-6.185872993478179,-6.473868682092427,50,jumping
1783067202035162400,7.1327224,0.5110635625049471,3.5333360389560458,3.3480373392283918,0.510521650314331,1.7571920156478882,1.7794325351715088,-3.9730791630908846,-6.064007193741202,-6.604002543959021,50,jumping
1783067202055085300,7.1526453,1.2098244103118776,4.78894341853857,3.656860711815953,0.4494393765926361,1.075555443763733,1.0997216701507568,-3.955823784646392,-6.026147126424312,-6.648864598992467,50,jumping
1783067202075009500,7.1725695,0.0494376923859119,3.0962060199290518,1.9814292527943849,-0.1309601813554763,1.053874135017395,0.95612370967865,-3.9519863984406,-5.965955984833836,-6.705189128282666,50,jumping
1783067202094933500,7.1924935,0.3889098857372999,-1.1964841594845057,-0.2625491126686334,-0.3738808631896972,2.202265739440918,1.5150471925735474,-3.870228737208247,-5.839924882110953,-6.861996477541327,50,jumping
1783067202114857500,7.2124175,-0.5379983311817049,-3.1886066557288166,-3.242487883520126,-0.978982150554657,2.3586461544036865,1.785104751586914,-3.7352027193859216,-5.615321761476993,-7.119467264032363,50,jumping
1783067202134781700,7.2323417,-1.4352446925476192,-2.3111159651905298,-5.115307708513736,-0.7015196681022644,1.6695544719696045,1.4905651807785034,-3.618915012042224,-5.359457241138816,-7.372249600446223,50,jumping
1783067202154704600,7.2522646,-3.45313320595026,-4.087974247032403,-4.48651529994607,0.0819040834903717,1.938038110733032,1.5475634336471558,-3.5334465135931965,-5.213050289863348,-7.517263636058568,50,jumping
1783067202174628600,7.2721886,-3.28610373788476,-4.918476391902566,-4.345730864727497,-0.2406221330165863,3.054567813873291,1.6661746501922607,-3.319349004882574,-5.101856106266379,-7.689172692859172,50,jumping
1783067202194552300,7.2921123,-3.05241773160696,-4.240110974131524,-10.593967083138226,-1.2688794136047363,0.9165619015693665,2.2052202224731445,-3.135845371878147,-4.869377429951727,-7.913660662680864,50,jumping
1783067202214476500,7.3120365,-4.8755002967461945,-2.926590627023577,-4.145947128051519,-1.4369038343429563,-0.4315824806690216,2.040144681930542,-3.340801250495016,-4.492591697250306,-8.051462867218255,50,jumping
1783067202234399500,7.3319595,-4.375075032633543,-1.442067524304986,-2.49638485430181,-1.156091809272766,-0.5407691597938538,0.9689172506332396,-3.572327448390424,-4.182660071159899,-8.118756534290313,50,jumping
1783067202254323500,7.3518835,-2.8958620190218087,-0.0596966360718011,0.7484522226929664,-1.6462562084197998,0.0289885681122541,-0.0344001613557338,-3.645246554128825,-3.933682095465064,-8.21028038725555,50,jumping
1783067202274247400,7.3718074,-0.4989090143308043,-0.5897796640843153,1.147122454944253,-2.523622989654541,-0.0380771569907665,-0.4354837834835052,-3.609241467028856,-3.609650047829747,-8.373421615710853,50,jumping
1783067202294171600,7.3917316,1.0258236414402722,-2.94787511485368,-0.6758160255491733,-2.891887664794922,-1.1774917840957642,-0.0814494490623474,-3.6899715387791394,-3.1642224483177066,-8.517170161432027,50,jumping
1783067202314095600,7.4116556,1.5709665836796165,-2.4945620227888226,0.0231365454375743,-2.7952027320861816,-1.602278232574463,0.1222865954041481,-3.944817529724538,-2.6746689990922805,-8.570586109799146,50,jumping
1783067202334018600,7.4315786,0.7557195833474397,-1.9452318579927088,-0.4265618632614612,-2.7928171157836914,-1.260956883430481,0.1706823706626892,-4.201424392862617,-2.186711148495227,-8.587008252289891,50,jumping
1783067202353942300,7.4515023,-0.7669710452020168,-2.508860597254336,-1.9850287385910748,-2.5336482524871826,-0.8600786328315735,0.1318644136190414,-4.389241505151987,-1.706879613469541,-8.601831727412343,50,jumping
1783067202373866500,7.4714265,-1.2644736998662351,-2.322681607560813,-2.4557009617358445,-1.529699206352234,-0.5568479299545288,-0.130268394947052,-4.511837080468237,-1.3483777254775169,-8.602069043299556,50,jumping
1783067202393790500,7.4913505,-1.9688582327738404,-2.75602158665508,-2.5135090075820683,-0.1763475388288498,-0.5048828125,-0.3409441709518432,-4.594994963887333,-1.2262838160730898,-8.576283444657921,50,jumping
1783067202413714400,7.5112744,-1.5821522868216036,-1.4901063096784055,-1.182989887139201,0.345476895570755,-0.5452932119369507,-0.8285802602767944,-4.675243389600515,-1.3076678216874598,-8.520709441474079,50,jumping
1783067202433637400,7.5311974,-0.3340402314305305,-2.9124107105016708,0.1774479862272739,0.0115445991978049,-0.1480731070041656,-1.0589689016342163,-4.705604625594615,-1.4396490649864078,-8.482634270101785,50,jumping
1783067202453561600,7.5511216,-0.1217696458861231,-3.712020288980007,0.1395744749069213,-0.5961014032363892,0.1970412880182266,-0.9104083776474,-4.673217728991807,-1.4802547777496278,-8.493542617607115,50,jumping
1783067202473485600,7.5710456,-0.2329948091432452,-2.3673405412375925,0.0381008903354406,-0.9097846746444702,0.3317761421203613,-1.0000780820846558,-4.595361751373112,-1.4331553190529345,-8.543951200851797,50,jumping
1783067202493409300,7.5909693,0.2308510751128196,-1.4484902508288622,0.0456792166352272,-0.7735487818717957,0.2520235180854797,-1.2592569589614868,-4.51407784513235,-1.3868430652111767,-8.594774794638157,50,jumping
1783067202513332500,7.6108925,1.229715690217912,-0.7006080831088125,0.0249900643497705,-0.4715149998664856,0.1604458540678024,-1.3671760559082031,-4.440340116487443,-1.3992565565824509,-8.63109756938517,50,jumping
1783067202533256400,7.6308164,2.411582126285136,-0.5856245902314782,-0.1542629254728555,-0.1875104457139969,0.0707714334130287,-1.1502965688705444,-4.386648858310282,-1.4564796421475708,-8.649066941317916,50,jumping
1783067202553180400,7.6507404,2.427568799968064,-1.210143413133174,-0.0663935033619403,-0.0893981978297233,0.1473584920167923,-0.7153992056846619,-4.340385996568203,-1.517151552992314,-8.661967339423299,50,jumping
1783067202573104400,7.6706644,1.9600705306842925,-1.3970228061810137,-0.1198942074030637,-0.2162301838397979,0.250242531299591,-0.5272426009178162,-4.2864863563373685,-1.544852337605506,-8.683884572198986,50,jumping
1783067202593028600,7.6905886,1.132251049026847,-1.445725608421117,-0.744157740369439,-0.29735067486763,0.1889201253652572,-0.3791415393352508,-4.231844373306632,-1.5361029216997324,-8.71219062922895,50,jumping
1783067202612951600,7.7105116,0.3156023652032017,-1.4206734386205673,-1.4042425283014774,-0.0169429127126932,0.3247999548912048,-0.1700056791305542,-4.1853804360345,-1.5267384426355362,-8.73624896568656,50,jumping
1783067202632875500,7.7304355,0.0878188609674573,-0.8692625220276415,-1.5244722512692213,0.4033619165420532,0.5172231197357178,-0.0097241001203656,-4.098555554540456,-1.5690823773682117,-8.769846699383855,50,jumping
1783067202652799500,7.7503595,0.343121948030591,-1.475617765598744,-3.5148873590737577,0.6099147200584412,-0.5366633534431458,0.083637997508049,-4.087503414650262,-1.661683942567557,-8.757939403969049,50,jumping
1783067202672723500,7.7702835,-1.039366136841476,-1.4986832916267214,-3.325799788457155,0.5151144862174988,-1.079963445663452,0.1216626912355423,-4.247031128783524,-1.7535403884880243,-8.663613937586545,50,jumping
1783067202692646400,7.7902064,-2.2134625234290954,-0.0901734612695872,-1.955643069630861,0.4121691882610321,-0.5868037343025208,-0.0936470478773117,-4.400818837960064,-1.8275822146460408,-8.57106307966113,50,jumping
1783067202712570400,7.8101304,-1.9507874462932344,0.4195952391192317,-1.1165098745375872,0.3910560309886932,-0.0739792957901954,-0.3873259723186493,-4.4412820735126735,-1.9167194647356869,-8.530626439854503,50,jumping
1783067202732494600,7.8300546,-0.2505477092295884,0.6477553215824067,-0.806566558009386,0.5010708570480347,0.0311960577964782,-0.6163922548294067,-4.420090816923976,-2.0350456921696662,-8.514210142582655,50,jumping
