time,seconds_elapsed,acc_x,acc_y,acc_z,gyr_x,gyr_y,gyr_z,grav_x,grav_y,grav_z,fs_hz,activity
1783067331238354700,0.0,-0.596954962541163,1.7363158435732124,-0.2356073297291994,0.0965817645192146,-3.2347240447998047,-0.7564472556114197,-1.9546654567703603,-9.25844854697287,-2.575036073951423,50,jumping
1783067331258277600,0.0199229,-0.9242341754041612,1.263670274528861,0.2893846587546169,0.0161582976579666,-3.195594310760498,-0.7566336393356323,-1.9770890316329892,-9.291427856510875,-2.435337534273416,50,jumping
1783067331278201600,0.0398469,-0.3931066067747771,1.6632389169245958,1.2888826033271847,0.1809460222721099,-1.0736356973648071,-0.5406662225723267,-1.9749081804625688,-9.318847778356076,-2.330060611896217,50,jumping
1783067331298124500,0.0597698,-0.0092985742211341,0.3489408634424209,0.0918874255806207,0.5326569080352783,-0.7253837585449219,-0.3101685643196106,-1.9356909994482996,-9.35173765604496,-2.229011536347121,50,jumping
1783067331318047700,0.079693,0.5302553158394993,1.3030518523246049,-1.1869593752920626,0.5733946561813354,-1.300079584121704,-0.101873941719532,-1.941936469709128,-9.385128468993306,-2.0781329926155507,50,jumping
1783067331337971700,0.099617,-0.7059060433864593,1.671644341698289,-0.1032137062370777,0.4590706527233124,-1.2007935047149658,-0.1159862950444221,-1.9806873483859,-9.407758818474411,-1.934251906555891,50,jumping
1783067331357894700,0.11954,-0.8241358247086406,0.6111404320210219,1.451853005260229,0.5404658317565918,-0.9887694120407104,-0.3921619057655334,-1.9697478750899435,-9.437813764998316,-1.7939247135855256,50,jumping
1783067331377817600,0.1394629,-0.660523471610248,-0.943732218208909,0.0189238961786031,0.3214066922664642,-0.8577150106430054,-0.2556926012039184,-1.935988228829205,-9.466855150565504,-1.6736168108150362,50,jumping
1783067331397741600,0.1593869,0.4485426627926528,-0.2017424695283174,0.6109552847124636,0.1241454556584358,-0.149106353521347,0.2647309899330139,-1.949557173845917,-9.474422370949387,-1.6139759965837002,50,jumping
1783067331417664800,0.1793101,0.7767182399734854,-0.1299713647812604,0.1649858334086835,0.0935578420758247,-0.0834301710128784,0.7792296409606934,-2.054474030739069,-9.455814701113104,-1.592827848484367,50,jumping
1783067331437587700,0.199233,0.4538981984764337,0.5836971293002367,-1.0489122560828923,0.1076046004891395,-0.8412780165672302,0.6830509901046753,-2.216180257955193,-9.425334222653508,-1.556278133113682,50,jumping
1783067331457511700,0.219157,-0.3704756727717816,1.7468384066313505,0.28429668796584,0.2564570307731628,-0.8559021949768066,0.2441625744104385,-2.331082063898444,-9.409930901816487,-1.4797517966635525,50,jumping
1783067331477434600,0.2390799,-0.0594482142686843,1.5771242295265198,1.383158385349065,0.2580463886260986,-0.4064294993877411,0.1708047538995742,-2.3800932014353573,-9.41005306689143,-1.3987206961400809,50,jumping
1783067331497357600,0.2590029,1.2048787706032396,1.3437111949712035,0.6423850267209112,0.117338478565216,-0.5224048495292664,0.3899032473564148,-2.444027621207386,-9.401695572912692,-1.343586545678228,50,jumping
1783067331517281800,0.2789271,1.263105334122479,2.03634449980855,0.7361193953424692,0.0283061973750591,-0.5617752075195312,0.4141001999378204,-2.538765906174481,-9.382353743582964,-1.302497725573182,50,jumping
1783067331537204700,0.29885,1.052922660768032,2.534592712143064,0.8525276603259145,-0.1116688847541809,-0.3099682629108429,0.3499153852462768,-2.619628079871833,-9.362107074368,-1.2879727950058877,50,jumping
1783067331557127700,0.318773,0.904492386971414,2.350651856765151,0.3720867612302303,-0.2470313161611557,-0.2701771855354309,0.2780963182449341,-2.68847189899534,-9.339925053176284,-1.3070223633907734,50,jumping
1783067331577051600,0.3386969,0.871485604904592,2.4550018735557795,0.2127373262733221,-0.1689805686473846,-0.2598166167736053,-0.0140753416344523,-2.7213056625828145,-9.326211000600455,-1.3366656603738665,50,jumping
1783067331596974600,0.3586199,0.8534124803364277,2.1044342856943605,-0.0189947694577276,0.0862201526761055,-0.0361558981239795,-0.1970864385366439,-2.702634279860556,-9.33193171633482,-1.3346268480226398,50,jumping
1783067331616897500,0.3785428,0.5960577214404941,0.7007727721512317,-0.3205909672707319,0.0691376477479934,-0.0694555267691612,-0.1692119538784027,-2.667940275359153,-9.344888228541611,-1.313601157259196,50,jumping
1783067331636821800,0.3984671,-0.0391977456614375,-1.1152724416971207,-0.5588793527774513,-0.0965779274702072,-0.0976535230875015,-0.0194022450596094,-2.6512860776782032,-9.349782430323955,-1.3124883737117052,50,jumping
1783067331656744700,0.41839,-0.0680178896933794,-3.5006507439285515,-1.039241779809445,-0.0212542824447155,-0.2532220780849457,0.0272222682833671,-2.657780115872621,-9.346634779947996,-1.3217403323121368,50,jumping
1783067331676667600,0.4383129,-1.3032368535026908,-7.150971240320802,-1.5368242217116057,0.6470982432365417,-0.2748644351959228,0.0780132636427879,-2.675776375812292,-9.35076384257674,-1.2545152004316449,50,jumping
1783067331696591600,0.4582369,-3.4585946862265464,-12.205562906587122,-2.449967386519909,1.4910967350006104,0.1361377984285354,0.2845051884651184,-2.708269947659969,-9.366792601835726,-1.048260587241128,50,jumping
1783067331716514600,0.4781599,-5.723848771691322,-17.56811402208805,-2.770779303064942,2.077011108398437,0.6868069767951965,0.6765041351318359,-2.790979502789676,-9.372640158820152,-0.731039973186329,50,jumping
1783067331736437500,0.4980828,-8.667717281252145,-20.511043789494035,-2.646970552566648,1.6304136514663696,0.4025076925754547,0.5953243374824524,-2.9155799881875515,-9.354528163546323,-0.4032418875483796,50,jumping
1783067331756361700,0.518007,-10.513907457995414,-17.85586479603052,-1.158693065750599,0.5664777159690857,-0.0552384033799171,-0.2609504759311676,-2.947639844793081,-9.350794237715006,-0.2107904665218666,50,jumping
1783067331776284700,0.53793,-7.555420640495419,-13.455209916460513,-1.536045200163126,0.1336140185594558,-0.6176819801330566,-0.4879854619503021,-2.865641068281233,-9.377543128430842,-0.1419910253962036,50,jumping
1783067331796207600,0.5578529,-4.435348007288575,-9.781962133467196,-2.8170085547983645,0.7221761345863342,-0.6860613226890564,-0.1651362627744674,-2.806812739476561,-9.396341352403164,-0.0310438433968229,50,jumping
1783067331816131600,0.5777769,-3.889835354954004,-4.786432897022366,-1.98406836912632,1.0610599517822266,-0.3686820864677429,-0.3224814534187317,-2.771432214015722,-9.405197443553805,0.1783920438780449,50,jumping
1783067331836054500,0.5976998,-2.961215365681052,-0.2427706454873084,-1.0232768795669078,0.953824818134308,-0.3321658968925476,-1.0699620246887207,-2.63986948838979,-9.43683702892065,0.3841755141591653,50,jumping
1783067331855977500,0.6176228,-0.2491865038789808,2.1684984693259,-0.8641513164937495,0.9909270405769348,-0.3094339966773987,-1.433385968208313,-2.393862637460232,-9.49206207253635,0.583580772911571,50,jumping
1783067331875901700,0.637547,2.222239850255102,5.55643176561296,-0.3906465733367949,1.022247076034546,-0.1037095412611961,-1.526827335357666,-2.1115077312119306,-9.544422958892584,0.7847915101833641,50,jumping
1783067331895824600,0.6574699,4.026759607613086,9.681952191707492,-0.3896693258024752,0.9399517774581908,-0.3255373239517212,-1.6922223567962646,-1.7988054713644086,-9.589923896351456,0.9838803233977408,50,jumping
1783067331915747600,0.6773929,4.472058904570341,11.61777587762475,0.2020306388199329,0.4290159940719604,-0.5486274361610413,-1.4868718385696411,-1.477660815733671,-9.628194298034906,1.1334849747359752,50,jumping
1783067331935671600,0.6973169,3.2517955178305504,12.409684964728354,0.029686624668166,-0.1355437189340591,-0.730582594871521,-1.1183311939239502,-1.2131327311422675,-9.659794135913252,1.177738323286548,50,jumping
1783067331955594500,0.7172398,2.680985050371289,14.007620511615276,-0.7903063280820846,-0.5912962555885315,-0.915862798690796,-0.8687490224838257,-1.0053431634694336,-9.690426590064169,1.1204071742370725,50,jumping
1783067331975517700,0.737163,2.5669711331784724,14.20131002306938,-1.8600269789159296,-0.4894465804100036,-1.1508047580718994,-0.6657964587211609,-0.8344671760436146,-9.717119951200484,1.0254979896824807,50,jumping
1783067331995441700,0.757087,1.975259916509688,12.888060017335414,-1.991540896964073,-0.2506459355354309,-0.9873038530349731,-0.3142328262329101,-0.7151615821834654,-9.731903094312548,0.9741547559361904,50,jumping
1783067332015364600,0.7770099,0.9264805660914628,11.000975520145891,-1.974157215964794,-0.2897664606571197,-0.7747900485992432,0.0968450084328651,-0.6795785198878497,-9.73818378201723,0.9361217432051896,50,jumping
1783067332035287600,0.7969329,0.1822179771080613,9.61380804528594,-2.2129332388579845,-0.2214070111513137,-0.4769363403320312,0.2319530695676803,-0.7052013291832059,-9.740550511148571,0.8914826832726598,50,jumping
1783067332055211500,0.8168568,-0.2343986115265637,8.55433581674397,-2.7529320962071417,0.0871448367834091,-0.212793692946434,-0.0716529414057731,-0.7219354602325707,-9.740364633187651,0.8800687243327497,50,jumping
1783067332075134700,0.83678,-0.4573796839166432,7.916072984519601,-2.4778455735266207,0.5094777941703796,0.1106688529253006,-0.4884693026542663,-0.6634059682440012,-9.738808635917303,0.9412180434308944,50,jumping
1783067332095060700,0.856706,0.2206558443129062,6.57821285366416,-1.9315686588212848,0.641233503818512,0.4938740730285644,-0.5143722891807556,-0.5649721532272175,-9.733324067026375,1.055292166378349,50,jumping
1783067332114984700,0.87663,0.9131229988031088,5.456005059745907,-1.716782875585556,0.5096307992935181,0.6299325227737427,-0.2833438515663147,-0.502068574340269,-9.72456734459698,1.1623752613946794,50,jumping
1783067332134907600,0.8965529,0.7425232710354029,4.439396405896544,-1.259202627595514,0.2182476818561554,0.573256254196167,-0.2052482664585113,-0.470781528738141,-9.717714409962296,1.2307711906202137,50,jumping
1783067332154830600,0.9164759,0.5211596072467044,3.220376004955172,-0.979459949672222,-0.3365316092967987,0.4951969385147095,-0.105281688272953,-0.4506802593432366,-9.720483874675631,1.2163367148153483,50,jumping
1783067332174754800,0.9364001,0.3576939326100051,1.4745862305939197,-1.1574085058327763,-0.7835886478424072,0.5326583981513977,0.1604939997196197,-0.4678270993793383,-9.733682378944756,1.0986001238375902,50,jumping
1783067332194677800,0.9563231,0.2971762259462848,-0.0893465089261531,-1.521384222126007,-1.0330241918563845,0.6034963130950928,0.250751793384552,-0.5246255297916009,-9.749776020133496,0.9149036716748028,50,jumping
1783067332214600700,0.976246,-0.3961407503062858,-0.9742448453724384,-1.0841665248155594,-1.2065823078155518,0.6915959715843201,0.0803028270602226,-0.5699195830341428,-9.76584452688098,0.6883746975447982,50,jumping
1783067332234524700,0.99617,-0.9663079148933292,-1.431500537583232,-0.6179179633319377,-0.7967442870140076,0.9741244912147522,-0.1751747578382492,-0.5706198767906054,-9.77875018568337,0.4699262270830571,50,jumping
1783067332254447600,1.0160929,-1.5787189513720572,-3.2740251775562763,-0.4085106947967782,0.2292395085096359,1.383054494857788,-0.2766441404819488,-0.5316202475171536,-9.78409973001778,0.3989332305690273,50,jumping
1783067332274370600,1.0360159,-0.871442277219519,-6.901701295942067,0.13245266020298,1.0663491487503052,1.4842153787612915,-0.0211598686873912,-0.5103112828329205,-9.779749133592844,0.5162263520956039,50,jumping
1783067332294294800,1.0559401,-0.3999074458960443,-12.979526002633571,0.7231306613665074,1.3613011837005615,1.2006062269210815,0.4964722990989685,-0.5718390433220193,-9.761498022109269,0.7460108939554542,50,jumping
1783067332314217700,1.075863,-2.433472763314843,-19.337662857699392,2.3200609036684035,1.3420047760009766,1.0202078819274902,0.6413992047309875,-0.7131067685455084,-9.729591894760729,0.9984528924990445,50,jumping
1783067332334140700,1.095786,-5.20467233761847,-22.588602927744382,3.08488675353527,1.0866880416870115,0.9446229338645936,0.2015046030282974,-0.8204858508337288,-9.695260001569986,1.2243760827556252,50,jumping
1783067332354064600,1.1157099,-6.305154037418961,-22.694480884754658,3.3415713580846784,0.4108644425868988,1.1396175622940063,-0.1539666652679443,-0.846475959071517,-9.675575057891011,1.355404263113439,50,jumping
1783067332373987600,1.1356329,-4.16920291595459,-18.44920127581358,1.424233323059231,0.1815381944179535,1.1639796495437622,-0.2558067739009857,-0.8375218143738806,-9.67354209075868,1.3753367518126964,50,jumping
1783067332393910800,1.1555561,-2.199022056274861,-13.792177433514594,-0.1839675972543656,0.733303964138031,0.931315004825592,-0.3559048771858215,-0.8133325450129807,-9.666212186262012,1.4398760056100786,50,jumping
1783067332413834800,1.1754801,-1.2913424175694583,-8.556144911992549,0.3399028398536145,1.1728013753890991,0.5952358245849609,-0.7033352255821228,-0.7332543613001704,-9.644575523993373,1.617057011464238,50,jumping
1783067332433757700,1.195403,-0.6155407128065824,-3.869935891741514,1.5944658249497412,1.172809600830078,0.4200623333454132,-0.7485613226890564,-0.606400069093518,-9.612861119824649,1.84270964115113,50,jumping
1783067332453680600,1.2153259,-0.1185618262881413,-0.1103723458200693,1.1870625434055924,0.4787432253360748,0.20492984354496,-0.6543839573860168,-0.4795398220701143,-9.58704337247908,2.0072518224455416,50,jumping
1783067332473604600,1.2352499,0.940143473001942,4.415250391155481,0.190476686887443,-0.3304567337036133,0.2893455922603607,-0.1220452636480331,-0.4095285666024312,-9.588968787583708,2.013534555976838,50,jumping
1783067332493527800,1.2551731,2.310613276365399,8.80861102206409,-1.8342019250467416,-0.6131288409233093,0.0175243746489286,0.3073162734508514,-0.4443331188062205,-9.607525019493698,1.9153055062845348,50,jumping
1783067332513450800,1.2750961,2.1579553018711506,12.04006722396016,-2.2692368714906275,-0.5513848066329956,-0.3348283469676971,0.3285997211933136,-0.5004194919589907,-9.62715969429016,1.799375234076381,50,jumping
1783067332533374700,1.29502,1.0768885697018356,12.51405953143835,-2.484061379301548,-0.2389553040266037,-0.2555855810642242,-0.0048262448981404,-0.5257734942503273,-9.639372110131385,1.7252492367662489,50,jumping
1783067332553297700,1.314943,0.3701508977968245,12.760756994980571,-3.0184277837216853,0.0678169727325439,0.0230637025088071,-0.3491042256355285,-0.4840251142580062,-9.643956515312194,1.7117923738218843,50,jumping
1783067332573220600,1.3348659,0.7773595335517078,12.550105827331542,-3.566322362756729,0.268861711025238,0.2514209747314453,-0.4698327481746673,-0.4073056663885712,-9.642048635864258,1.7422402651861308,50,jumping
1783067332593144800,1.3547901,1.2821760914258655,12.301688700389862,-3.776608788746595,0.4572437405586242,0.4049338102340698,-0.5133453011512756,-0.3243458262922242,-9.632752399730682,1.8097718326672911,50,jumping
1783067332613067800,1.3747131,1.9054096968226133,11.249280418884751,-3.2903859452486035,0.5187485814094543,0.4344736635684967,-0.4234567284584045,-0.2486219653313979,-9.61718365919888,1.9021973106473684,50,jumping
1783067332632990700,1.394636,1.8668335901908573,9.930952086973187,-3.410403779031336,0.437635600566864,0.3405727446079254,-0.2840887606143951,-0.1947829875129275,-9.59920376587212,1.996927266177535,50,jumping
1783067332652914700,1.41456,2.119983006351441,8.302589837640523,-2.954377920876443,0.0790649726986885,0.1450378596782684,0.0221239421516656,-0.1773875064780004,-9.589474399018288,2.0447304892294107,50,jumping
1783067332672837600,1.4344829,2.111281959632039,7.013117013335227,-2.885198001666367,-0.081549659371376,-0.1143843680620193,0.2720333337783813,-0.209986584526766,-9.589875381034611,2.039745102032274,50,jumping
1783067332692761600,1.4544069,1.2233139334168284,6.265090907099843,-2.234355673854053,-0.1450502276420593,-0.2641672790050506,0.2383646070957183,-0.2545601049424149,-9.59258347094953,2.021870714906603,50,jumping
1783067332712684800,1.4743301,0.1967291348783299,5.1168888402253385,-1.687940227460861,-0.3397592604160309,-0.3119990229606628,0.153469368815422,-0.2793290008221752,-9.601078912094234,1.9777889965958888,50,jumping
1783067332732607700,1.494253,-0.5314148611381649,4.328686790946126,-0.8748410528123378,-0.4563730657100677,-0.1554921418428421,0.165479227900505,-0.2987744366568513,-9.615981882193685,1.9010554471358656,50,jumping
1783067332752531700,1.514177,-0.978201839369908,3.1557395743936296,-0.7536999140881001,-0.5383877754211426,-0.0046328580938279,0.1684031188488006,-0.3296307444252073,-9.632954059782625,1.8077473411023617,50,jumping
1783067332772454700,1.5341,-1.5760320503756402,2.472525839808583,-0.1352490129232406,-0.5755003690719604,0.0976758748292923,-0.0141978608444333,-0.3490557219937443,-9.652287705805897,1.6976143569961188,50,jumping
1783067332792377600,1.5540229,-1.6996870716169477,1.7006904034405943,0.3637866965271532,-0.3546501696109772,0.2866339683532715,-0.2827797830104828,-0.3283514086717739,-9.669193247899411,1.6029010603398084,50,jumping
1783067332812301800,1.5739471,-0.9565852700412272,0.5325619853466749,0.1391432438828051,0.2114940881729126,0.4678280353546142,-0.5816120505332947,-0.2557787052182481,-9.675121468904614,1.580192531055957,50,jumping
1783067332832224800,1.5938701,0.333418994259648,-3.2313737843096253,-0.1978480924382805,0.7658222913742065,0.2507265210151672,-0.6741336584091187,-0.1439778609650209,-9.660652214047312,1.6797082595579325,50,jumping
1783067332852147700,1.613793,0.3905916648117825,-7.364281982567906,1.8359876394197343,0.8086466789245605,0.1323258727788925,-0.5905994176864624,-0.0271219252793118,-9.63350058774948,1.834473727725446,50,jumping
1783067332872071700,1.633717,0.5222186513129622,-12.35491760175228,3.0238918943464754,1.0532519817352295,0.0161489006131887,-0.4433670341968536,0.0709446912597399,-9.598864743176104,2.006774121931195,50,jumping
1783067332891994600,1.6536399,0.4382099962834268,-18.9426768669188,3.534140925598144,1.1748621463775637,0.0499002896249294,-0.0892467945814132,0.1232302747569046,-9.549071076959372,2.229450658416748,50,jumping
1783067332911917600,1.6735629,-0.6105359267892315,-24.69032620091438,4.654949666373431,0.7287517189979553,-0.088807463645935,-0.0399018749594688,0.122418026792258,-9.5033602961421,2.4169237795740366,50,jumping
1783067332931841800,1.6934871,-2.565510412976145,-26.162708783984183,5.043939923870563,-0.2217278480529785,-0.4871509373188019,-0.4792909324169159,0.1814841646744869,-9.488300674176216,2.4717589470893144,50,jumping
1783067332951764700,1.71341,-3.584903729107976,-21.242152078676224,4.815387188827991,-1.147835612297058,-0.5621774196624756,-1.096333384513855,0.3600638400791213,-9.520644023898244,2.323374558261037,50,jumping
1783067332971687700,1.733333,-2.060134540718794,-13.785626112174986,1.6669870174117385,-0.9808810353279114,-0.3302556574344635,-1.480802059173584,0.6278031783346086,-9.556791442078351,2.108069865717739,50,jumping
1783067332991611600,1.7532569,-0.8341383094154298,-8.83581993150711,0.6853183056488633,-0.4314708709716797,0.3136425316333771,-1.187995195388794,0.8911503095131367,-9.564518821460007,1.9738918430268764,50,jumping
1783067333011534600,1.7731799,-0.2098215118918567,-4.744812015867233,-0.8424687692567706,-0.2920151948928833,0.283464103937149,-1.0527188777923584,1.0858001904319972,-9.555606031686066,1.9188126376226544,50,jumping
1783067333031457500,1.7931028,-0.2188311131037771,0.042415830925107,0.0698445205986499,-0.594536542892456,0.4164429306983948,-1.3362147808074951,1.2980173652887343,-9.543505844047663,1.8458166672557592,50,jumping
1783067333051381800,1.8130271,0.4176822451047599,2.2927216458439825,0.6179553727328777,-1.006079912185669,0.0886109918355941,-1.1982262134552002,1.5325446446962654,-9.535929855835438,1.6993322668299078,50,jumping
1783067333071304700,1.83295,0.4267566551811992,6.651705959898233,1.378925716215372,-1.2279489040374756,-0.2959752380847931,-1.1383719444274902,1.760945111786574,-9.53357657070756,1.47660896859318,50,jumping
1783067333091224600,1.8528699,0.0261965175300836,10.34026354022622,2.0693945364952087,-1.229557991027832,-0.4414366781711578,-0.7051840424537659,1.9520126041740176,-9.531322654300928,1.2304134632237256,50,jumping
1783067333111148800,1.8727941,-0.4170562221609056,12.0617775359869,0.965409212487936,-1.2487865686416626,-0.6772613525390625,-0.0127813071012496,2.0329927051626147,-9.544124852728842,0.9731463826112448,50,jumping
1783067333131071700,1.892717,-2.0953272885225718,12.892961817902323,0.0332979470331221,-1.2371596097946167,-0.5498692989349365,0.6809310913085938,1.9780115533053877,-9.579088614082336,0.7063607283513993,50,jumping
1783067333150994700,1.91264,-3.7069133212298153,13.459612535333632,-1.2670084790408611,-0.8198143839836121,-0.017318146303296,0.9213298559188844,1.8199829916886985,-9.623802785077691,0.4903896443212404,50,jumping
1783067333170918700,1.932564,-4.236858109815419,14.0499445726037,-1.900129856723547,-0.1981493085622787,0.682898998260498,0.8806567788124084,1.6448356836192308,-9.65927917212844,0.4040532039312645,50,jumping
1783067333190841600,1.9524869,-4.038556428390741,12.214529472374917,-1.94068749256134,0.1530559062957763,1.1616041660308838,0.9084409475326538,1.4626948634006085,-9.687150344872476,0.4359316030226647,50,jumping
1783067333210764800,1.9724101,-2.785693379080296,10.304096832823753,-2.037831523495913,0.1269943863153457,1.3574823141098022,1.0305935144424438,1.2677693804107606,-9.711231477683782,0.50509380391296,50,jumping
1783067333230688800,1.9923341,-1.3074066865332423,8.867495172709226,-1.51033792745471,-0.0366404987871646,1.518486499786377,1.3394287824630735,1.02309538552016,-9.737938282823562,0.5442779229078442,50,jumping
1783067333250611700,2.012257,-0.1806111994985491,7.784765402698516,-1.309892511999607,0.0085898106917738,1.6779264211654663,1.4885120391845703,0.7264893241446465,-9.763273799610138,0.5666426437227056,50,jumping
1783067333270534700,2.03218,-0.5239989953910932,6.792769796580076,-0.9665454499762504,0.0650762543082237,1.6662002801895142,1.2731987237930298,0.4381069743003696,-9.778938986253738,0.5923018760383129,50,jumping
1783067333290458600,2.0521039,-0.9219744137786328,5.931254089286923,-0.5990145254194736,0.1344253122806549,1.6898001432418823,1.2738964557647705,0.1736366477781906,-9.785170574119686,0.6250519799303264,50,jumping
1783067333310381800,2.0720271,-0.7872686408866196,5.52080983261168,-0.242737912261486,0.0867004767060279,1.6916422843933103,1.4879807233810425,-0.1157944074014201,-9.7847333517462,0.6449634989067912,50,jumping
1783067333330304800,2.0919501,-0.3417829910444095,5.07693852263093,-0.3009691519558429,0.2422934025526046,1.5147935152053833,1.4971063137054443,-0.4312448334459215,-9.774362179857492,0.668030193978548,50,jumping
1783067333350228700,2.111874,-0.134638479809463,4.22093777936697,-0.3666939622759819,0.1851977705955505,1.3103739023208618,1.380957841873169,-0.7299675947144627,-9.754686004006862,0.6954479969318955,50,jumping
1783067333370151700,2.131797,0.0516139404464513,2.856045264679193,0.2425742461323738,0.1923588812351226,1.2978285551071167,1.2691919803619385,-1.0079480122055855,-9.729349318176508,0.7029858450908213,50,jumping
1783067333390074600,2.1517199,1.0739556580550969,1.8401912285894155,-0.485475824522972,0.6933496594429016,1.1261907815933228,1.0070527791976929,-1.24424325113371,-9.697961077222228,0.7561706881158053,50,jumping
1783067333409998800,2.1716441,2.121377237188816,-1.1979787819564345,-0.2782465210814029,1.1839927434921265,1.0340542793273926,1.1232727766036987,-1.4643183729492126,-9.654038348865509,0.9086695265255867,50,jumping
1783067333429921800,2.1915671,2.2877736680477856,-4.322859692227841,0.5238976173758506,1.4633135795593262,0.4699921607971191,0.969162940979004,-1.6880262983091174,-9.592090718996523,1.1457584731146693,50,jumping
1783067333449845800,2.2114911,1.8013430270180104,-8.12879686678946,2.3925543313406408,0.6426466703414917,0.0765179917216301,1.035956859588623,-1.872271105069667,-9.53008639050424,1.3573640188790856,50,jumping
1783067333469768700,2.231414,0.9776398946382104,-15.187145937514304,3.2491888424634934,-0.2869715094566345,-0.3799962699413299,1.5097640752792358,-2.1123422823399305,-9.477173130962251,1.3753611556015908,50,jumping
1783067333489691600,2.2513369,-1.9925757929697632,-17.686327729058263,1.3857107001803814,0.4503982067108154,-0.4612597227096557,1.410367488861084,-2.387316576817632,-9.408553183722496,1.3965008281335234,50,jumping
1783067333509615600,2.2712609,-5.874497598320246,-16.1149189545691,2.6210557745873926,1.257014274597168,-0.3912034630775451,0.5892744064331055,-2.569552089582384,-9.331403308546545,1.5788232885293665,50,jumping
1783067333529538800,2.2911841,-7.376821730667352,-15.924489906215667,2.582211664669216,1.6580005884170532,-0.8610135912895203,-0.4018896818161011,-2.5615084838584066,-9.274631035488843,1.8947953638277948,50,jumping
1783067333549461800,2.3111071,-8.35347305265963,-16.29463371668458,3.636238195025921,0.4429911971092224,-1.017652153968811,-0.5886590480804443,-2.4141493464246397,-9.258231689351796,2.151145475725829,50,jumping
1783067333569385700,2.331031,-5.807037342509627,-14.243283370923995,2.006693165649473,-0.5225766897201538,-1.0784399509429932,-0.2822133898735046,-2.290452385737747,-9.283190189519525,2.178670757641643,50,jumping
1783067333589308700,2.350954,-2.7066426387190816,-9.50179260843396,-0.2582448396034538,-0.6292374730110168,-1.1322669982910156,-0.1706516742706298,-2.2064093900471926,-9.319777168160677,2.108065920194983,50,jumping
1783067333609231600,2.3708769,-1.2180990483127534,-5.75341388887167,-0.5540273827016353,-0.2752698361873626,-0.9860640168190002,-0.5700461864471436,-2.095775470681488,-9.352651848280429,2.0750931865282354,50,jumping
1783067333629155800,2.3908011,2.61537305277586,-6.874573050519824,0.5913903141513467,-1.0792622566223145,-1.8125299215316768,-0.5506873726844788,-1.92898565659076,-9.400911729058622,2.0179906586028635,50,jumping
1783067333649078800,2.4107241,3.71745195863992,-5.205622185689211,1.2788180131696163,-2.0536811351776123,-2.661182165145874,-0.447811096906662,-1.755104276803881,-9.480259406539798,1.7929424245499073,50,jumping
1783067333669001700,2.430647,-0.1693739853650331,0.9186468767911196,-0.7821138154067099,-1.927869439125061,-2.192375659942627,-0.8515236973762512,-1.551907370683551,-9.567999064791202,1.4884027206309138,50,jumping
1783067333688925700,2.450571,-3.559227436059713,6.656018562400341,-1.6993851660609245,-1.299055576324463,-0.9630076885223388,-1.3492144346237185,-1.2999540324397385,-9.643681790024042,1.216505057119578,50,jumping
1783067333708848600,2.4704939,-4.64460187536031,11.053381414687632,-2.003080528110265,-0.4042286276817322,0.1161304339766502,-1.9914346933364868,-0.9698010907713324,-9.700207979366184,1.0657507242895663,50,jumping
1783067333728771600,2.4904169,-3.1965301422044634,13.479930516219138,-0.9914333691257984,-0.1027161478996276,0.2645285725593567,-2.302239894866944,-0.552041396516189,-9.73749346166551,1.0231567603185772,50,jumping
1783067333748695800,2.5103411,-1.978664756517112,15.580358488881586,-0.1961141813177615,0.0156067656353116,0.2481484860181808,-2.195960283279419,-0.1152142511595971,-9.754068164369464,1.007598395050317,50,jumping
1783067333768618800,2.5302641,-1.5561184125073253,16.803995443707702,-0.4868997198462486,0.5342782139778137,0.3424415588378906,-1.7476747035980225,0.2678881356090307,-9.74573931196332,1.0579169619239863,50,jumping
1783067333788541700,2.550187,-1.1889701305925846,15.068978992295264,-0.8981073621094227,0.6484021544456482,0.3397082090377807,-1.0287821292877195,0.5289187700061128,-9.720033208298682,1.188104965130612,50,jumping
1783067333808465700,2.570111,-1.4376412322953342,13.423512463426588,-0.4720107782721519,0.2670527398586273,0.2450433522462844,-0.3272388577461242,0.6520435933608562,-9.70097837921679,1.2791563052132724,50,jumping
1783067333828388600,2.5900339,-0.8050630215786397,12.219119138252736,-1.4799860438108443,0.2133204638957977,0.0740822628140449,0.163707435131073,0.659315995516628,-9.69458254069984,1.3231655428096651,50,jumping
1783067333848311600,2.6099569,0.080781984600611,10.395230809688568,-1.9106068270742893,0.1489391028881073,-0.0694236531853675,0.5685673356056213,0.5885469439515844,-9.693879945388437,1.361137107677013,50,jumping
1783067333868235800,2.6298811,-0.212050403455086,8.524061674511431,-1.7730642963863907,0.1317696720361709,0.1250335872173309,0.7534123063087463,0.4556604954412206,-9.697968091484904,1.3828088412590325,50,jumping
1783067333888158700,2.649804,-0.2967973461639135,6.880475552561879,-2.6693022113621234,0.6298601627349854,0.3783525228500366,0.6144064664840698,0.3105640422424301,-9.693363228037953,1.4534969730749725,50,jumping
1783067333908081700,2.669727,-0.2798084549021907,5.0198997075915335,-2.2129554506897926,0.9207330346107484,0.4674705564975738,0.2665390074253082,0.2127707718851976,-9.67033715723753,1.6154522066161034,50,jumping
1783067333928005600,2.6896509,-0.3572713232837617,3.306707549974322,-0.9096844026565551,0.5465366244316101,0.4195620119571686,0.0186152327805757,0.1705235572589561,-9.645356445237994,1.7630682414203882,50,jumping
1783067333947928600,2.7095739,0.1767819600665941,2.6700100673705336,-1.0198401831164956,0.7154435515403748,0.5353850722312927,-0.3879445493221283,0.1859395366481505,-9.62486544587314,1.8702305391527712,50,jumping
1783067333967851800,2.7294971,1.4120515946172176,1.7773089482188225,-1.53718472558707,1.4482516050338743,0.513515830039978,-0.785128116607666,0.2824445755594409,-9.57941477729678,2.079770384559035,50,jumping
1783067333987775700,2.749421,2.081618935035169,-0.3086158673167228,1.2664449999392031,1.9701498746871948,0.4325955510139465,-0.6394199728965759,0.407452892839536,-9.497285944664478,2.409552081762254,50,jumping
1783067334007698700,2.769344,3.075825787462294,-5.63979686204195,5.097577990555763,2.2426517009735107,-0.3137494027614593,0.0878595113754272,0.4551727484568953,-9.382471232482793,2.816455597090721,50,jumping
1783067334027621600,2.7892669,3.987180169157684,-10.320241327416896,8.934857813364268,1.4418396949768066,-2.2208855152130127,0.7156352996826172,0.4554104662029072,-9.26926570906341,3.169178901681304,50,jumping
1783067334047545600,2.8091909,2.2161817192599176,-13.66775376598835,9.45733153541684,-0.6222906112670898,-3.621104717254639,1.9318755865097048,0.4144472452389076,-9.251639451479912,3.225801829396188,50,jumping
1783067334067468800,2.8291141,-3.2098382443279028,-13.38634154741764,4.800658113990724,-1.641417384147644,-3.3775439262390137,2.4652557373046875,0.2054143812404014,-9.34809900728166,2.956554388132691,50,jumping
1783067334087392000,2.8490373,-5.685516995209455,-11.978805822789669,-2.25203190805912,-0.7685784101486206,-2.665477752685547,1.690724492073059,-0.0159749044716765,-9.4223648514539,2.718302389113605,50,jumping
1783067334107315000,2.8689603,-7.20252314838171,-14.65040754326582,-3.1926468710303304,-0.6271112561225891,-1.215312123298645,1.1320639848709106,-0.1713184522300027,-9.45231926021278,2.606665722446144,50,jumping
1783067334127238100,2.8888834,-6.459506394740939,-15.278791955554484,-1.5577359307065606,-0.7315306067466736,-0.1692860722541809,0.4411931037902832,-0.2952848044428043,-9.483536820775267,2.4790546570554373,50,jumping
1783067334147161900,2.9088072,-2.572054427792132,-13.188609482574462,0.3821567582152784,-1.254971981048584,-0.1045569404959678,0.0139619009569287,-0.3222359945314005,-9.526527821239828,2.3047357626341283,50,jumping
1783067334167085000,2.9287303,0.471141265428625,-11.18938212276101,3.085846538478136,-2.0021615028381348,-0.4129551351070404,-0.0370190404355526,-0.3104305155232548,-9.599021395042538,1.9831280195362864,50,jumping
1783067334187008300,2.9486536,2.912835950176418,-7.312858669322729,1.5700152743041516,-1.6160457134246826,-0.6592831015586853,-0.6181840896606445,-0.2298336234322749,-9.666370591694116,1.6367182820066808,50,jumping
1783067334206932000,2.9685773,2.4140891406700016,-5.695851342219114,-0.5207468982599676,-1.4448606967926023,-0.3394217193126678,-0.6704867482185364,-0.0789945075287949,-9.714428812420367,1.3394149590820073,50,jumping
1783067334226855000,2.9885003,0.5948962399130687,-1.874075378012657,-2.8624890339910984,-0.8917959928512573,0.0347295068204402,-0.8864871859550476,0.0654545876771677,-9.743039405354857,1.1132256652351469,50,jumping
1783067334246778000,3.0084233,-1.5877638430930674,3.4832477737069127,-1.3766260609708725,-0.5264188647270203,0.5598375797271729,-1.0139507055282593,0.2528467434195801,-9.75441127871871,0.9787395264431834,50,jumping
1783067334266702000,3.0283473,-1.661974011555314,6.372506156679988,0.764076565869525,-0.247158333659172,0.8267684578895569,-0.8687543272972107,0.4207302344985306,-9.755514271524548,0.907375833453238,50,jumping
1783067334286625000,3.0482703,-1.7895917989477514,9.545237197884918,2.4531179595053194,0.2121605426073074,0.554144024848938,-1.1726971864700315,0.5956335777442902,-9.746349552816152,0.9078919662818312,50,jumping
1783067334306548200,3.0681935,-2.483788992100954,13.198763796842098,3.191931416237354,0.4603821337223053,0.0608762428164482,-1.842103719711304,0.8811699635729193,-9.716845225912332,0.9883444631997496,50,jumping
1783067334326472000,3.0881173,-2.9251617632642386,16.312855602073668,3.038210050295293,0.3075950443744659,-0.3689660131931305,-1.9475367069244385,1.2683739221751689,-9.66684931512177,1.0552757997654378,50,jumping
1783067334346395100,3.1080404,-2.554206344151497,15.032521192991732,0.8137279010061174,0.4727169871330261,-0.2782413065433502,-0.8720288872718811,1.5579188860580324,-9.617733109775186,1.1146513871893289,50,jumping
1783067334366318000,3.1279633,-1.855077247554064,13.830525576609372,-0.9554643031872808,0.6251734495162964,0.0453241802752018,0.2751551270484924,1.615357660200447,-9.595480945956709,1.219724019166082,50,jumping
1783067334386242000,3.1478873,-1.803760171162337,11.721175461822748,-1.4871614883981643,0.6601825952529907,0.0627055689692497,1.0051366090774536,1.480243817964196,-9.600512510383128,1.345154817908257,50,jumping
1783067334406165200,3.1678105,-2.435415567945689,9.19844854404032,-1.3993372206032275,0.6682021617889404,-0.0356138870120048,1.1370898485183716,1.2676435620740056,-9.611897243228556,1.4747542806372045,50,jumping
1783067334426088200,3.1877335,-3.127790660238266,6.591385054448247,-1.0064999322891237,0.5602023005485535,-0.1284878998994827,0.967512845993042,1.064736944137141,-9.617655952885746,1.5929299936845898,50,jumping
1783067334446012000,3.2076573,-3.3191599120512603,5.882841063773632,-1.0622352635145187,0.4562325775623321,-0.3503353893756866,0.785664439201355,0.909396014169231,-9.61824456642866,1.6830808047309518,50,jumping
1783067334465935000,3.2275803,-3.677852938701212,5.867996545863151,-1.5255075856663285,0.4541838765144348,-0.3487558364868164,0.809126079082489,0.7699454579029232,-9.61626771339774,1.762084929471463,50,jumping
1783067334485858000,3.2475033,-4.061128910204768,6.511991784259677,-1.248961073435843,0.567821741104126,0.1038155406713485,0.9502049088478088,0.6088394981348887,-9.609937341332436,1.8570884412460027,50,jumping
1783067334505782000,3.2674273,-2.7631325877040624,5.677258869951963,-0.9354816917359828,0.7376351356506348,0.3539738655090332,0.9082759022712708,0.4144207590907812,-9.595070611590147,1.983244339392334,50,jumping
1783067334525705200,3.2873505,-0.6526219047054648,4.2569168552428485,-0.3322013255655765,0.8005470633506775,0.4215322732925415,0.7123835682868958,0.2459067698222584,-9.56755541267693,2.138178149864077,50,jumping
1783067334545628200,3.3072735,2.52301859420538,1.6988000596493482,1.048655358712375,0.4043506383895874,0.3098480403423309,0.7260480523109436,0.0948913840364199,-9.54369990531504,2.2536963341400025,50,jumping
1783067334565551900,3.3271972,5.556587832957506,-0.1839730040818452,0.5585176798582077,0.8425916433334351,0.4036774635314941,1.0541363954544067,-0.082245901407022,-9.518678861305116,2.3576209651254114,50,jumping
1783067334585475000,3.3471203,9.050570351168512,-7.438805600893497,0.3107785983085632,1.1780866384506226,-0.3283069133758545,1.7923930883407593,-0.3591693023921922,-9.459469716489314,2.561216515174508,50,jumping
1783067334605398300,3.3670436,9.396426108077168,-15.57964303408861,0.6877814808920025,1.1533352136611938,-1.6991370916366575,2.232299566268921,-0.6842257611718029,-9.37661783027947,2.789497155277431,50,jumping
1783067334625322000,3.3869673,5.963198210558295,-19.93969468511343,3.809257551155984,0.60496985912323,-2.525553941726685,2.477424383163452,-1.0015144720267504,-9.28273309340179,2.9997014559417963,50,jumping
1783067334645245200,3.4068905,-2.0819202560693024,-19.57764650281668,8.032927678096295,0.1212821304798126,-1.9617472887039185,1.567302703857422,-1.253352148001641,-9.216518453738091,3.107292354349792,50,jumping
1783067334665168100,3.4268134,-9.34679552346766,-17.342886047554014,7.290064653712511,0.419267475605011,-0.8054896593093872,-0.5121291279792786,-1.2738834793768825,-9.186815973913667,3.185915224687755,50,jumping
1783067334685092000,3.4467373,-9.198494136747716,-15.207728122293949,4.467073809634149,0.3133411705493927,-0.6916198134422302,-1.7678334712982178,-1.0040964513439683,-9.186790839472412,3.281011675442755,50,jumping
1783067334705015300,3.4666606,-5.517996528756618,-14.649390475177764,1.874682403995097,-0.7307195067405701,-0.7170387506484985,-1.56877338886261,-0.6340544938143342,-9.227235078063607,3.259833570596576,50,jumping
1783067334724938200,3.4865835,-3.407472109493613,-12.402089687293769,1.9105989360287785,-1.6925458908081057,-0.3572888374328613,-0.6210193634033203,-0.3916770854283124,-9.315864378631115,3.0383661176398395,50,jumping
1783067334744862000,3.5065073,2.4922785880267617,-11.30941603089571,2.4366721438780425,-2.6246044635772705,-0.816024899482727,0.8727200031280518,-0.3958559420155361,-9.438885778144002,2.6308061842292547,50,jumping
1783067334764785200,3.5264305,3.310820830512047,-7.6867574484109875,0.4822390345588326,-2.488687038421631,-0.89141845703125,1.0907047986984253,-0.5559927279578522,-9.553740237814187,2.141806861755252,50,jumping
1783067334784708900,3.5463542,0.4312270055282861,-5.9984559864223,-0.5028596516527235,-2.056673049926758,-0.3293437361717224,0.5005967617034912,-0.6947387526839971,-9.6298438188076,1.7186647438094018,50,jumping
1783067334804632000,3.5662773,-0.846964619371295,-4.961447518622875,-2.071453222590685,-1.622670292854309,0.0750633254647255,-0.6893981695175171,-0.6874192965161054,-9.6876249766469,1.3593272817760704,50,jumping
1783067334824555300,3.5862006,-6.293433204486965,1.5649217505574224,-2.344362985754013,-0.8254837393760681,1.0854039192199707,-2.752762079238892,-0.3667870108542964,-9.735883103859424,1.1173348541196435,50,jumping
1783067334844479000,3.6061243,-6.630286155250668,7.220262803211808,-0.7513479441344738,-0.3369603455066681,1.7686717510223389,-4.0139689445495605,0.279965581692662,-9.750335407581924,1.0114180264037105,50,jumping
1783067334864402200,3.6260475,-4.04138288398832,11.938691254544258,1.545725028786808,-0.301158994436264,1.2293570041656494,-4.103701114654541,1.0483316797159612,-9.701609662857653,0.974770476681739,50,jumping
1783067334884325000,3.6459703,-3.097181294701993,16.91461153515577,3.1097511456787585,-0.4691261053085327,0.4441558420658111,-3.397552490234375,1.767501547692716,-9.601822423937916,0.9226834388308226,50,jumping
1783067334904248800,3.6658941,-3.502092759430408,17.9947670707643,2.9611364552259443,-0.5048844814300537,0.4175701141357422,-2.01362419128418,2.2798529580511158,-9.500887768548726,0.8401074469529092,50,jumping
1783067334924172300,3.6858176,-4.175599631254375,17.655336378467084,1.589089392608404,-0.0951952785253524,0.4380141496658325,-0.9142611026763916,2.5363196820661424,-9.439333521911502,0.797780609485507,50,jumping
1783067334944095200,3.7057405,-4.165196018400788,16.516427040594817,0.2659925311207771,0.4245361089706421,0.313850849866867,-0.4483738243579864,2.6546044084459544,-9.40190716983676,0.8529976159252226,50,jumping
1783067334964019000,3.7256643,-3.5944305591270327,13.646785796761511,-0.0173616152979433,0.4373219609260559,-0.0402570962905883,0.1010456457734108,2.687925663289428,-9.38331060591638,0.9481073645532132,50,jumping
1783067334983942100,3.7455874,-2.8443066038295624,11.70244504238963,-1.0904359604738652,0.1183100938796997,-0.2115640044212341,0.999460995197296,2.592915721774101,-9.40506008090973,0.996015290088579,50,jumping
1783067335003865000,3.7655103,-2.939142650082707,8.946056668248772,-1.3021475969612597,-0.1873133778572082,-0.116394005715847,1.8068830966949463,2.323234273007512,-9.47756943680346,0.97399240498133,50,jumping
1783067335023789000,3.7854343,-2.700236278808117,7.360947869709133,-1.6589689845204352,0.0685071647167205,0.1384232193231582,1.901610374450684,1.9608770247615872,-9.561069557788969,0.954624637492746,50,jumping
1783067335043712300,3.8053576,-2.511784668007493,5.39990089520812,-0.910672390780598,0.3876341879367828,0.4337198138236999,1.403146266937256,1.632663453657925,-9.616387540385126,1.0148200168669224,50,jumping
1783067335063635200,3.8252805,-2.7616885263755915,4.233323213687539,0.361031041143462,0.3152976036071777,0.4566509127616882,0.5210062265396118,1.4363481237448752,-9.638831427383424,1.0955414669193326,50,jumping
1783067335083559000,3.8452043,-1.82438151890859,3.900951207730174,-0.0388661756195127,0.4437822997570038,0.5063534379005432,0.0443908907473087,1.383548992101848,-9.63685866600573,1.17775834316127,50,jumping
1783067335103482000,3.8651273,0.3982843016736209,2.4079829327493907,-1.2257950096428394,0.6420664191246033,0.8399173617362976,0.1452815681695938,1.3526252999193966,-9.625303837290408,1.3016612747490406,50,jumping
1783067335123405000,3.8850503,2.521270581494272,1.278840371131897,-1.0797837796866894,0.650408148765564,0.9285231232643129,0.1901131570339203,1.293291359680146,-9.612158524513244,1.4505854695424436,50,jumping
1783067335143329000,3.9049743,4.8574119746088975,-1.6130144580751655,0.1031495549596846,0.4801636934280395,0.9134528636932372,0.4242889881134033,1.212487930432707,-9.601277649536728,1.5861090616233646,50,jumping
1783067335163252200,3.9248975,6.971087551379203,-4.803680968943238,2.024948514916748,0.4022196829319,0.7710157632827759,0.7202683687210083,1.073579372088611,-9.601332010072468,1.6829210841245947,50,jumping
1783067335183175200,3.9448205,7.653005985456705,-9.178292475718258,1.9917315972305836,0.2453691661357879,0.0923188552260398,0.9052071571350098,0.8971369827073067,-9.60526818047762,1.761927985344082,50,jumping
1783067335203099100,3.9647444,5.7675084651976825,-14.136133494281768,1.4001320242427289,0.0047492259182035,-0.6424742341041565,0.9831732511520386,0.7231722354859114,-9.618235798600317,1.771137712237984,50,jumping
1783067335223022000,3.9846673,0.1065342289619147,-17.458029845559597,-1.79425204584375,0.1935063749551773,-0.680721640586853,0.3946229517459869,0.6040947512932121,-9.625028527480364,1.778839957178384,50,jumping
1783067335242945000,4.0045903,-4.830225276997685,-13.525630775642394,-0.6276502527952194,0.9019017219543456,-0.1035423874855041,-1.0903087854385376,0.6704497492756695,-9.603255671611429,1.8703908442810175,50,jumping
1783067335262869000,4.0245143,-4.013512588027119,-14.099937560784817,-2.8258640614271164,1.7946603298187256,0.7889931797981262,-1.0400019884109497,0.9040430357687176,-9.528737898504732,2.1345383320569997,50,jumping
1783067335282792200,4.0444375,-0.6220124661039561,-20.18637461299896,-3.1888723209276795,1.4512979984283447,1.267053484916687,0.8276553750038147,0.8681663242887705,-9.443815635761618,2.49619956086278,50,jumping
1783067335302715100,4.0643604,-1.904971889927238,-20.29127524940968,0.5153378788232803,-0.791121780872345,0.3501785099506378,1.0461589097976685,0.6156942959330975,-9.439021971744298,2.587697110342979,50,jumping
1783067335322639000,4.0842843,-3.043452627123892,-12.5840174492836,2.8937130242943763,-2.4355244636535645,-0.2952653765678406,-0.5090581774711609,0.5629099600004032,-9.528978137001396,2.247685111026466,50,jumping
1783067335342562000,4.1042073,2.3836747131839395,-9.139488405549526,1.5383435402333736,-1.6864876747131348,-0.7759738564491272,-1.3450548648834229,0.7742773496273905,-9.603968203794956,1.8261083427011968,50,jumping
1783067335362485000,4.1241303,2.4785803175419567,-3.298571005269885,0.6786835438095032,-0.8760608434677124,-0.7021098136901855,-1.732702136039734,1.100751237456873,-9.616649990713595,1.5744098560012876,50,jumping
1783067335382409200,4.1440545,0.1173288869597017,1.5418068324297665,-0.50514162511006,-0.3520845174789428,-0.592987596988678,-1.786720871925354,1.4571578336700797,-9.58961585331559,1.4444164255186915,50,jumping
1783067335402332200,4.1639775,-2.663399709320068,4.9440837113678455,-0.9037525283895432,-0.4979538917541504,-0.4225399792194366,-1.3532291650772097,1.7829323410585525,-9.546189384043217,1.3644870026268063,50,jumping
1783067335422255000,4.1839003,-4.15234238204658,6.205351600930094,0.6190227097034454,-1.367060899734497,-0.1927858293056488,-0.4255904853343963,1.959253807473928,-9.537032848641276,1.173337165718153,50,jumping
1783067335442179000,4.2038243,-4.22862248865068,8.351132627013325,0.7337245360951871,-1.513358235359192,-0.1201015934348106,0.1137875318527221,1.981065680179,-9.563944820964336,0.881313317566365,50,jumping
1783067335462102000,4.2237473,-4.956587219110131,11.79325519412756,2.346205398750305,-1.2512022256851196,-0.0887613222002983,-0.290997713804245,1.9873283938355744,-9.58415583434403,0.6040492316510528,50,jumping
1783067335482025000,4.2436703,-4.1920179743528365,15.120568894279002,1.6808792030334472,-0.5125228762626648,-0.2713378369808197,-0.7196836471557617,2.098287891893834,-9.570060673496126,0.4260183309692889,50,jumping
1783067335501949200,4.2635945,-3.7548113829582928,15.015443801462649,2.117175693845749,-0.1741821318864822,0.2949269711971283,-0.1823035031557083,2.1964853774040938,-9.55082873428166,0.357081865126267,50,jumping
1783067335521872100,4.2835174,-2.1628803371831773,13.248417762327191,0.7982792066574096,0.5425411462783813,0.7340326905250549,0.7678593397140503,2.133701004450023,-9.562842412680387,0.4119893672253936,50,jumping
1783067335541796000,4.3034413,-1.7135678590618073,11.54347028596401,0.4964180742979049,0.9693379998207092,0.6624941229820251,1.0220314264297483,1.940268828757852,-9.594439912471175,0.5936919421572238,50,jumping
1783067335561719000,4.3233643,-2.216888990746438,9.940846873521805,0.6538111144900322,0.9219549894332886,0.180555909872055,0.8149592280387878,1.7604942992791532,-9.614188569036124,0.7990204534787684,50,jumping
1783067335581642000,4.3432873,-2.75763515933156,7.868498163396119,0.4119511541068553,0.5436732172966003,0.0642645731568336,0.9574852585792542,1.5955496746636926,-9.63018167245984,0.9403246017225086,50,jumping
1783067335601566000,4.3632113,-2.1944291755266487,7.274218849804997,-0.8746925842523574,0.5693271160125732,0.3161579966545105,1.2836142778396606,1.3750136573381722,-9.65360638718903,1.042885177813098,50,jumping
1783067335621489200,4.3831345,-1.5841099967606365,7.43281249795854,-1.7722352982163427,0.9924277663230896,0.5848596692085266,1.3875188827514648,1.10302510067299,-9.669595398959515,1.2052579791791735,50,jumping
1783067335641412000,4.4030573,-1.3538735464148222,7.43663644016087,-1.2474410242617129,1.1651575565338137,0.6658350825309753,1.1494032144546509,0.8374741027746349,-9.66563818576634,1.4298489709839224,50,jumping
1783067335661336000,4.4229813,-1.0514086029432714,6.379006040093302,-0.1198888005755841,1.045863389968872,0.721769392490387,0.926741659641266,0.6203027395766229,-9.645446461609003,1.6586114032544197,50,jumping
1783067335681259000,4.4429043,0.4820887393679469,5.376740968894958,0.6792530142605304,0.6230134963989258,0.6905938386917114,1.107491970062256,0.4075069245817139,-9.625850365257262,1.8295711965061725,50,jumping
1783067335701182200,4.4628275,2.907257565522194,4.335993899089098,0.7163385900735855,0.0602320581674575,0.4284883439540863,1.657266616821289,0.1223052140675485,-9.6208947886765,1.8957355672873557,50,jumping
1783067335721106200,4.4827515,3.491236726634204,3.0333810227036477,-0.946819078308344,0.490351140499115,0.165298730134964,1.7102206945419312,-0.2267427812774665,-9.612797406938672,1.926944506151974,50,jumping
1783067335741029000,4.5026743,2.31796013199687,0.8607137432605028,-2.6375053896069525,1.6467952728271484,0.3786573708057403,1.2162991762161257,-0.5101880948446691,-9.559446340501308,2.1276902197279037,50,jumping
1783067335760952000,4.5225973,1.4277788867115973,-6.415179761758447,-2.1073054572165013,2.635768413543701,1.1831706762313845,1.3258613348007202,-0.7805963235158473,-9.442216383871436,2.530930390243232,50,jumping
1783067335780876000,4.5425213,0.397892014420405,-15.61243003592491,1.0337363142609597,2.2167439460754395,1.365366816520691,1.4685133695602417,-1.1218385952796786,-9.274547448858618,2.98238733304739,50,jumping
1783067335800799200,4.5624445,-1.744025833428651,-19.326503165781496,6.197604932326078,0.9875081777572632,1.316683053970337,0.924420177936554,-1.435474409650266,-9.145494952487946,3.235700123076141,50,jumping
1783067335820722200,4.5823675,-2.2439507468037307,-18.064345049381256,8.720577933824062,1.180001139640808,1.1222968101501465,0.0716642960906028,-1.6045787842936814,-9.068843089962003,3.369242039820552,50,jumping
1783067335840646100,4.6022914,-2.393284253050387,-19.01719873167872,8.548732005387544,1.982226848602295,0.810474693775177,-0.4633407890796661,-1.631817796614021,-8.961293400347232,3.633565176424384,50,jumping
1783067335860569000,4.6222143,-3.0917075394660234,-20.64073516829014,8.142702642545103,1.6164721250534058,0.4548199772834778,-0.7020612955093384,-1.5718980193108318,-8.83787043429613,3.948613999398052,50,jumping
1783067335880492000,4.6421373,-3.17399770013988,-19.386710089462994,6.448497509470582,0.3978467583656311,0.3099471926689148,-0.7713233828544617,-1.4689581615790723,-8.77793122164011,4.118311517629027,50,jumping
1783067335900416300,4.6620616,-0.9886490721695124,-15.376798740798234,2.769852835869789,-0.3124789595603943,0.1764738261699676,-0.7064669132232666,-1.3696395630843936,-8.802243825119733,4.100608103156089,50,jumping
1783067335920339200,4.6819845,1.1229675993096082,-11.07556518944502,-0.2642547475427389,-0.296125054359436,-0.2269014567136764,-1.125027418136597,-1.2094582804132252,-8.849730967959761,4.048441278067231,50,jumping
1783067335940262100,4.7019074,3.9015377754464735,-8.688403510928154,0.6414946537524462,-0.7954934239387512,-0.7291607856750488,-1.3343201875686646,-0.9466438678719102,-8.916609039968252,3.970934552277624,50,jumping
1783067335960186000,4.7218313,3.847362240883708,-6.462353016343712,2.755731663797796,-1.7538877725601196,-1.4244942665100098,-1.2619426250457764,-0.6332960766624659,-9.035613020533322,3.758591193757951,50,jumping
1783067335980109000,4.7417543,1.0921893800124525,-0.4833569326728582,1.3776511662349105,-1.7281038761138916,-1.6821115016937256,-1.651524782180786,-0.2594561881545931,-9.180538208818437,3.438136420087516,50,jumping
1783067336000032000,4.7616773,-2.951187600402534,3.789299343493581,-1.6069012358918786,-0.9251927137374878,-1.085838794708252,-2.1907413005828857,0.1906730131771415,-9.269626359069347,3.195005416855216,50,jumping
1783067336019956200,4.7816015,-6.332250134137272,7.182514379575848,-2.2419848535582423,-0.4119897782802582,-0.049979843199253,-2.7233054637908936,0.6798394358463585,-9.28776699591577,3.0733713800475,50,jumping
1783067336039879200,4.8015245,-7.420901695412397,10.554241806471348,-2.5530899073421955,-0.3080306649208069,0.3049467802047729,-2.8485512733459477,1.1950794803183524,-9.254339942610263,3.0165175661861894,50,jumping
1783067336059802000,4.8214473,-6.441383293551207,11.793484326708317,-2.1890999433279035,-0.7736275792121887,0.2777280211448669,-2.2039060592651367,1.650436280105263,-9.210141319921611,2.9359415159538385,50,jumping
1783067336079726000,4.8413713,-5.965979365709424,13.14331137421131,-1.810609452535212,-1.3459781408309937,0.2758939564228058,-1.3178645372390747,1.95569129268676,-9.210086374863982,2.7422531735435127,50,jumping
1783067336099649000,4.8612943,-5.096354586240649,14.701449163717031,-2.8632965509817003,-1.1340967416763306,0.3171876072883606,-0.7221776843070984,2.1238037336833773,-9.23728359386921,2.5164362932056186,50,jumping
1783067336119572200,4.8812175,-3.3069197314202783,14.976718057227131,-3.0411002187788485,-0.6106458306312561,0.3732413649559021,-0.3962683081626892,2.204389866918325,-9.257119928717612,2.3699755659163,50,jumping
1783067336139496200,4.9011415,-1.057468925895542,14.002376181221008,-2.720139249151945,-0.2525196373462677,0.2116434723138809,-0.1612786650657653,2.2458907749556003,-9.262904357337952,2.307588229455799,50,jumping
1783067336159419100,4.9210644,0.094192926044017,11.416182461178302,-1.5277124022342263,-0.4445489645004272,0.1021692380309104,0.4439789950847626,2.21681008029133,-9.282050956356525,2.2582427453979848,50,jumping
1783067336179342000,4.9409873,0.5118789705410599,10.456189428520204,-1.9731378097891807,-0.4745037257671356,-0.3273425698280334,1.1352403163909912,2.071165345560014,-9.338546166038512,2.161532137444615,50,jumping
1783067336199266000,4.9609113,-0.1789684737928211,9.26156580221057,-2.3488521138668057,-0.266087144613266,-0.503276526927948,1.362197756767273,1.8490737693555648,-9.404619351404904,2.0747157315179705,50,jumping
1783067336219189200,4.9808345,-1.54590798413828,8.31975140032172,-2.1118051067233083,-0.1638160049915313,-0.5398796200752258,1.1431996822357178,1.6300043174512684,-9.45669791368842,2.0209749351106585,50,jumping
1783067336239112200,5.0007575,-2.625272223238647,7.270603581917285,-2.096165931303799,-0.2914144992828369,-0.6158773899078369,0.8677186369895935,1.466628111196309,-9.49601285598874,1.9608930991135536,50,jumping
1783067336259036200,5.0206815,-3.607751520732045,6.5176908726841205,-2.5232538642659783,-0.0980503633618354,-0.4518011212348938,0.7428203821182251,1.3344567521527408,-9.527799740871789,1.9001624438188969,50,jumping
1783067336278959000,5.0406043,-3.7507773051366207,6.102277010902762,-3.077338237851858,0.3776475489139557,-0.2210411131381988,0.3815995156764984,1.2358180987462402,-9.537507480415702,1.9180955753944813,50,jumping
1783067336298882000,5.0605273,-3.46310193451792,5.100374343276023,-2.315149458490312,0.5388031005859375,-0.1626424938440323,-0.0694462582468986,1.2173410695523024,-9.521568153005838,2.0070450478270647,50,jumping
1783067336318806300,5.0804516,-1.6263675683841108,3.658242521563172,-0.541476528686285,0.6572818160057068,-0.0054171588271856,-0.1450823694467544,1.248382981286943,-9.493959430590271,2.115813757842779,50,jumping
1783067336338729200,5.1003745,3.2126047864317893,0.1085854624032974,2.1164754366219043,0.6484235525131226,-0.0277737751603126,0.681582510471344,1.2120295191407202,-9.468716852784157,2.24605970178172,50,jumping
1783067336358652200,5.1202975,8.855164683446288,-7.13208241545558,3.402173418563604,0.2694931924343109,-1.2529504299163818,1.971835017204285,0.9820111685249954,-9.475596675425768,2.3278996344700453,50,jumping
1783067336378576100,5.1402214,6.608099457883834,-11.742294237697124,-0.2094946910902857,-0.0066707441583275,-2.0671775341033936,2.3161633014678955,0.6378026673667132,-9.50789326339662,2.3159436776079234,50,jumping
1783067336398499000,5.1601443,-2.660311972437799,-14.51336755527258,-0.5206128966167569,0.0298832822591066,-0.7707930207252502,1.6163427829742432,0.3169872071577236,-9.526810729834438,2.3042925489112736,50,jumping
1783067336418422000,5.1800673,-5.577608409154415,-19.583994410538672,-0.3400846261613071,0.4817524552345276,0.414289116859436,0.772038459777832,0.1067078593626152,-9.52186392108202,2.343731848243624,50,jumping
1783067336438346200,5.1999915,-2.915213492962718,-23.597815041601656,1.8365388435617087,0.8320561647415161,0.9412463903427124,0.2471932768821716,-0.0316000662072096,-9.488406472638248,2.477813424822688,50,jumping
1783067336458269200,5.2199145,-4.220385406181216,-20.28164700484276,2.3695789678141472,0.1891930848360061,-0.0280641317367553,-1.1423134803771973,0.0339742982249939,-9.460921668863296,2.5807319475054737,50,jumping
1783067336478192000,5.2398373,-2.496976974976062,-19.700676670157907,1.2480232080638407,-0.6701029539108276,-0.6296352744102478,-1.5919640064239502,0.3242391875799745,-9.468480121418834,2.532420628800988,50,jumping
1783067336498116000,5.2597613,-1.0806520869538188,-14.439645316457748,-1.256579147224128,-1.299142837524414,-0.397411435842514,-1.4461166858673096,0.6467030360504984,-9.502072594419122,2.3372616293162105,50,jumping
1783067336518039000,5.2796843,0.553734756430611,-9.505749237105247,-1.442383896777779,-1.623310685157776,0.090427815914154,-1.019965648651123,0.8869760195031762,-9.548354453122617,2.052456261175871,50,jumping
1783067336537962000,5.2996073,1.9981486246660352,-5.456890610408783,-1.167343843587488,-1.7458423376083374,0.0273071695119142,-0.4306299686431885,1.0240821315351871,-9.597700960093736,1.7337224660791457,50,jumping
1783067336557886200,5.3195315,1.500234320461005,-2.2748381986290216,1.0001974711440502,-2.179695606231689,-0.0957824736833572,-0.2167102098464965,1.0790690555460751,-9.651876786917448,1.359138627336174,50,jumping
1783067336577809200,5.3394545,-0.9333664531476796,0.7592033338099717,2.4539760376393795,-2.321204662322998,-0.07990612834692,-0.0729069411754608,1.1114352016218003,-9.700648708871006,0.9124213533397764,50,jumping
1783067336597732000,5.3593773,-1.98185858412236,3.7055402793109415,2.934491609406471,-1.838375210762024,0.2396138459444046,-0.1529506891965866,1.1251833025977014,-9.728751936805248,0.5056764991717413,50,jumping
1783067336617656000,5.3793013,-1.961421360771358,6.710766051632166,2.454263622409105,-1.317528486251831,0.3044403791427612,-0.6731424331665039,1.1978208879809826,-9.731052614963057,0.2055454054752364,50,jumping
1783067336637579000,5.3992243,-2.0244258062168954,9.33556685796678,1.8171289174318312,-0.6925575137138367,0.0848206728696823,-1.2190396785736084,1.3883163526341318,-9.707865216121077,0.0180260671311116,50,jumping
1783067336657502200,5.4191475,-2.874809878642857,9.980283396375178,2.688348857137561,-0.6096592545509338,0.0825078561902046,-0.9451391100883484,1.606481256914139,-9.67367477722764,-0.0979721797212492,50,jumping
1783067336677426200,5.4390715,-3.454836502736806,12.277440394318104,1.9386673849105835,-0.4283701479434967,0.0742448940873146,-0.6480919122695923,1.7582450590476393,-9.645613634869456,-0.2027219272860325,50,jumping
1783067336697349000,5.4589943,-2.856301285266876,13.963818779289722,-0.1359621296286582,0.055792860686779,0.0448691174387931,-0.2236139327287674,1.845349780396372,-9.628518123161792,-0.2381320076349191,50,jumping
1783067336717272000,5.4789173,-2.44590393647328,13.840185385358334,-0.9899123701035976,0.3759292960166931,-0.0038710422813892,0.5016617178916931,1.824758243266493,-9.633422846338153,-0.1944689165950752,50,jumping
1783067336737196000,5.4988413,-1.9905648915387688,11.568864254939555,-1.1404612434893846,0.6693933606147766,0.0219041425734758,1.380926489830017,1.6395150731183588,-9.668167996504902,-0.0943480526736471,50,jumping
1783067336757119200,5.5187645,-2.014032422496378,9.68229296796918,-0.4786404255449771,0.9731422662734984,0.0072119580581784,1.7232571840286257,1.3300386434495448,-9.715811206689477,0.066238824256882,50,jumping
1783067336777043200,5.5386885,-1.307293873808533,8.676666311383247,0.9241232623755932,1.1637080907821655,-0.1923140734434127,1.7069506645202637,0.997095194279775,-9.751963301044702,0.2746239101374522,50,jumping
1783067336796966100,5.5586114,-0.6711695879828184,8.023975725355744,1.9667723664104937,1.2151200771331787,-0.3789848089218139,1.7495460510253906,0.6645856795478612,-9.771144386854766,0.5034458540428429,50,jumping
1783067336816889000,5.5785343,-0.8335103137101978,7.097602638226747,2.5248633452892304,1.0756999254226685,-0.0141302132979035,1.807856202125549,0.3184577911669388,-9.774619369488954,0.7251157707691193,50,jumping
1783067336836812000,5.5984573,-1.48216236493662,7.18823684887588,1.985663967754692,1.2165664434432983,0.4667497873306274,1.560710906982422,-0.0188523093717813,-9.76125427648127,0.9422944404907524,50,jumping
1783067336856736300,5.6183816,-1.2664208884112536,7.084127070581912,1.4773197472110389,1.4142509698867798,0.9514563083648682,1.159746170043945,-0.2972920891446061,-9.72852514231205,1.1990997488103807,50,jumping
1783067336876659200,5.6383045,-0.011750862744078,5.667334857308864,1.4041804228506982,1.3149135112762451,1.25702965259552,1.10009503364563,-0.5395140695068985,-9.682559509950876,1.4585356978945434,50,jumping
1783067336896583200,5.6582285,1.0096179912444203,3.0334909128189085,0.1788322801925241,0.9484996795654296,1.088693141937256,1.2755390405654907,-0.8053627351775765,-9.630864394026997,1.6638059031575918,50,jumping
1783067336916506000,5.6781513,1.806541472443938,1.519172391295433,-0.728427525665611,0.3487939536571502,0.7613542079925537,1.3200801610946655,-1.0896279320266098,-9.58359293976426,1.771401477740705,50,jumping
1783067336936429000,5.6980743,2.140749461656809,0.604718874540925,-3.52161579054594,0.1416113227605819,0.3232806026935577,1.457827925682068,-1.367272980083525,-9.543172666570545,1.7968930618718266,50,jumping
1783067336956352000,5.7179973,0.4784013560920953,-3.3746365923404693,-3.725326345276832,0.1698676645755767,1.2402637004852295,1.6583244800567627,-1.6876228320747613,-9.4907556661129,1.802183277234435,50,jumping
1783067336976276200,5.7379215,-0.1922713152192532,-11.283058769845962,-3.1621219689071176,0.7503765821456909,1.980783581733704,1.9583187103271484,-2.0908992429472506,-9.40748292414248,1.8159819393537937,50,jumping
1783067336996199200,5.7578445,-1.1390656974777578,-19.010971235466,-0.7111598722614347,0.5439769625663757,1.1846742630004885,1.8304911851882932,-2.5147850188672543,-9.28938962868154,1.8850662892349064,50,jumping
1783067337016123100,5.7777684,-3.661424366469681,-22.422654825174806,4.478987827050686,-0.6997477412223816,0.711974024772644,1.7692781686782837,-2.874147615341842,-9.196668090364335,1.8250944894835357,50,jumping
1783067337036046000,5.7976913,-6.047431906515359,-21.36287221550941,6.858658273029327,-0.66754549741745,1.0386719703674316,1.135017156600952,-3.186405638553202,-9.13282310244143,1.61516959028244,50,jumping
1783067337055969000,5.8176143,-6.644801587337256,-17.23783694258332,4.743498010659217,0.8396963477134705,0.6956219673156738,-0.1877062767744064,-3.302358414854109,-9.099729226613045,1.568365753531456,50,jumping
1783067337075893200,5.8375385,-6.821046627515554,-18.02173574171066,4.309325672394037,1.3251749277114868,0.0213501527905464,-1.3556145429611206,-3.1648686372667547,-9.112200001129509,1.7668584274835883,50,jumping
1783067337095816000,5.8574613,-4.843438394314051,-18.890660263955592,4.959529117780924,0.2918501794338226,0.2214124798774719,-1.439802646636963,-2.896566367898881,-9.16758637278676,1.932778619132936,50,jumping
1783067337115739000,5.8773843,-2.5471716232091186,-16.608933474856613,4.481032484620809,-1.2403565645217896,0.0670611187815666,-1.5589802265167236,-2.641363234078884,-9.268197787570951,1.814969401310384,50,jumping
1783067337135662800,5.8973081,-0.57624009129256,-9.81774656355381,0.9462168746314942,-1.3611140251159668,-0.4545772969722748,-1.7094367742538452,-2.321940726065636,-9.397366019275784,1.57113697181046,50,jumping
1783067337155586000,5.9172313,-0.9439122509509325,-4.478056099158525,0.3799145322464406,-0.9615485072135924,-0.4506017863750458,-1.987848401069641,-1.9746191343881188,-9.508569555222987,1.3632143523424862,50,jumping
1783067337175509000,5.9371543,-3.1103070259958505,1.8574796325206755,-0.1084217962741851,-0.4715000689029693,-0.4075144529342651,-2.687487363815308,-1.523071736821532,-9.606163668012618,1.253897653055191,50,jumping
1783067337195433000,5.9570783,-4.515913243865967,7.09002431192696,1.5424223339796066,-0.4759845733642578,-0.1632366180419922,-3.471977949142456,-0.9244613352235406,-9.692521516516804,1.1708069896534083,50,jumping
1783067337215356000,5.9770013,-4.002916082949936,12.031688687193393,1.077799912393093,-0.4634596109390259,-0.7986800670623779,-3.7927379608154297,-0.1978604769958183,-9.744627551329136,1.0832662149749697,50,jumping
1783067337235278800,5.9969241,-2.804873880368471,14.942256984698773,1.20795993161425,-0.6646932363510132,-0.9699592590332032,-3.243607759475708,0.5176630703678354,-9.744293789330124,0.975251830457896,50,jumping
1783067337255203000,6.0168483,-2.8636148231506344,16.552140159010886,0.4113339720565825,-0.719893753528595,-0.5743799209594727,-2.0416626930236816,1.0494087343629448,-9.715947400289773,0.8182376335155218,50,jumping
1783067337275126000,6.0367713,-2.160587696201354,16.394311065489052,-1.038080334814638,-0.2183339148759842,-0.038752868771553,-0.8094582557678223,1.325909288559854,-9.689950204724072,0.7192032587897033,50,jumping
1783067337295049000,6.0566943,-1.7093727454595269,15.359477019119264,-1.128230196012929,0.037292581051588,0.3093256950378418,0.049833845347166,1.392589646039158,-9.681476975411176,0.7071496867720037,50,jumping
1783067337314973000,6.0766183,-1.1508595956459642,13.098877189201117,-0.2415934914667159,0.2108531892299652,0.9277822375297546,0.6945182681083679,1.308876759085804,-9.690131406509876,0.7473680807180703,50,jumping
1783067337334895900,6.0965412,-0.845813695770502,11.086163740348816,1.119070664936304,0.1476329714059829,1.8803714513778689,0.8465338945388794,1.1260850737430157,-9.707253221702576,0.8194848570976406,50,jumping
1783067337354818800,6.1164641,-0.5297483892306685,10.57348192899227,1.3776245704889296,0.0555822066962718,2.4314000606536865,0.3246172368526459,0.971628087002784,-9.718152216857671,0.8853449111700058,50,jumping
1783067337374743000,6.1363883,-0.0614851269237697,8.913873477524518,2.219923828397691,-0.1045807003974914,2.985461711883545,0.0647645816206932,0.8940686811778694,-9.721614924532174,0.9280014189831912,50,jumping
1783067337394666000,6.1563113,1.364548523555696,8.90797740522325,0.7431237211465835,0.5564509630203247,2.519573926925659,-0.079853318631649,0.83272990392223,-9.71946213041246,1.0044946568813171,50,jumping
1783067337414589000,6.1762343,2.3639389161005613,9.253521611964702,-1.5554839139960706,1.9951990842819212,1.1258171796798706,-0.3820931017398834,0.8378568915471434,-9.687022919100524,1.2767090581916272,50,jumping
1783067337434513000,6.1961583,2.6233488539606333,9.319874783316251,-0.6198572608314454,3.048140525817871,-0.136766105890274,-0.8651548027992249,0.9423656060308218,-9.59640624410808,1.7864328965254126,50,jumping
1783067337454435800,6.2160811,1.5061998047366738,8.327164306926727,0.4723753738008439,3.0813686847686768,-0.4426560699939728,-1.1476054191589355,1.1580975840754806,-9.44346024645269,2.37702431538403,50,jumping
1783067337474358800,6.2360041,1.5273871158026158,3.3200615370661017,0.4938137370184063,2.0850722789764404,-0.5617421269416809,-0.475044846534729,1.34969523781687,-9.2840190415591,2.855824023143947,50,jumping
1783067337494283000,6.2559283,2.35638382454589,-1.1155050814092158,0.6157809513032436,0.7587887048721313,-0.3728826642036438,0.6098388433456421,1.3604644691124557,-9.202157335430384,3.104807844057679,50,jumping
1783067337514206000,6.2758513,2.857614413692057,-3.043126756170392,-0.82650547644943,-0.203080803155899,-0.7085112929344177,0.8505403399467468,1.2373685430586336,-9.209051771119237,3.135712977670133,50,jumping
1783067337534129000,6.2957743,3.4233477240175008,-3.0225083310335874,-3.3556206339642403,-0.5195861458778381,-1.3642727136611938,0.2086677253246307,1.209133505438268,-9.246878520688414,3.033751025059819,50,jumping
1783067337554052900,6.3156982,3.68154156408608,-8.43930132433176,-4.326436966192722,-0.2457841038703918,-1.1497663259506226,0.5783522725105286,1.2288161110296845,-9.279287336862089,2.924930292595923,50,jumping
1783067337573975800,6.3356211,2.2631296406567096,-14.576907422769068,-3.990041403807699,-0.1185469627380371,-0.6425531506538391,1.041104435920715,1.1162858565233649,-9.307646585384012,2.879580454045534,50,jumping
1783067337593899000,6.3555443,0.9032301119506358,-16.70511655180454,-3.621644144745171,-0.5754920244216919,-0.7391008138656616,1.1328610181808472,0.962451531726122,-9.346190543311836,2.809411231537163,50,jumping
1783067337613823000,6.3754683,-0.0581811900075525,-19.73154176402092,-1.6496467371627688,-1.9256747961044312,-0.580997884273529,1.9089916944503784,0.7165867196157574,-9.434024309587478,2.579944304259121,50,jumping
1783067337633746000,6.3953913,-3.504408050635457,-19.04284989028573,0.5763488123640418,-3.9506895542144775,-0.254095196723938,2.105928659439087,0.341218598627299,-9.590753332912922,2.0177685402847825,50,jumping
1783067337653668900,6.4153142,-5.554592859748006,-13.031313473016024,1.2789561064660548,-5.274514198303223,0.4620488286018371,2.024684190750122,-0.0506823267187224,-9.743529819220305,1.109708377829194,50,jumping
1783067337673592800,6.4352381,-4.486954568146169,-7.096824055069685,0.1291302377820015,-5.477077484130859,1.6482089757919312,2.3096067905426025,-0.4760757626887411,-9.795016845351457,0.0372674374692724,50,jumping
1783067337693516000,6.4551613,-1.8141598384931683,-2.563490305325389,-0.0826110631912946,-5.093222618103027,3.1355650424957275,3.0166146755218506,-0.9641616966448724,-9.704399001315236,-1.032188719492778,50,jumping
1783067337713439000,6.4750843,0.3050802405364811,-0.1744604948490858,-0.7247653498962521,-4.48205041885376,3.922372341156006,3.835599184036255,-1.5084658499725163,-9.473425176605582,-2.036946557354927,50,jumping
1783067337733363000,6.4950083,1.4780166434340178,0.7797773352831602,-0.1839227351993322,-3.99323296546936,4.221711158752441,4.597143173217773,-2.083599879719317,-9.112197663041949,-2.965948823943734,50,jumping
1783067337753286000,6.5149313,1.9108423893958328,1.383407245543599,0.9502738949373364,-3.939925193786621,4.101550579071045,5.028299808502197,-2.660227509024739,-8.614943137919902,-3.856984055709839,50,jumping
1783067337773208800,6.5348541,1.025404539245367,2.01045777888,2.712420053076744,-4.272983551025391,4.145694732666016,5.033738136291504,-3.1430756153926254,-7.967381146952509,-4.7762215918704864,50,jumping
1783067337793133000,6.5547783,-0.5065829099595547,3.83956238078773,3.855222306734323,-4.286431312561035,4.18796443939209,4.695690631866455,-3.441156352430582,-7.194736732289194,-5.706538740450143,50,jumping
1783067337813056000,6.5747013,-0.3943991308033466,2.1117542533189058,4.859318100491166,-3.908261775970459,5.083850383758545,4.51134729385376,-3.497824580591917,-6.371487919548153,-6.583292933407425,50,jumping
1783067337832979000,6.5946243,1.202283201152086,2.852118446624279,3.9788644684940575,-3.820247173309326,5.053966045379639,3.938394784927368,-3.278355607976019,-5.5499348048090935,-7.390601834216714,50,jumping
1783067337852903000,6.6145483,-0.1176043429002165,2.741174146135151,2.946648495668173,-3.948899745941162,4.0778489112854,3.342826128005981,-2.9487694333449004,-4.723872395952045,-8.072185337251424,50,jumping
1783067337872825900,6.6344712,-1.597392818312347,2.761471084232628,3.508368186438084,-4.098391532897949,3.647028684616089,2.8627679347991943,-2.5830329179242253,-3.882705649204552,-8.626872060644626,50,jumping
1783067337892748800,6.6543941,-1.623477546031028,2.83575095693022,4.954217567369342,-3.918126106262207,4.208603858947754,2.932629108428955,-2.103546104682982,-3.034619040066004,-9.084963619157673,50,jumping
1783067337912673000,6.6743183,-1.0414768453851342,0.9879165201112629,6.879049319151044,-3.284816026687622,7.010179996490479,3.021323680877685,-1.263091890119016,-2.26028506488055,-9.458651970365644,50,jumping
1783067337932596000,6.6942413,-0.1398528169242665,1.413942376799881,7.605882999753952,-3.752959966659546,4.878568649291992,2.220644950866699,0.0696727624946273,-1.5950038773491977,-9.67581997256279,50,jumping
1783067337952519000,6.7141643,-0.9836816590204834,-1.4600211141467094,-8.62462866563201,-3.4568803310394287,2.179454803466797,1.7356529235839844,0.5135203080072999,-0.8684896379590034,-9.754609431639311,50,jumping
1783067337972443000,6.7340883,-1.198236263848841,-0.1946917472992092,1.6685545589894055,-2.0474414825439453,2.440049648284912,1.0382455587387085,0.9553743598815052,-0.3486423188872635,-9.753772980815173,50,jumping
1783067337992365800,6.7540111,-0.6644771776720881,-0.5905834912804886,0.6535270368516445,-0.8217536807060242,2.3869009017944336,0.770495593547821,1.436457575468719,-0.1040342653723433,-9.700317284959556,50,jumping
1783067338012288800,6.7739341,-1.3106658344596624,0.634388840335235,-1.054554645884037,-0.1363900154829025,1.5525754690170288,0.9811455011367798,1.8115030403740704,-0.0406268240499077,-9.637800330770014,50,jumping
1783067338032212000,6.7938573,-1.143641480960697,0.46154922468625,-0.2912637504994869,0.4367932379245758,1.1007628440856934,1.496222972869873,2.0615185424230997,-0.1203754607145208,-9.58676338649392,50,jumping
1783067338052136000,6.8137813,-0.7582504169993102,0.2859656806239858,-0.7194207739979028,0.7204030752182007,0.1785622984170913,1.7355495691299438,2.1854937355294823,-0.3052689497753046,-9.555146012958884,50,jumping
1783067338072059000,6.8337043,-0.690560444086045,0.4538812473416328,-0.95225337831676,0.8725153803825378,-0.9512733817100524,1.5171849727630615,2.093412979333848,-0.5275029118588194,-9.566072480642797,50,jumping
1783067338091985700,6.853631,-0.1886056323185563,0.4370149412799626,-0.0444955598086118,1.0516951084136963,-1.386897325515747,1.2475193738937378,1.845542818750441,-0.7650205687213688,-9.60099474094212,50,jumping
1783067338111909600,6.8735549,-0.1202186170518398,-0.4247751259751617,-0.298593070474267,1.135655164718628,-1.4569696187973022,1.392081618309021,1.543571357884258,-1.019377241779864,-9.630609542483093,50,jumping
1783067338131832600,6.8934779,-0.5303837645247579,-0.7532400414913892,0.2147545113146305,1.053923487663269,-1.0218807458877563,1.6209534406661987,1.2677978758528827,-1.2782399210207165,-9.639978259330988,50,jumping
1783067338151755500,6.9134008,-1.0025433766830711,-0.3172118462264537,0.1142366200327873,0.5877920389175415,-0.5065827965736389,1.449681520462036,1.0733219632614404,-1.4738006331741809,-9.635677347266672,50,jumping
1783067338171679700,6.933325,-1.4441343937069178,0.4223623657450079,1.1492869395017624,0.2506720125675201,0.0828314274549484,1.126012682914734,0.9988128849178552,-1.577265391562879,-9.627304655718802,50,jumping
1783067338191602700,6.953248,-1.6649249703153968,0.4123727405197918,1.2196353179693222,0.0227544642984867,0.3518643975257873,1.1218842267990112,1.010410164535418,-1.6247366061814128,-9.618195466589928,50,jumping
1783067338211525600,6.9731709,-1.0295576403368265,-1.07384722924456,0.8743921400010586,-0.216508686542511,0.4022336602210998,1.3067142963409424,1.0416782862413674,-1.629954633090645,-9.613976387590167,50,jumping
1783067338231449600,6.9930949,-0.8695409005776047,-1.305003132522851,1.5851865399509668,-0.3705337345600128,0.2965696156024933,1.1572837829589844,1.0737962297096848,-1.5981160180203615,-9.615787820926307,50,jumping
1783067338251372500,7.0130178,-0.5757444897953421,-1.144681637663394,0.6216752700388432,-0.4643037319183349,-0.2883267402648926,0.7170842885971069,1.04306272633709,-1.5380211764112115,-9.628961190754175,50,jumping
1783067338271295500,7.0329408,-0.3304629574656486,-1.2935432886146008,0.250604407852888,-0.6089228391647339,-0.4411464929580688,0.3916734158992767,0.9546013296823948,-1.4472190618492662,-9.652185414475202,50,jumping
1783067338291219700,7.052865,-0.4442942115679383,-1.421485047264397,-0.079432433155179,-0.8583378195762634,-0.6567316055297852,0.3597416281700134,0.8418813247576356,-1.314788175086677,-9.681578097698091,50,jumping
1783067338311142700,7.072788,-0.3432197823818773,-1.7847402672633528,-1.1762041725218295,-1.061206579208374,-0.9090692400932312,0.3615800142288208,0.6788569276150316,-1.1319957590915262,-9.717413381189107,50,jumping
1783067338331065600,7.0927109,-0.7620669796127826,-1.3793348815381523,-1.6073557016611095,-1.0407859086990356,-0.9643459916114808,0.1063472256064415,0.4897265407700091,-0.9286755919177084,-9.75028806130886,50,jumping
1783067338350989600,7.1126349,-0.8002734492145478,-1.2019123950783162,-1.2637754884690044,-1.0515035390853882,-1.1390362977981567,-0.4245755970478058,0.2958450686740689,-0.7276645054038614,-9.775140178492665,50,jumping
1783067338370912500,7.1325578,-0.362544843239896,-1.1013386088907715,-0.7810404870867729,-0.835090160369873,-1.098208785057068,-0.9195943474769592,0.0740435431910678,-0.5297112720906734,-9.792053319370746,50,jumping
1783067338390835700,7.152481,-0.7088920734599232,-1.556744581581652,-0.2092290258914232,0.012538350187242,-0.6431822180747986,-0.880756676197052,-0.0817929791409056,-0.4497460107004269,-9.795990074297784,50,jumping
