time,seconds_elapsed,acc_x,acc_y,acc_z,gyr_x,gyr_y,gyr_z,grav_x,grav_y,grav_z,fs_hz,activity
1783067179545660000,0.0,0.5780238329041749,-0.2027788268387317,0.4655110409893095,0.1088041365146637,0.0053908862173557,-0.0584265813231468,-0.7376870830506086,-9.613147535550594,-1.792646656473726,50,jumping
1783067179565584000,0.019924,0.7238331836126745,-0.2632043617069721,0.521392356556654,0.1635708659887313,0.0416023544967174,-0.0324463210999965,-0.7292200642827897,-9.619012628191708,-1.7644320771194992,50,jumping
1783067179585506800,0.0398468,0.7352039609979838,-0.1732856058508157,0.7773891249723732,0.1024676710367202,0.0170967429876327,-0.0359341986477375,-0.7214372283868491,-9.624235915797948,-1.738960366732627,50,jumping
1783067179605430800,0.0597708,0.6596490268632769,-0.1886801588594913,0.7411720025569201,-0.0089342212304472,-0.0282279271632432,-0.0466678440570831,-0.7144162437088787,-9.626648822158575,-1.7284807660333812,50,jumping
1783067179625354800,0.0796948,0.6797939892694354,0.00675122782588,1.0247551354259252,-0.1696356981992721,-0.032013613730669,-0.0515200905501842,-0.7053821656428277,-9.624259296673536,-1.7454099812634287,50,jumping
1783067179645279000,0.099619,0.9825844383683056,0.2422112580388784,0.6742604666702449,-0.2701644897460937,-0.039014596492052,-0.009757537394762,-0.7003681368730962,-9.616858080506324,-1.787714314638078,50,jumping
1783067179665203000,0.119543,1.0487954247701912,0.5503811351537704,0.8243086970575153,-0.2955095767974853,0.0747176334261894,0.0809151157736778,-0.7053771241415292,-9.606298692569135,-1.8416946188896892,50,jumping
1783067179685126700,0.1394667,1.279983695948124,0.7170031914621591,0.816199478751421,-0.3630630671977997,0.0038047721609473,0.1802298426628112,-0.7297662999887019,-9.592159108057617,-1.9048133383646608,50,jumping
1783067179705051000,0.159391,1.148992632730305,1.028813470906019,0.5853089484110474,-0.3849118053913116,-0.1186835914850235,0.1625957936048507,-0.7654713081635535,-9.574765490186214,-1.9769382249854504,50,jumping
1783067179724974800,0.1793148,1.1318693562328814,1.0314689538508652,0.4061865992307663,-0.2947376668453216,-0.0532961301505565,0.2390988022089004,-0.806108365913108,-9.55826852889359,-2.039630535741895,50,jumping
1783067179744898800,0.1992388,0.9209071498733014,0.9185130212783812,0.4681657932817936,-0.2111705094575882,0.1305494755506515,0.3012351989746094,-0.8571614576064049,-9.543175589179992,-2.0888908257342877,50,jumping
1783067179764823000,0.219163,0.7018585215613246,1.151913780874014,0.1678098047882318,-0.0449810735881328,0.0213689189404249,0.2226324081420898,-0.9058145754858852,-9.532518001565336,-2.116839593759179,50,jumping
1783067179784747000,0.239087,0.4177531914491206,1.785254354265332,0.3239638047046959,0.1597245782613754,-0.1201787516474723,0.0508021712303161,-0.9338530676208436,-9.532740704405308,-2.1036038262195884,50,jumping
1783067179804670000,0.25901,0.4896791944969445,2.4269816477298733,0.6230664321362972,0.2382128685712814,-0.1840313673019409,-0.062943123281002,-0.937993382295966,-9.541651156091689,-2.06093387440294,50,jumping
1783067179824593700,0.2789337,0.8213603686459362,3.1543577646464107,0.8737152636528015,0.2452985942363739,-0.3229483664035797,-0.0680902302265167,-0.9329901671811938,-9.552861701413988,-2.0106616308890284,50,jumping
1783067179844518000,0.298858,0.903468962207809,3.700892745766044,0.690215283910185,0.3135693669319153,-0.5481064915657043,-0.0631197243928909,-0.9393818409796804,-9.56489057738185,-1.9495653571523728,50,jumping
1783067179864441900,0.3187819,0.7543675111513585,4.320426327601075,0.6804881090134381,0.2590849101543426,-0.7912175059318542,-0.1285815387964248,-0.9457538602296264,-9.57824339542985,-1.879683573283255,50,jumping
1783067179884365800,0.3387058,0.337296091421321,4.716829199442267,1.06212551952973,0.0931917056441307,-1.0096704959869385,-0.2016678899526596,-0.9487151211880148,-9.587980945590138,-1.8278211379684504,50,jumping
1783067179904290000,0.35863,0.0560688740286976,4.725231701606512,1.7035453544802963,-0.1794442981481552,-0.9957255721092224,-0.2795153856277466,-0.9387810255423188,-9.59144540683031,-1.8147256556823848,50,jumping
1783067179924217000,0.378557,0.0669635583348572,4.743161326050758,1.8162506732925767,-0.5350354909896851,-1.0134085416793823,-0.3176602721214294,-0.916606091678515,-9.583939561244843,-1.8650331166401504,50,jumping
1783067179944140800,0.3984808,0.2514643126178533,4.490987476924062,1.3998320183828472,-0.8327446579933167,-1.130951762199402,-0.2244654595851898,-0.9041836132831872,-9.562655950197575,-1.9769842560842632,50,jumping
1783067179964064800,0.4184048,0.1649810111030936,3.9487954934448,1.3412130945451557,-1.069183111190796,-1.0659356117248535,-0.0369168557226657,-0.9246911253914236,-9.525938623175024,-2.13818253377825,50,jumping
1783067179983989000,0.438329,0.0161546506609767,3.452453991514444,1.3891164169706405,-1.1961594820022583,-0.7597031593322754,0.0958144441246986,-0.9721892280168832,-9.473870582285524,-2.339015487246215,50,jumping
1783067180003912000,0.458252,0.3926435923729092,3.4197856476217505,1.3939397454738616,-0.9900270700454712,-0.331888347864151,0.2049867361783981,-1.0253113810691985,-9.416662840420008,-2.5388170518398283,50,jumping
1783067180023836000,0.478176,0.4524157048337161,3.186366767847538,-0.1106233979716897,-0.6663918495178223,-0.2880096435546875,0.24040187895298,-1.0837363897699863,-9.368493560534716,-2.688347980354726,50,jumping
1783067180043759900,0.4980999,0.023146116983518,1.580383523583412,-1.158658871220052,-0.2999630868434906,-0.1659421920776367,0.2314354181289672,-1.1404900311924515,-9.336698492345214,-2.774116338533163,50,jumping
1783067180063684000,0.518024,-0.3959003291465341,-1.038205568629503,-1.5819287071987986,0.046555183827877,0.1363865882158279,0.2393460869789123,-1.1859189263284209,-9.324498351463674,-2.796018958261609,50,jumping
1783067180083607800,0.5379478,-0.9895179639585316,-3.833208043324947,-1.918648094710708,0.497227132320404,0.2856848537921905,0.2178767472505569,-1.2155416189149022,-9.332806161081791,-2.7552824587255715,50,jumping
1783067180103531800,0.5578718,-2.3004595466196536,-6.43594957806468,-3.3772675253659483,1.1705186367034912,-0.1036126986145973,0.139666274189949,-1.2434078232228756,-9.373263259154555,-2.601203949908912,50,jumping
1783067180123456000,0.577796,-3.067314856487513,-11.582874075591564,-2.848879026311636,1.2847248315811155,0.1196855008602142,0.4121097922325134,-1.2886359350897372,-9.43193230574429,-2.3555168324530125,50,jumping
1783067180143380000,0.59772,-3.067086308428645,-17.583486947786806,-2.165513754426688,0.7483468651771545,0.3451306521892547,1.07313072681427,-1.418749923212081,-9.457674065244197,-2.170235960642993,50,jumping
1783067180163304000,0.617644,-5.82403991523683,-18.633074326652288,-4.382844497591257,0.8372588753700256,0.3962955176830292,0.5317311882972717,-1.5827220495335756,-9.458692302376033,-2.049028770945221,50,jumping
1783067180183228000,0.637568,-7.38639444565475,-16.660616900342703,-4.349581402675807,1.4066489934921265,0.9715577363967896,-0.3045925498008728,-1.5552002747491,-9.503516948008537,-1.8533460398472843,50,jumping
1783067180203151000,0.657491,-3.19473653678596,-16.920860074156522,-4.380212980043888,1.266840577125549,1.0222629308700562,0.1361142545938491,-1.4940081394225355,-9.556017535096409,-1.6189084845498205,50,jumping
1783067180223074800,0.6774148,-1.2560660831354558,-14.297985267448423,-2.7333926984786987,0.4715158939361572,0.5489740371704102,0.6000155210494995,-1.5432044242680072,-9.572653612598776,-1.467383605738729,50,jumping
1783067180242998800,0.6973388,-1.5658727676719426,-11.250002887940406,-0.8055201176963747,-0.7512763142585754,0.4533425867557525,0.7969422936439514,-1.664952442844212,-9.545732287925482,-1.5090738988682626,50,jumping
1783067180262923000,0.717263,-0.5316853486426174,-7.80657859057784,-1.2231659763135014,-1.2617602348327637,0.4049966037273407,0.986363410949707,-1.824209231081605,-9.477911966630815,-1.7354688713550566,50,jumping
1783067180282847000,0.737187,-0.0613408961474895,-3.769262517637014,-2.755465414077044,-0.363259881734848,0.3274891078472137,0.8091262578964233,-1.983905872040987,-9.410068848982451,-1.919662386319786,50,jumping
1783067180302771000,0.757111,-0.299228007376939,0.6448410415709018,-2.029328775827586,0.940677046775818,0.4745726883411407,0.3005798757076263,-2.074323955721408,-9.39924058097601,-1.87666188737452,50,jumping
1783067180322695000,0.777035,0.5965522269591689,3.979657664698362,0.335122035317868,1.6788138151168823,0.4061182737350464,-0.3792742192745209,-2.055219880670309,-9.447566512727738,-1.6401115777067838,50,jumping
1783067180342619000,0.796959,3.3918951856553554,8.144342810967563,2.096629164901376,1.438695788383484,-0.6725484728813171,-0.8166123628616333,-1.929187462773174,-9.523253329613803,-1.3252471713893117,50,jumping
1783067180362542800,0.8168828,5.195754287147522,9.155672647631167,3.721380237999558,0.4553295373916626,-1.2365853786468506,-0.1549745500087738,-1.8512046439044176,-9.566876782763003,-1.1037698546256869,50,jumping
1783067180382467000,0.836807,5.266798831185699,10.23712932896614,3.079617873221636,-0.2928771078586578,-0.9512478113174438,0.5419763922691345,-1.915814332589507,-9.559719896745682,-1.0544227631326764,50,jumping
1783067180402390000,0.85673,3.700082598426938,10.150215600144865,1.708523435153812,-0.3725282549858093,-0.6879798173904419,0.7910564541816711,-2.070379602009803,-9.522637243542077,-1.0969548408485947,50,jumping
1783067180422314000,0.876654,1.931946406092495,10.288707540512084,1.1059084740895777,-0.076701134443283,-0.7247830033302307,0.3419950902462005,-2.1994982954844837,-9.492186575698852,-1.1094996304493396,50,jumping
1783067180442238000,0.896578,1.1882197506166994,10.577712698429822,1.0432371330559254,0.1129845455288887,-0.6851183772087097,-0.0912597402930259,-2.232690370990336,-9.488799271348118,-1.0715185671012848,50,jumping
1783067180462162000,0.916502,1.8559664514787493,10.13638347414732,0.8541285196512937,0.3304526209831238,-0.4927290976047516,-0.2319939136505127,-2.2103082971818746,-9.501172430709005,-1.0063101088054478,50,jumping
1783067180482086000,0.936426,2.434113837697357,9.435067681160568,0.3367337813634425,0.4767602086067199,-0.5199924111366272,-0.3513464629650116,-2.165663830421865,-9.521557047089932,-0.9056560969885438,50,jumping
1783067180502009900,0.9563499,2.4637433984160424,8.807204077875614,0.3213386438328772,0.363818883895874,-0.7133788466453552,-0.4770856201648712,-2.0962332974515854,-9.546862168738246,-0.79598919602409,50,jumping
1783067180521934000,0.976274,2.1242181597031653,8.3134333032161,0.481042810511589,0.0381903685629367,-0.8262907862663269,-0.6494874358177185,-2.0012159032821653,-9.572933014062048,-0.7242040627516806,50,jumping
1783067180541858000,0.996198,1.7605238176345823,7.675476175940036,0.6179916861552744,-0.0993359684944152,-0.5668236017227173,-0.4843759834766388,-1.8960951943799853,-9.595775544989108,-0.7044820019327104,50,jumping
1783067180561781800,1.0161218,2.4134087571904064,7.315032506230473,0.4100813416469842,-0.2395973652601242,-0.2100824862718582,-0.1102691367268562,-1.8456833962649104,-9.604338206151128,-0.7214769028101116,50,jumping
1783067180581706000,1.036046,2.9815371459588405,5.864868769231438,-0.297201250789687,-0.1906715482473373,0.066038116812706,0.3646450340747833,-1.8712259799309077,-9.596231472063064,-0.7623826214332133,50,jumping
1783067180601629000,1.055969,2.8152503129541877,6.007471067526936,-0.616665917444229,-0.1734064221382141,0.3541719019412994,0.6459202766418457,-1.9687505346156653,-9.573484802725911,-0.8017487824641167,50,jumping
1783067180621553000,1.075893,1.89769941470623,5.091365691912174,-0.1611157870423048,-0.3130380511283874,0.4981392621994018,0.5977016687393188,-2.0860930117093024,-9.543083234721422,-0.8649491158079355,50,jumping
1783067180641476900,1.0958169,1.0498869463339446,4.594617362746596,0.3957664736337959,-0.4290779829025268,0.7602055668830872,0.2809734642505646,-2.1606467329122125,-9.517094806984067,-0.9627432812143116,50,jumping
1783067180661401000,1.115741,0.8217286174364388,4.253801938092709,0.3384633085697889,-0.3957314789295196,0.9812836647033693,-0.0315580107271671,-2.1636785018235445,-9.503687628400325,-1.0811147360295057,50,jumping
1783067180681325000,1.135665,0.8323264376878738,3.704214583665132,-0.1483195068985223,-0.3617631196975708,0.9477285146713256,-0.2916533350944519,-2.110979761815071,-9.50207317894101,-1.1936304505538196,50,jumping
1783067180701248800,1.1555888,0.0436672922909259,2.3176123414725063,0.519799534407258,-0.4332881867885589,1.0014164447784424,-0.4105889499187469,-2.016938373070955,-9.507699202129244,-1.306144996034354,50,jumping
1783067180721173000,1.175513,-0.3044133010603487,0.5445061056405306,0.3550352347947657,-0.4244064688682556,1.1004656553268433,-0.2370223402976989,-1.922343734358251,-9.50899450263679,-1.433173877622932,50,jumping
1783067180741097000,1.195437,0.5794007472805679,-4.202805910348892,-1.124786996756494,-0.0539226867258548,1.2047687768936155,0.204509288072586,-1.8858863734461369,-9.502201773756742,-1.52379815139994,50,jumping
1783067180761021000,1.215361,-0.5010248374409974,-8.953960573241114,-1.273455024831742,0.2109332531690597,1.0849300622940063,0.3406163454055786,-1.906644060923159,-9.493661908948422,-1.5509546000033616,50,jumping
1783067180780945000,1.235285,-4.025683502814173,-12.2434294036448,0.8671401230461895,0.639617919921875,1.0847827196121216,0.4865705370903015,-1.9491959393180909,-9.490384494712949,-1.5177641319327055,50,jumping
1783067180800868900,1.2552089,-6.0655485779643055,-19.260820441037417,-0.8284871517859399,1.4604675769805908,0.5566883087158203,0.6261106729507446,-2.0296957094438373,-9.498478953841328,-1.3526305606164035,50,jumping
1783067180820792000,1.275132,-9.0634082054317,-24.424537083411217,-0.2958107462793588,1.3500120639801023,0.1874787360429763,0.5717976093292236,-2.1375651325322687,-9.509828615373372,-1.0790594109348952,50,jumping
1783067180840715800,1.2950558,-10.8497129455328,-26.37193021109104,1.126108819944784,0.3196041584014892,-0.2672645449638366,0.4358187317848205,-2.238190429711341,-9.503836681482197,-0.915419439177215,50,jumping
1783067180860640000,1.31498,-11.005857446968555,-23.52358076161146,1.0193553222090006,-0.6181257963180542,-0.4562738239765167,-0.1975102573633194,-2.270888876481354,-9.494555058395862,-0.9310692821212112,50,jumping
1783067180880564000,1.334904,-8.369502396440506,-18.55173576761484,-1.100368229488656,-0.3567133545875549,-0.211850956082344,-0.5507053136825562,-2.197605613605678,-9.50097486231029,-1.035559072708711,50,jumping
1783067180900488000,1.354828,-3.039571694037318,-12.208445768547058,-4.907230775266886,1.3910647630691528,-0.4654818773269653,-0.7669462561607361,-2.083421162151545,-9.536891394343971,-0.9367161289017648,50,jumping
1783067180920412000,1.374752,-0.8797538131646812,-5.788046810835599,-3.358605494993925,2.443241834640503,-1.045219898223877,-1.2456212043762207,-1.902607498883456,-9.606668694925308,-0.5122199294658377,50,jumping
1783067180940332500,1.3946725,0.1423572374932467,-1.7903566458404063,1.0453203690707682,1.8260908126831052,-1.3798788785934448,-1.6694133281707764,-1.6312513949029146,-9.669938513308765,-0.0412520569758955,50,jumping
1783067180960256500,1.4145965,1.5444310434535145,4.16002592228651,1.7840040619432924,1.169887661933899,-1.6851320266723633,-2.286703109741211,-1.2450061983302234,-9.723252170345187,0.2805453178093768,50,jumping
1783067180980180500,1.4345205,3.0260514104679226,9.04486834013462,-1.1527975779712198,1.265133500099182,-2.1100215911865234,-2.45863676071167,-0.7582934524234384,-9.762230428037046,0.5424257557025179,50,jumping
1783067181000104700,1.4544447,3.6666444392055273,12.988805872154234,-3.544512682008743,1.772934079170227,-2.5005135536193848,-2.128703594207764,-0.2749586767834611,-9.764865452715751,0.8615110311180353,50,jumping
1783067181020027600,1.4743676,2.545337978041172,16.463147870349882,-3.790465464663505,2.0384020805358887,-2.5631024837493896,-1.6842100620269775,0.1493357986684423,-9.726462949085237,1.2425859854459762,50,jumping
1783067181039951600,1.4942916,0.6751030549742281,16.194679304504394,-3.1378900294482706,1.6520798206329346,-1.847668170928955,-1.1572009325027466,0.4877307638429105,-9.664196170264482,1.5924332962088286,50,jumping
1783067181059875600,1.5142156,-1.029814976098761,14.177758467090127,-2.3699334803402423,1.0485800504684448,-0.6880924105644226,-1.08739972114563,0.7353280257690697,-9.605281624481082,1.83527773758471,50,jumping
1783067181079799600,1.5341396,-1.2628671414524315,14.139642963707448,-2.8388965614795683,0.8388819098472595,0.0406124554574489,-1.1387317180633545,0.9659861355930566,-9.551155482017991,2.00317069061175,50,jumping
1783067181099723500,1.5540635,0.3062787296060472,12.132764212357998,-3.921932328699529,0.8681125044822693,0.1630293875932693,-0.7928444743156433,1.1499946493797004,-9.49450420499146,2.168479033973068,50,jumping
1783067181119647500,1.5739875,0.5911155888631939,9.869282689523695,-3.5954981883585453,0.6189567446708679,0.0549887306988239,-0.2514138221740722,1.2431420118935406,-9.447603337606788,2.316844864231348,50,jumping
1783067181139571700,1.5939117,-0.115312286440283,7.637579868265986,-3.140423639579117,0.3109087347984314,-0.2675618231296539,0.330997496843338,1.2374443847738206,-9.426347199088337,2.404804302713275,50,jumping
1783067181159495700,1.6138357,-1.10194585406892,6.754200704210996,-2.8400936623096467,-0.1563935726881027,-0.2894741892814636,0.5826404094696045,1.1629979233376682,-9.43376127473712,2.4128781574450437,50,jumping
1783067181179419400,1.6337594,-2.052351924018562,5.5222085934937,-2.202656321123987,-0.6273818612098694,-0.0040401010774075,0.5744870901107788,1.0556157723095267,-9.466056693664193,2.334487488427758,50,jumping
1783067181199343400,1.6536834,-2.135983854690194,5.119272520491481,-2.247478628668934,-0.8555469512939453,0.2702034413814544,0.3808349967002868,0.9602810558192432,-9.510387418299914,2.1910651059210298,50,jumping
1783067181219266600,1.6736066,-1.7192492656990883,4.1109938880920405,-2.6866180878221986,-0.8293720483779907,0.3551349937915802,0.2056148052215576,0.8893590421821922,-9.55181716079712,2.035246183177829,50,jumping
1783067181239190500,1.6935305,-1.693650275670737,3.650197746795416,-2.6327088029801846,-0.7598347067832947,0.566673755645752,-0.0784412249922752,0.8586723736260086,-9.584076339367032,1.891702950770408,50,jumping
1783067181259114500,1.7134545,-1.8328174849510197,3.360115899556875,-2.635604524421692,-0.5446904897689819,0.7831223011016846,-0.3778892755508423,0.8799252242088317,-9.604941432741285,1.7723448960706591,50,jumping
1783067181279038700,1.7333787,-1.457740894255042,2.030449012029171,-2.4471559823609885,-0.2455531060695648,0.9504161477088928,-0.6028732061386108,0.9422390570417046,-9.60944283581376,1.7149791871644555,50,jumping
1783067181298962700,1.7533027,-1.6630680904023347,1.3890297616004943,-1.741088610932976,-0.2244224101305008,0.8180643916130066,-1.0067602396011353,1.061973689968884,-9.600841011685132,1.693054940126091,50,jumping
1783067181318886400,1.7732264,-1.7217729389578105,1.7289374237596988,-0.6913723449908197,-0.4637295603752136,0.5940181016921997,-1.30060875415802,1.2662763653740283,-9.584613514983651,1.6438162774436176,50,jumping
1783067181338810400,1.7931504,0.5655265357069671,1.2586240970551967,-0.9452211415924132,-0.4368278682231903,0.4305634200572967,-0.9585153460502625,1.4767271881453692,-9.567550736501811,1.5657681382536888,50,jumping
1783067181358734600,1.8130746,3.3440520689845084,-1.2403963664472102,-0.9674445177078248,-0.2615767121315002,0.2629840075969696,-0.0580628402531147,1.5673532154880463,-9.56209130205214,1.5100300305493175,50,jumping
1783067181378658600,1.8329986,3.863198107919097,-6.353119319164753,0.3095765290424228,-0.1419019550085067,0.1642919182777404,0.6770026683807373,1.492630567459017,-9.578944237175584,1.4785922513648866,50,jumping
1783067181398582500,1.8529225,2.9269445550277826,-11.192455538856985,1.5077471803091465,-0.0315437763929367,-0.2066251039505005,1.0649875402450562,1.322613754145801,-9.60612275148034,1.4640559226207437,50,jumping
1783067181418506500,1.8728465,2.0721993647828696,-16.60196714297533,2.598579738885164,-0.3327712416648865,-0.3716554045677185,1.214798092842102,1.1138843483395875,-9.63803297048211,1.4275694817446172,50,jumping
1783067181438429700,1.8927697,1.166452520770952,-21.046435445308685,3.347272784596681,-0.8133406043052673,-0.1717743873596191,1.283496975898743,0.874454683843255,-9.67925170057714,1.3106463991068302,50,jumping
1783067181458353400,1.9126934,-0.0504835481770336,-21.071752257394788,1.7127392992831765,-0.9405110478401184,-0.2454798221588134,0.8588107228279114,0.6690855482503771,-9.718280811673402,1.130375099087134,50,jumping
1783067181478277400,1.9326174,-1.2822184692628682,-20.28810947885513,-0.1470564281601458,-0.6695500612258911,-0.097078301012516,0.620006799697876,0.531786032538116,-9.74400737360418,0.9705123808458448,50,jumping
1783067181498201600,1.9525416,-3.0759879922866817,-16.904790398365257,-0.5666905379850417,-0.5099785923957825,0.2640076577663421,0.335409015417099,0.435931712620519,-9.759283268669249,0.8583342277128249,50,jumping
1783067181518125600,1.9724656,-4.219137159685791,-11.354592558705804,-1.2322644979178905,-0.2003802061080932,0.4194793403148651,-0.5600215792655945,0.4401892239345237,-9.765108613821864,0.7869429160635918,50,jumping
1783067181538049500,1.9923895,-3.042009734839201,-4.042356989717483,-1.0022598835665733,0.1399661898612976,0.6901520490646362,-1.7305704355239868,0.6641182812318206,-9.75258289424777,0.7851355743806808,50,jumping
1783067181557973500,2.0123135,0.9082077542327344,0.9746732999175788,-1.517180340695381,0.7027796506881714,0.1541866213083267,-1.448225736618042,0.9917408276397734,-9.717399937185643,0.8711950244601815,50,jumping
1783067181577897500,2.0322375,4.159306960362196,3.534455398374796,-1.3765652706943452,0.5159657597541809,-0.2159835696220398,0.1903849989175796,1.1306817538835108,-9.689499538347125,1.002770755698159,50,jumping
1783067181597821400,2.0521614,3.144197897420824,4.72137385713458,0.3951334364272654,-0.8394178152084351,-0.220597505569458,1.481916904449463,0.9551242575779556,-9.710441788610815,0.9825799083236604,50,jumping
1783067181617745700,2.0720857,0.521198295289278,7.77332689383924,1.4263701889574527,-2.3780739307403564,-0.0333208926022052,1.5359108448028564,0.6474715362049639,-9.763059864598512,0.6586806932877749,50,jumping
1783067181637668600,2.0920086,-1.604154421401769,9.151412652099133,-0.0903612571929581,-2.301276445388794,0.0246920771896839,1.0742130279541016,0.3925388533568009,-9.7972473808825,0.1738587843625806,50,jumping
1783067181657592600,2.1119326,-0.7460369782447814,10.311910721445082,-2.631145206925273,-1.259433031082153,0.1099323481321334,0.775840699672699,0.2188636454002,-9.802693371328711,-0.1723150255193002,50,jumping
1783067181677516500,2.1318565,0.1052672777660191,10.592817913103104,-1.4165098892003296,-0.8807350397109985,0.4405432641506195,0.8391331434249878,0.0668160167900612,-9.799438168925048,-0.3700133524896576,50,jumping
1783067181697440500,2.1517805,0.9351279829274862,10.681606788146496,-0.4647071041952818,-0.8782820701599121,0.5173085927963257,1.0769556760787964,-0.1137671302243601,-9.79111165460646,-0.5399596213173121,50,jumping
1783067181717364500,2.1717045,1.0490857129536568,10.26652142766714,-0.6124579443603754,-0.7891812920570374,0.5732463598251343,1.070689678192139,-0.321248444798775,-9.775710671857,-0.7089920267030596,50,jumping
1783067181737288400,2.1916284,0.9283179375864564,9.525361115548014,-0.853904063245654,-0.4455997049808502,0.8591471314430237,0.9056918025016784,-0.5036462719857693,-9.75774831418693,-0.8384969430163502,50,jumping
1783067181757212700,2.2115527,1.7723247300654648,8.572242644834517,-0.7743961537014693,-0.0132416794076561,1.2635520696640017,0.7721498608589172,-0.6477979186151176,-9.744203772959112,-0.8951105183809995,50,jumping
1783067181777136600,2.2314766,2.1618309742607176,7.868211163148284,-0.8614694569986313,0.558860182762146,1.085787057876587,0.4586288928985595,-0.7498504721183329,-9.739877141931652,-0.8619068985678255,50,jumping
1783067181797060600,2.2514006,1.2836870805107057,7.051340653267502,-0.5283534277409315,1.0682611465454102,0.7273586392402649,0.0047245491296052,-0.7774632131218909,-9.749756146389243,-0.7128903493158519,50,jumping
1783067181816984600,2.2713246,0.5426808629747479,4.495451470595598,1.0189064093977211,0.7268201112747192,0.8467824459075928,-0.2259445190429687,-0.751724376231432,-9.763442726436256,-0.5295913720380514,50,jumping
1783067181836907500,2.2912475,0.2832491516742855,4.614123442727327,2.012634538397193,-0.3023393154144287,1.027868390083313,-0.4035539627075195,-0.6767959034319967,-9.770484461641312,-0.4999482577180489,50,jumping
1783067181856831500,2.3111715,0.2991600201746449,2.561047003826499,1.9441841025054452,-1.376359462738037,1.1891943216323853,-0.2496707737445831,-0.5966396495142952,-9.765050746154785,-0.6769033093292266,50,jumping
1783067181876755500,2.3310955,0.1981341428380459,1.635668772953749,1.7386479397825896,-2.3890717029571533,1.3534278869628906,-0.0920452326536178,-0.5430489656347781,-9.733906835350394,-1.0613883643615991,50,jumping
1783067181896679700,2.3510197,-0.1953065547293052,1.621848337393999,1.5818232009977102,-2.712794780731201,1.2815752029418943,-0.2853993475437164,-0.4791102350138128,-9.666516137644647,-1.580925521505624,50,jumping
1783067181916603600,2.3709436,-0.5719201457342132,1.7857237253427505,1.689717758527398,-2.507797718048096,1.022789716720581,-0.8687589764595032,-0.3312923209618776,-9.57451063864231,-2.095086027112603,50,jumping
1783067181936528000,2.390868,-0.7970959151569753,1.973445268303156,2.3136934144631027,-2.1578757762908936,0.6162726283073425,-1.7745386362075806,-0.0405755002880468,-9.4714857329756,-2.541591192728281,50,jumping
1783067181956451800,2.4107918,1.4184592697024343,-0.0558054738521575,1.026652201218903,-1.5840805768966677,0.3490864038467407,-1.922313928604126,0.3415782257199287,-9.361785587328672,-2.9001150002911684,50,jumping
1783067181976376000,2.430716,3.609953706951439,-6.118240888231992,-0.1717412990182638,-0.9593222737312316,0.1866581439971923,-1.80007803440094,0.7000581941410898,-9.269143543988466,-3.1246257664665578,50,jumping
1783067181996300000,2.45064,4.032164681527019,-7.053007709696889,0.3899976809740066,-0.94802987575531,-0.4802298545837402,-1.7205835580825806,1.0336668292213231,-9.17713570689857,-3.2988027681991454,50,jumping
1783067182016224000,2.470564,5.452485068926215,-10.562976901590824,-0.168553608892858,-0.6630621552467346,-0.8299311995506287,-0.4468923807144165,1.191125262799859,-9.095215548580883,-3.4682390051454304,50,jumping
1783067182036148000,2.490488,3.885136091221869,-15.670012456321716,-0.6684539723485707,-0.2125907838344574,-0.4243871867656708,0.7881596088409424,1.1019859668835996,-9.07166866877675,-3.558209491188824,50,jumping
1783067182056071200,2.5104112,0.1062502243887633,-17.62972847447991,0.100551793551445,-0.0404081642627716,-0.3437727689743042,0.5762190222740173,0.9370230759590864,-9.079237058204413,-3.5860607901886103,50,jumping
1783067182075995000,2.530335,-2.951276447729766,-16.843248426687715,0.719685270152986,0.0874619632959365,-0.5325875282287598,-0.3206278085708618,0.8778976639039814,-9.082214612710477,-3.593475742620229,50,jumping
1783067182095918800,2.5502588,-3.059628685899079,-14.478466922283172,0.5049953485071659,0.8196292519569397,-0.5054621696472168,-0.973965585231781,0.9679941874798388,-9.09843334158361,-3.5287226999416945,50,jumping
1783067182115843000,2.570183,-0.1727652352385222,-10.582428621035811,-0.4656213694959878,1.8007972240447998,-0.6041741371154785,-0.979447305202484,1.117576992312446,-9.166592685574292,-3.300756824876368,50,jumping
1783067182135767000,2.590107,1.9227555300295351,-5.971875438010692,-0.4409636058405041,2.1867237091064453,-0.6595752239227295,-0.3937985002994537,1.2100573422849177,-9.277243848335742,-2.9391999332278966,50,jumping
1783067182155691000,2.610031,2.423661855657399,-2.75069688450098,-0.2020566500440239,2.479626178741455,-0.321239024400711,0.2167519629001617,1.1948746784612536,-9.401073057100175,-2.522394909349084,50,jumping
1783067182175615000,2.629955,2.48469149389863,0.112603465873003,-0.8284826217412948,3.196053266525269,-0.5764132738113403,0.4348631799221039,1.1146914269387722,-9.536181200248002,-1.997273887658119,50,jumping
1783067182195539000,2.649879,1.3087412961378693,-1.5684154378920792,0.2294816864557564,2.905791759490967,-0.988122582435608,0.5918326377868652,0.9826591110397128,-9.65560077587664,-1.4050342632010575,50,jumping
1783067182215463000,2.669803,-1.3557320337630807,-1.089569845163822,2.9973955170869826,1.4252281188964844,-1.0348646640777588,0.334621399641037,0.8599825794417411,-9.71785644878149,-0.9970398838959632,50,jumping
1783067182235387100,2.6897271,-2.320211271924525,5.1954211096704,2.149148456689715,0.38401660323143,-1.458018779754639,-0.2817376852035522,0.8353574759468436,-9.733031806081533,-0.8606189045839011,50,jumping
1783067182255310000,2.70965,-2.1031039138734338,10.844290920484063,-0.5021533300142735,0.503196120262146,-1.2760162353515625,-0.3284422159194946,0.8832581680238246,-9.732782215234636,-0.8143581617336719,50,jumping
1783067182275234000,2.729574,-2.6639959216475484,13.230976798182724,-3.171644999533892,1.2130318880081177,-0.6745252013206482,-0.1899735778570175,0.9102430594526232,-9.74157751610875,-0.6659609134238212,50,jumping
1783067182295158000,2.749498,-3.9032404877111313,13.327732706582545,-3.4931332079052924,1.5825039148330688,-0.0803531780838966,-0.4635291397571563,0.9706429484229534,-9.750497320145367,-0.3950505073841661,50,jumping
1783067182315082000,2.769422,-3.437236548638344,10.89160095319152,-2.7917057712376114,1.6498340368270874,0.1801785975694656,-0.630963146686554,1.0798458120722323,-9.746724815869332,-0.0755001763067441,50,jumping
1783067182335006000,2.789346,-1.7727844565317037,8.702524390739201,-2.555403444981575,1.510442852973938,0.1251025050878524,-0.3948621451854706,1.1862049036629498,-9.73173124487698,0.2381158967503346,50,jumping
1783067182354930000,2.80927,-0.5728113589528948,5.805844333332777,-1.7421125471532344,1.0868301391601562,0.2306083589792251,0.2123109400272369,1.2069755236867814,-9.719317168983816,0.4984743857732042,50,jumping
1783067182374854100,2.8291941,-0.2423071926940232,2.935045736157894,-1.113181095441058,0.3406860828399658,-0.0020905346609652,0.4745731651782989,1.125617748492211,-9.720361709600686,0.6464610439881682,50,jumping
1783067182394778000,2.849118,-1.8523191810175776,4.233348932650685,0.0603518485775217,-0.6825555562973022,-0.2724843919277191,0.0675940960645675,1.071360600060597,-9.728938983809948,0.6085283132938668,50,jumping
1783067182414701800,2.8690418,-1.3918454035431145,5.237606638970971,-0.6317068347096443,-1.1276220083236694,-0.2002054154872894,-0.0895899608731269,1.0847888944976032,-9.737658296838402,0.4142839079033583,50,jumping
1783067182434625800,2.8889658,0.5543849639676511,6.278780409756302,-2.705572963660955,-0.8271747827529907,-0.0923287495970726,0.2591565549373626,1.07696426528655,-9.744987032291291,0.2139568398646079,50,jumping
1783067182454549000,2.908889,1.351912913866341,6.369073259621858,-2.493896544617414,-0.4595750272274017,0.1088704690337181,0.6697974801063538,0.9810870394174008,-9.757019415390491,0.0919135464025661,50,jumping
1783067182474473000,2.928813,0.8593172474008053,6.554789307978749,-1.4620575884103777,-0.2104407101869583,0.0580871850252151,0.5443670749664307,0.8528363609489052,-9.769455118593571,0.0286791098597459,50,jumping
1783067182494397000,2.948737,-0.1092209107626229,5.308468812179565,-0.8589426419347524,-0.1940729320049286,0.2336668074131012,0.2983003556728363,0.7760060000509024,-9.775900056949258,-0.0005758162096037,50,jumping
1783067182514321200,2.9686612,-0.1045027961995452,4.1352538846015925,0.6363982073962688,-0.7124449610710144,0.624504566192627,0.4489524364471435,0.7136773349750787,-9.780331317394973,-0.078399482511403,50,jumping
1783067182534245000,2.988585,0.6374737276732921,1.7606722861945627,-0.0240466460198163,-0.8295446038246155,0.860407829284668,0.6419181823730469,0.5992811769990251,-9.785587338227034,-0.2313847801307216,50,jumping
1783067182554168800,3.0085088,0.2053426129121333,0.4754448443740606,-0.9253905058324337,0.1725001037120819,1.1323251724243164,0.2551446855068207,0.5091769085081294,-9.788739664778111,-0.3028347996972501,50,jumping
1783067182574092800,3.0284328,0.4439284104628488,-3.2878836070388555,-1.2466922517210244,1.8688642978668213,0.7685770392417908,-0.6272496581077576,0.548318540068157,-9.79089187437594,-0.0904694850740954,50,jumping
1783067182594017000,3.048357,0.5032259276818484,-7.220562078419327,0.7406207984149455,2.365985870361328,0.2545759379863739,-0.9211660623550416,0.7185651800818741,-9.773930218181013,0.3526318999800831,50,jumping
1783067182613941000,3.068281,-0.3407940165396779,-12.287260362064838,4.804695114421844,1.2061607837677002,0.2815869152545929,-0.2181653678417205,0.8274155039664357,-9.744783034151792,0.7245644204966724,50,jumping
1783067182633864000,3.088204,-1.401658064766228,-12.812282599556443,4.839602761673927,-0.0103762838989496,0.3779807388782501,-0.2436529248952865,0.8545828392900526,-9.734362762424349,0.8259760457478463,50,jumping
1783067182653788200,3.1081282,0.0007978723794221,-14.663510185945032,0.7167792465131729,0.2658794522285461,0.2055392116308212,-0.4276279509067535,0.9181267253745348,-9.727717917582392,0.8360096562452614,50,jumping
1783067182673712000,3.128052,1.718928509312123,-16.102600740265846,-3.482821072727442,1.2435590028762815,-0.081142671406269,-0.3741946816444397,1.0007348659563808,-9.705395026615262,0.9870159910749644,50,jumping
1783067182693635800,3.1479758,1.7821990583479403,-17.167349447906016,-3.683098145878315,1.1988906860351562,0.083779364824295,0.1251302659511566,1.0338309337418523,-9.672699794715642,1.2411619439922272,50,jumping
1783067182713559800,3.1678998,0.6270109319783747,-17.22547430461645,-2.6903613660037515,0.3719192147254944,-0.1972789466381073,0.5494247078895569,0.948373833469674,-9.660512513315677,1.3947984081298113,50,jumping
1783067182733484000,3.187824,-2.082811944212019,-13.40081197131872,-3.685260876870155,-0.0943551883101463,-0.7330429553985596,-0.3299896121025085,0.9316499315533786,-9.660737554243209,1.4044843742333353,50,jumping
1783067182753408000,3.207748,-3.5293355711430308,-8.519661978247761,-4.604804994761944,0.0675538182258606,-0.6607837080955505,-1.3971999883651731,1.1182247886966914,-9.644248191735148,1.38146122604236,50,jumping
1783067182773332000,3.227672,-1.0460638809144496,0.9608785833209752,-4.647326624149084,0.3941047489643097,-1.293217658996582,-1.721806526184082,1.461009102270752,-9.594669045051932,1.4064749635286629,50,jumping
1783067182793256000,3.247596,2.315749616340548,5.914869940719008,-3.31810748038888,0.1016224846243858,-1.494930386543274,-0.5423270463943481,1.7392801002062857,-9.5465757530123,1.4171110699638725,50,jumping
1783067182813180000,3.26752,1.1849667401701212,6.9302207034617656,0.0723078419722616,-0.9988104104995728,-1.324785232543945,0.5471623539924622,1.7600510855562983,-9.560701308998466,1.2905913069412112,50,jumping
1783067182833104000,3.287444,0.4966287944391369,8.537647716793417,1.638984181112051,-2.1102383136749268,-1.4014962911605835,0.967766284942627,1.6491742973454295,-9.621173021095991,0.940019408230856,50,jumping
1783067182853026800,3.3073668,2.23981174730286,6.373284155315161,2.300015309983492,-2.519853115081787,-1.373847484588623,1.5084362030029297,1.423915489281714,-9.69269511951804,0.4410459503617137,50,jumping
1783067182872951000,3.327291,3.220542301432788,5.044954653871059,3.428367598006129,-1.8527772426605225,-0.8874484300613403,1.7660454511642456,1.1125136445082724,-9.74327672124207,-0.0356342696097563,50,jumping
1783067182892875000,3.347215,0.4745773408245295,1.637114880108833,2.3463947838425634,-0.91508150100708,-1.2674099206924438,1.134026288986206,0.7959954796344041,-9.769618200200796,-0.3021955154130235,50,jumping
1783067182912799000,3.367139,-5.979571837732196,7.809670126852392,4.083512591448426,-1.3941125869750977,-1.0695159435272217,-0.6539519429206848,0.7476423676148056,-9.763339266061784,-0.5372510564783588,50,jumping
1783067182932722700,3.3870627,-4.182187485212087,8.856692623665928,1.2552443914890288,-1.330727219581604,-0.5560986995697021,-1.0751792192459106,0.9286170666635036,-9.726986096176503,-0.8329668544832617,50,jumping
1783067182952646700,3.4069867,0.454665602652356,9.504358075007795,-2.9325252777695656,-0.2897548079490661,-0.4943056404590606,-0.5054622292518616,1.0767257803555577,-9.695595517134668,-1.0032428301893177,50,jumping
1783067182972571000,3.426911,1.1302256076138466,10.991372994542122,-2.533243051099777,0.2421228140592575,-0.574794590473175,0.0388846434652805,1.1080535963594913,-9.691920043492315,-1.0046385953966528,50,jumping
1783067182992494800,3.4468348,-0.1312294750835746,10.773010814124346,-1.5257038388907909,0.1775114387273788,-0.7574365735054016,0.2803391516208648,1.0591323290631174,-9.700408470374343,-0.975039722077176,50,jumping
1783067183012418800,3.4667588,-1.1595876765027642,8.75840351434946,-0.86353523042202,-0.0418169312179088,-0.6566327810287476,0.5299384593963623,0.9699969786696137,-9.70964976145029,-0.975810487253964,50,jumping
1783067183032341800,3.4866818,-0.482732005707547,7.081274603760242,-0.6475187363475561,-0.1663053780794143,-0.4399068355560303,0.9784667491912842,0.8140295873664319,-9.720582658874989,-1.0089691719468683,50,jumping
1783067183052266000,3.506606,0.5693589534766972,6.79048606955707,-0.8029401842057704,0.0282540414482355,-0.583023726940155,1.149569392204285,0.5889856276297941,-9.73400795763731,-1.0356570531904696,50,jumping
1783067183072189700,3.5265297,0.7896779670506715,7.537230319288373,-0.6624030017465352,0.4779892861843109,-1.0191911458969116,0.9665095806121826,0.3685171956477686,-9.749173378065228,-0.9940854910697788,50,jumping
1783067183092113700,3.5464537,1.247976446312666,5.825096730813383,0.9093827893614768,0.3750731348991394,-0.9621806740760804,1.2039700746536257,0.1457482681710273,-9.764455702871084,-0.8969626490537077,50,jumping
1783067183112038000,3.566378,1.0224961775179953,2.796585944494605,4.182999970638752,-1.2026042938232422,-0.5042783617973328,1.7294241189956665,-0.15235347512234,-9.757875739958882,-0.9648936641812323,50,jumping
1783067183131961900,3.5863019,0.5358654473388568,0.8427338499337435,3.852861422821879,-2.34785532951355,-0.8163374066352844,1.6392648220062256,-0.510277490161173,-9.703374918964505,-1.3245847619578242,50,jumping
1783067183151885800,3.6062258,-1.5436377011187374,-0.1085486375242471,2.5307173320144414,-2.734623432159424,-1.0058677196502686,0.6294447183609009,-0.7664676987897604,-9.609066988238691,-1.8024311145156624,50,jumping
1783067183171809800,3.6261498,-1.3930837131664155,0.4956739779323339,1.9140411854371424,-2.7677929401397705,-0.3897991180419922,0.0397532954812049,-0.8408561464283615,-9.489044770541788,-2.328388294769824,50,jumping
1783067183191733800,3.6460738,3.3558716861158606,-3.791337571322918,-3.915604586982727,-1.045982837677002,0.1483875215053558,0.7453517317771912,-0.9067528792493044,-9.378566626259683,-2.718578575706482,50,jumping
1783067183211657700,3.6659977,1.1459459585107865,-8.394424071729183,-5.305319408237934,1.2950091361999512,0.2325271070003509,1.0776361227035522,-1.0801054128564893,-9.37145007225275,-2.679492473725974,50,jumping
1783067183231580700,3.6859207,-3.636652913306653,-12.035189973312615,-0.7305430565148592,1.6435842514038086,0.6565532088279724,0.940844714641571,-1.2518579639211296,-9.429725151088832,-2.38401388201043,50,jumping
1783067183251505000,3.705845,-6.090541564923525,-15.645860011839863,3.276384892424941,0.909576654434204,1.333665370941162,0.7950672507286072,-1.3679953030087053,-9.464076918023824,-2.1749026372797786,50,jumping
1783067183271428900,3.7257689,-6.352995400524139,-16.261162824237346,0.6075199034363031,1.3331217765808103,1.264931559562683,0.2852759659290313,-1.4179847840584814,-9.491468198296428,-2.017854318872094,50,jumping
1783067183291352800,3.7456928,-5.1890486520290375,-16.139810234719516,-0.8824199636340141,2.0742478370666504,1.0967127084732056,-0.0215862896293401,-1.3935096834935248,-9.553714518851042,-1.7190296315990388,50,jumping
1783067183311276800,3.7656168,-2.833009257006645,-15.306761327975988,-0.3647457508176565,2.209463119506836,0.9776552319526672,0.2332614958286285,-1.3750997281864286,-9.617925417476892,-1.3322943134218457,50,jumping
1783067183331200800,3.7855408,-1.9133974807061251,-12.41131694984436,0.469435447891429,2.378427028656006,0.4372440278530121,0.0184144284576177,-1.3944913880072534,-9.663670100563763,-0.9161035489838568,50,jumping
1783067183351124700,3.8054647,-1.4905328645274043,-7.766147795990109,1.8514613951444625,2.338465929031372,-0.3203505277633667,-0.3017191588878631,-1.356172617137432,-9.701946931988,-0.4510031346220522,50,jumping
1783067183371049000,3.825389,0.7409503226302564,-4.3215304894506925,2.585302324160933,1.7720425128936768,-0.9179757833480836,0.2674488723278045,-1.34204428467229,-9.714326521089673,-0.0339813353205565,50,jumping
1783067183390973000,3.845313,2.6198174649640915,-3.7655928892135617,1.8783026403188705,1.554103136062622,-1.218844652175903,1.360336422920227,-1.4943931932173669,-9.687128133040666,0.3110447749640792,50,jumping
1783067183410896000,3.865236,2.6266367895901204,-6.078969785073399,2.9419980395138263,0.7289984226226807,-1.106230854988098,2.2574617862701416,-1.8441817595303056,-9.61382499642074,0.5863069830050691,50,jumping
1783067183430819800,3.8851598,-1.4952597469188271,-3.20909707057178,4.21049354224205,-0.7738440632820129,-1.265905261039734,1.47257661819458,-2.214556163884699,-9.532695696219802,0.6275897547796369,50,jumping
1783067183450743800,3.9050838,-4.298261842066049,3.4240549955040214,2.8061984069705006,-1.2874377965927124,-0.7444605827331543,-0.1427599489688873,-2.3254465422295034,-9.51595089764595,0.4575470763728022,50,jumping
1783067183470667800,3.9250078,-0.8109440424412488,9.881817176926136,-1.463011528134346,-0.1934654712677002,-0.1422329246997833,-1.2394474744796753,-2.1788152806788683,-9.556355973270534,0.3149921974156052,50,jumping
1783067183490591700,3.9449317,4.151697069880366,14.950962853723764,-3.876774797850847,1.4406462907791138,-0.1692419797182083,-1.35348379611969,-1.9149141688793896,-9.607553661066293,0.4454351617639884,50,jumping
1783067183510515700,3.9648557,6.301638722774386,15.47496217790842,-3.494026357352733,1.8864353895187376,-0.5968859791755676,-0.68036949634552,-1.7097094300679865,-9.622934770071506,0.8039913006938993,50,jumping
1783067183530440000,3.98478,5.214620315659046,13.52811616271734,-1.989378312102705,0.7854535579681396,-0.9531527161598206,-0.064014196395874,-1.6263101391084491,-9.607759412771465,1.10292522049509,50,jumping
1783067183550364000,4.004704,3.774517953947186,11.111627851951122,-1.820865181350708,-0.5589793920516968,-1.099219799041748,0.3065800368785858,-1.6288644997663797,-9.601783845493197,1.1501898796908556,50,jumping
1783067183570287600,4.0246276,3.125935387760401,8.954755523011087,-3.5366520316362378,-1.0465487241744995,-1.1683028936386108,0.6763131022453308,-1.6974949684001504,-9.604332360932233,1.022590723933652,50,jumping
1783067183590211800,4.0445518,2.091788446871936,6.7390960740596055,-4.172994124931097,-0.9328262209892272,-0.8822360038757324,0.7090172171592712,-1.8231892403841017,-9.597025837311149,0.8622623609419912,50,jumping
1783067183610134800,4.0644748,0.5773755250632763,6.291164675033092,-4.548959773421287,-0.5337012410163879,-0.9058340191841124,0.0730338543653488,-1.8867048502221704,-9.59381739665866,0.7545992010153829,50,jumping
1783067183630058800,4.0843988,-0.042934301841259,4.532478009697795,-3.355101870787144,-0.4560540318489074,-0.7746198177337646,-0.5265321135520935,-1.8281340033099052,-9.609232407933472,0.7006799793012439,50,jumping
1783067183649982700,4.1043227,0.5454338880099355,4.302431236705184,-1.75933490011096,-0.7926254272460938,-0.5893572568893433,-0.7881450057029724,-1.6865704004123805,-9.6415021078974,0.606078143662773,50,jumping
1783067183669907000,4.124247,1.8841937441840768,4.975916773480177,-1.5052584322333336,-0.950633943080902,-0.6285442113876343,-0.6435829997062683,-1.5386806632332504,-9.674538700580596,0.4540546311471611,50,jumping
1783067183689830700,4.1441707,2.095470788646489,4.512594913098216,-1.3640601555168628,-1.0936006307601929,-0.6524548530578613,-0.4450753331184387,-1.430780406615138,-9.697686936455964,0.2794869678628631,50,jumping
1783067183709754600,4.1640946,0.4591315690852701,3.2810838638961317,0.3887210851669311,-1.5191744565963743,-0.2405624985694885,-0.4404838681221008,-1.3473803850032389,-9.713555536717177,0.0423850658940849,50,jumping
1783067183729678800,4.1840188,-0.5863261626295745,3.2055934463649987,0.93641984936893,-1.7792675495147705,-0.0466266423463821,-0.67104172706604,-1.2411981843493878,-9.723809219706055,-0.2781638660329394,50,jumping
1783067183749602800,4.2039428,-0.3181494924027472,2.396101356297731,0.9707944126576185,-1.8561187982559204,0.1810300797224044,-0.588914155960083,-1.112385999540612,-9.722807349187136,-0.6324640828177333,50,jumping
1783067183769526800,4.2238668,-0.5703367124676704,1.326405255383253,1.0282652624387294,-1.8870490789413448,0.6090291738510132,-0.3246653974056244,-1.017767176234722,-9.701770990899204,-1.0050711415950209,50,jumping
1783067183789449700,4.2437897,-1.3716425734698772,0.002094341930747,0.0486802981473505,-1.654147028923035,0.5945136547088623,-0.7170053720474243,-0.9184111683391034,-9.667486443981527,-1.3662392531216143,50,jumping
1783067183809374000,4.263714,-2.8354391145020723,-0.1461053379803895,-0.958617068129778,-0.9819664359092712,0.6432037949562073,-1.4576412439346311,-0.6837379045896231,-9.645281041914224,-1.6344529674232005,50,jumping
1783067183829297700,4.2836377,-2.2782607204236087,-2.555406952112913,-1.7209850034505128,0.0585569217801094,0.6728456020355225,-1.5198055505752563,-0.3617955227099358,-9.645294485917686,-1.73429661270529,50,jumping
1783067183849221600,4.3035616,-0.6904639979742467,-6.502673336294293,-1.929560679999739,1.0133548974990845,0.8416942954063416,-0.6478797197341919,-0.1163820893625728,-9.669711134293674,-1.6289713211417198,50,jumping
1783067183869145900,4.3234859,0.1547471653258428,-11.381690993511675,-0.4158827944673597,1.814554572105408,0.9864552021026612,0.678928792476654,-0.0930964543105103,-9.711525492194294,-1.3594177365384996,50,jumping
1783067183889069800,4.3434098,-3.763969671925902,-17.430131784808633,0.3805523917585611,2.285904884338379,0.4643067121505737,1.1536519527435305,-0.2760960285166278,-9.757224582573771,-0.9437881131146104,50,jumping
1783067183908993800,4.3633338,-8.630158242708443,-19.12850923513174,1.95310858271718,0.6664987206459045,0.0621474385261535,0.6920216679573059,-0.452994089243561,-9.776237326079606,-0.6247755010765046,50,jumping
1783067183928917800,4.3832578,-9.74698375906646,-17.41264522795677,3.3861896674901244,-1.5916582345962524,0.6421449780464172,0.3708772361278534,-0.5492802977724001,-9.763490072709322,-0.7368559659887105,50,jumping
1783067183948841500,4.4031815,-4.692438270029426,-11.466287677562237,-5.192148371610045,-1.4659292697906494,0.0490363650023937,-0.0652787759900093,-0.5719621217124163,-9.729580788844824,-1.085598091988638,50,jumping
1783067183968764400,4.4231044,-1.6118391306854785,-5.7063674755364655,-9.83305869897604,0.5733602643013,0.2258319705724716,-0.2851794958114624,-0.5339641802947968,-9.72082114380598,-1.1793714774463324,50,jumping
1783067183988688600,4.4430286,-0.6119944915670901,-1.5832938580721616,-7.485388488370179,2.2093491554260254,0.2408173829317093,-0.6311323642730713,-0.4392096383126452,-9.755794257509708,-0.8955144960720092,50,jumping
1783067184008612600,4.4629526,1.5472352872192858,1.8918349065870048,-2.999839987629652,2.156788825988769,-0.6340759992599487,-0.229976549744606,-0.3347218570191413,-9.791354815712571,-0.4332958111589774,50,jumping
1783067184028536600,4.4828766,4.621454224006832,2.0984780076384544,0.315555311191082,-0.0290485117584466,-0.6332613229751587,1.6313579082489014,-0.458984927156195,-9.79389105619192,-0.1985388329151086,50,jumping
1783067184048460500,4.5028005,4.966415370163321,-0.4218354192614555,1.8632295743495224,-2.515098810195923,-0.0278877094388008,3.409130573272705,-0.9731863492954522,-9.747685185334086,-0.4537932767972349,50,jumping
1783067184068384800,4.5227248,2.012394738291949,0.9060884239912032,1.2333137147098778,-3.590903759002685,0.2129699140787124,3.1452105045318604,-1.6406947844222186,-9.608412323722243,-1.0755955342166126,50,jumping
1783067184088308500,4.5426485,1.804579524721205,1.028722285491228,-0.7176227846652269,-2.3943684101104736,0.3368721604347229,1.8148635625839236,-2.103854586110264,-9.42937677604258,-1.6825643796414136,50,jumping
1783067184108232400,4.5625724,2.7015119978323576,-0.093587799757719,-0.7105750581108033,-0.9101022481918336,0.7268863320350647,0.673863410949707,-2.3124540819264947,-9.31756942898333,-2.001456726300716,50,jumping
1783067184128156700,4.5824967,3.5140415558993814,2.953770310372114,1.0990164495535195,-0.1742383539676666,0.8604694604873657,-0.3157158493995666,-2.310805584067106,-9.288677681019902,-2.133311420610547,50,jumping
1783067184148079600,4.6024196,4.40501482834518,6.90956779153347,0.9164394298747182,0.215097039937973,0.9349471926689148,-0.7387006282806396,-2.1588051966987547,-9.318285468298196,-2.16322023666203,50,jumping
1783067184168003600,4.6223436,5.889893320372701,7.74475429482758,-0.176580555742979,0.1737439632415771,1.13514506816864,-0.4311482310295105,-1.9994654063530264,-9.35350817284882,-2.164350409735739,50,jumping
1783067184187927600,4.6422676,5.623223912903666,8.306986611294747,-0.8315167287401855,-0.0046641742810606,1.1855319738388062,-0.013282592408359,-1.9087696747750045,-9.365223160561918,-2.195352573981881,50,jumping
1783067184207851800,4.6621918,4.3723897390723225,7.745250553911924,-0.8749591262340545,-0.1866373419761657,1.1592299938201904,0.2337437719106674,-1.880624507395178,-9.3568475464046,-2.254561426536738,50,jumping
1783067184227775500,4.6821155,2.718385683482885,6.083311029148102,-0.0571368685863912,-0.4702683389186859,1.0522456169128418,0.165784940123558,-1.873232497447729,-9.333139923080802,-2.356667317662388,50,jumping
1783067184247699500,4.7020395,1.5160684339307249,5.714679961329698,0.7242550622865557,-0.7988333106040955,1.057018160820007,-0.167105570435524,-1.8225261003002524,-9.30253961763382,-2.512274789611995,50,jumping
1783067184267623700,4.7219637,1.583022932176292,5.465643241184949,1.0423626883089545,-0.7272663116455078,1.322209715843201,-0.3461548089981079,-1.7120105466172095,-9.269131853550672,-2.706033274649084,50,jumping
1783067184287547600,4.7418876,2.325352288074791,5.796960185131431,0.3545049273103475,-0.2404122054576873,1.1519941091537476,-0.6319872736930847,-1.55531732525751,-9.25762904728353,-2.8368428438201545,50,jumping
1783067184307471600,4.7618116,1.578288451000303,6.218665840533375,1.8073709090054035,-0.0228675827383995,1.121589422225952,-1.1141290664672852,-1.3309374919854104,-9.276659910967943,-2.8883529585659504,50,jumping
1783067184327394600,4.7817346,0.8414747897833585,6.493378269204497,2.5964307441577312,0.0464732535183429,1.047210454940796,-1.4946722984313965,-1.0222370881903915,-9.308360286611318,-2.912015865965188,50,jumping
1783067184347318500,4.8016585,0.7002026441130786,6.061341773924231,2.659558231461048,0.0014067135052755,0.9322238564491272,-1.6085364818572998,-0.6740162095855922,-9.3369089202255,-2.922022880716621,50,jumping
1783067184367242500,4.8215825,0.040998036549054,5.742855085456371,3.643715399038792,-0.0681850910186767,1.0735015869140625,-1.709639310836792,-0.3088494203442707,-9.35076793422997,-2.9390716306731104,50,jumping
1783067184387166500,4.8415065,-0.0775976646092254,5.075124751207232,3.74373030923456,0.2788922488689422,1.4443466663360596,-1.9186930656433103,0.101090722733736,-9.357602164164184,-2.931796378973126,50,jumping
1783067184407090700,4.8614307,-0.2923607519559562,2.897904046243429,2.864043277695775,0.985148012638092,1.4622704982757568,-2.224764347076416,0.5738290846280754,-9.380354678720236,-2.8017940345317123,50,jumping
1783067184427014700,4.8813547,-0.3805461812134832,-0.2435083121120929,2.736804552748799,1.414316177368164,1.5631526708602903,-2.186173915863037,1.0775582125917076,-9.40721930477023,-2.5521517497092483,50,jumping
1783067184446938600,4.9012786,0.5126153219915927,-6.3049880332022905,1.5328537106454372,1.8766206502914429,1.6338945627212524,-1.4235132932662964,1.4992621144279836,-9.439730996796488,-2.194102281659841,50,jumping
1783067184466862600,4.9212026,0.152465082270652,-11.9687497081995,1.3963568896181882,1.4473035335540771,1.6363623142242432,-0.2325228601694107,1.7274318415023386,-9.481052018222211,-1.815491817749292,50,jumping
1783067184486786600,4.9411266,-3.263244255822897,-16.1389778755486,3.022047727784514,0.7447242140769958,1.832743763923645,0.697104811668396,1.724819905438274,-9.527910800030828,-1.553803559693694,50,jumping
1783067184506709500,4.9610495,-7.298163789016008,-16.014869849842785,2.0316868832610546,0.6764692068099976,1.52192223072052,0.4535957276821136,1.6547309085592627,-9.568373158800602,-1.37058794985041,50,jumping
1783067184526633500,4.9809735,-9.253707489925622,-15.974906088244914,1.4371820903509855,0.7872682213783264,1.4990774393081665,0.1936172544956207,1.638051576437056,-9.596664018261432,-1.1795059905461966,50,jumping
1783067184546557700,5.0008977,-7.445867209842801,-15.902698930168151,1.6223950114913284,0.6684810519218445,1.2967766523361206,0.6740277409553528,1.5944382062904536,-9.625474517682196,-0.9891286723800002,50,jumping
1783067184566481700,5.0208217,-4.890040571013093,-12.321976286137104,1.4869979683995247,0.5592263340950012,0.7258357405662537,1.235887885093689,1.4289226499192416,-9.665323712989688,-0.8426585196752101,50,jumping
1783067184586405600,5.0407456,-2.6476883454471825,-8.503070324409007,0.4919325263816863,0.6506273746490479,0.1222900077700614,1.8837058544158936,1.139939776898548,-9.71381038826108,-0.7160894376181066,50,jumping
1783067184606329600,5.0606696,-1.0280009854793548,-6.463108218625187,0.0769224961608648,0.9703949689865112,-0.3462145328521728,2.649898052215576,0.6902688407283276,-9.765838681662082,-0.5677336538298056,50,jumping
1783067184626253600,5.0805936,-1.943735481955111,-3.8872961918652056,-0.6875684226632118,1.6786755323410034,-1.1792329549789429,2.462044715881348,0.1703802763307467,-9.800056008562445,-0.3166494631033391,50,jumping
1783067184646177500,5.1005175,-1.6839760000050068,-1.836012481600046,0.2853133176624775,2.0457875728607178,-1.5624817609786987,2.31946349143982,-0.2849557546627708,-9.802352595067024,0.0555606596450787,50,jumping
1783067184666101800,5.1204418,0.1210403817635029,-0.3524251984268426,0.8867840771276503,1.866269946098328,-1.9803194999694824,2.3910818099975586,-0.7417373082894831,-9.767417475286123,0.4666886334013193,50,jumping
1783067184686024700,5.1403647,2.070969238466024,3.018040245708823,1.8098761698246,1.0488412380218506,-2.1385438442230225,2.660983085632324,-1.194541793245077,-9.701005267223715,0.7962124833859503,50,jumping
1783067184705948700,5.1602887,3.879826586636901,3.346798737344145,2.5084639991521835,0.0396143347024917,-2.2028393745422363,3.1487135887146,-1.7199574139684437,-9.60658861542642,0.9620805795218796,50,jumping
1783067184725872600,5.1802126,3.567105622088909,4.297461047077179,1.5980113886021077,-0.6165199875831604,-2.3307905197143555,2.9768331050872803,-2.2721412146300075,-9.48808849273026,0.9919158188804984,50,jumping
1783067184745796600,5.2001366,2.075997003500164,5.70919422339499,0.1300011753976345,-0.606717586517334,-1.9511451721191408,1.9714174270629885,-2.70073370693624,-9.376960944628715,0.974174702745676,50,jumping
1783067184765720600,5.2200606,2.026432177603245,6.547339576494694,-1.5951709044791758,-0.0838770270347595,-1.4112200736999512,1.0058099031448364,-2.9390713384121656,-9.3021666926682,1.0009602722100912,50,jumping
1783067184785644500,5.2399845,4.326510323689877,7.528497562256455,-2.651817992597818,0.3966573178768158,-1.202927589416504,0.5401241183280945,-3.0481559825092552,-9.254716374707222,1.108755095692351,50,jumping
1783067184805568800,5.2599088,5.526527041214704,7.759424040693045,-2.8762615387558936,0.4577119350433349,-1.0786904096603394,0.2849377989768982,-3.094317429703474,-9.21898864324391,1.267208385527134,50,jumping
1783067184825492700,5.2798327,5.408277093887329,7.609191393649578,-2.17367894070372,0.0578528828918933,-0.8290632963180542,0.1297511309385299,-3.1064018352508542,-9.199091518118976,1.377457981750369,50,jumping
1783067184845415700,5.2997557,5.348890838938951,7.264998016995191,-2.287422370392084,-0.3367968499660492,-0.5691816210746765,0.2063611596822738,-3.113753951579332,-9.19457433295548,1.3909429017454384,50,jumping
1783067184865339400,5.3196794,5.568120449841022,6.510821571436524,-3.53165086234808,-0.4505915641784668,-0.4378081262111664,0.4304564893245697,-3.157159378063678,-9.186341926661132,1.346791917590797,50,jumping
1783067184885263600,5.3396036,4.623078318077326,5.9355012253373856,-3.6058220139741897,-0.527782142162323,-0.2002448290586471,0.5771496295928955,-3.243120336204767,-9.166026868385076,1.2792564045868813,50,jumping
1783067184905187600,5.3595276,3.6260292279616,5.180880543142557,-3.4429379751503464,-0.6611632704734802,0.062838464975357,0.5587605834007263,-3.3480022679150103,-9.142087189871072,1.1762280648540704,50,jumping
1783067184925111600,5.3794516,2.7359534888774157,4.520433936160803,-3.15325827897191,-0.6795926094055176,0.3050250709056854,0.3138676583766937,-3.4349107360392805,-9.126728292697669,1.0366346660509704,50,jumping
1783067184945035000,5.399375,2.286995961673558,4.002450511264801,-3.3360838665843007,-0.5184266567230225,0.4235153794288635,-0.0901892259716987,-3.462548976810276,-9.130531192111969,0.9025275897044688,50,jumping
1783067184964959200,5.4192992,1.8620523472636936,3.137079882109165,-2.6830980970025062,-0.497378796339035,0.7127389311790466,-0.3923907279968261,-3.42516704839915,-9.156252493345736,0.7756673426810652,50,jumping
1783067184984883000,5.439223,1.8015373805463315,1.859362377527356,-2.240623209816217,-0.643320620059967,1.0454071760177612,-0.4530718624591827,-3.357917804990709,-9.1934000284791,0.6133144150592387,50,jumping
1783067185004807000,5.459147,0.8828969334959983,0.5934978078246116,-1.6209329761147495,-0.9309413433074952,1.3770325183868408,-0.5549324154853821,-3.279043882501125,-9.233871739599108,0.3922584655128419,50,jumping
1783067185024729900,5.4790699,-0.5362941576123237,-0.0732902771383523,-0.6452279950618743,-1.3568938970565796,1.5693053007125854,-0.8927913308143616,-3.1576597288012502,-9.28399799877107,0.0834883118167053,50,jumping
1783067185044654000,5.498994,-0.9273343333765864,0.8829360964626073,-1.2571125234484672,-1.1737589836120603,1.431174397468567,-1.261379361152649,-2.9503748227149247,-9.348683529171348,-0.260362452811934,50,jumping
1783067185064578000,5.518918,0.2891659014374017,-2.1852298238962886,-3.7300972129404544,0.0184136070311069,1.2524189949035645,-1.1869155168533323,-2.7085066790252923,-9.414378528875112,-0.4515258067892864,50,jumping
1783067185084502000,5.538842,-0.913845321728289,-5.578965668982267,-4.132546379208565,1.089730978012085,0.9490667581558228,-1.2951042652130127,-2.4708079299747943,-9.482059733960032,-0.3950385246854275,50,jumping
1783067185104426200,5.5587662,-3.273519858382642,-7.529135860159993,-1.43066467128098,1.7840460538864136,0.6955258250236511,-1.4221385717391968,-2.207256946787238,-9.55364379170239,-0.1622276207417249,50,jumping
1783067185124350000,5.57869,-4.839583472451567,-10.572221699798106,-0.8665688990294933,2.528650045394897,-0.2837986350059509,-1.6660202741622925,-1.9117659339815376,-9.615388592475652,0.2446755475268699,50,jumping
1783067185144274000,5.598614,-5.946712939703464,-13.150421498477458,1.871824968737364,1.8309619426727293,-0.836450457572937,-1.442906141281128,-1.5884382352232933,-9.650460490378736,0.7182519494142383,50,jumping
1783067185164198100,5.6185381,-5.122303266489506,-15.909268956208228,5.509256757462024,-0.701049268245697,-0.4585852324962616,0.0098518095910549,-1.4273353807277978,-9.663800448945164,0.8626116127710789,50,jumping
1783067185184122000,5.638462,-5.621516524463892,-16.278094085294008,4.520204803580046,-2.6441047191619877,-0.1773174107074737,1.021008014678955,-1.5431323819451033,-9.670563367208835,0.5189909945033491,50,jumping
1783067185204045000,5.658385,-8.791036202406882,-13.781380145168304,0.4757388588845729,-2.7918388843536377,-0.3679851591587066,0.5086653828620911,-1.7127752473793922,-9.655908818912506,-0.0145558325956342,50,jumping
1783067185223969000,5.678309,-9.285316680154205,-9.201519622048735,-1.0032383001446723,-2.160470962524414,-0.1230418607592582,-0.4239310324192047,-1.710503356924653,-9.644138886141777,-0.484907778844051,50,jumping
1783067185243893200,5.6982332,-3.3852044558450576,-8.054782367029786,-3.044578124022484,-1.708033800125122,-0.0041451635770499,-0.3264712393283844,-1.6236152009360492,-9.634028411015867,-0.8483936292611062,50,jumping
1783067185263817000,5.718157,1.2702668963149188,-6.467661644145846,-1.7388481385298071,-1.4804461002349854,0.2644522786140442,0.536489725112915,-1.6368791716568172,-9.599826281684637,-1.1551433373797684,50,jumping
1783067185283741000,5.738081,4.89618038894236,-2.946286676618457,-1.7458474958978591,-1.7538444995880127,-0.2727788984775543,1.3340435028076172,-1.817386545454711,-9.526455925047395,-1.4540031690314412,50,jumping
1783067185303665200,5.7580052,5.312391538581252,0.4593324984848499,0.283468712709099,-2.561570882797241,-0.5677818059921265,1.6992757320404053,-2.1313953578561544,-9.393893959251043,-1.8391012413956225,50,jumping
1783067185323589000,5.777929,4.269644234868884,5.309059179288148,1.507585560006648,-3.1422159671783447,-0.5332455635070801,1.132129788398743,-2.4229662746086715,-9.206519622293117,-2.3536367177948354,50,jumping
1783067185343513000,5.797853,4.858799045053124,8.947146801573037,0.5898015836551785,-2.7145533561706543,-0.6078842878341675,0.6976116299629211,-2.612289407546818,-9.005654520121217,-2.871326128180325,50,jumping
1783067185363436000,5.817776,5.786138346865773,8.222700892889499,-0.6687070703268051,-1.7275034189224243,-0.4274646043777466,0.8363099098205566,-2.7827620018035173,-8.829780066820978,-3.2344401861429213,50,jumping
1783067185383360300,5.8377003,3.641904257963597,9.595675591745971,1.1042635564267635,-0.98958557844162,0.0653150677680969,0.461130142211914,-2.9148151412948966,-8.700842721262573,-3.459709077209234,50,jumping
1783067185403284000,5.857624,3.284704684741795,9.339647405278685,2.00383689943552,-0.492794930934906,0.1555912494659423,-0.0478322431445121,-2.9363483431890605,-8.639493057286739,-3.592689268417656,50,jumping
1783067185423208000,5.877548,4.161662875838577,8.666700213164091,2.185195337104797,-0.2170473337173462,-0.2245761305093765,-0.3606694638729095,-2.899170412917435,-8.627195885771512,-3.6519428368970743,50,jumping
1783067185443132200,5.8974722,4.489710588856041,7.657350736662745,1.9022548860535025,-0.1535890102386474,-0.1747433245182037,-0.1285020112991333,-2.8685364974617955,-8.632538415843248,-3.663489190044999,50,jumping
1783067185463056100,5.9173961,4.610060431072116,6.306348215639591,2.0203689320415257,-0.4124775230884552,0.2945120930671692,0.4840892851352691,-2.891622189494967,-8.603734930685162,-3.71276993830353,50,jumping
1783067185482980000,5.93732,3.893894274955988,5.111270415821672,1.4016037042304872,-0.4707771241664886,0.5727716684341431,0.7904763221740723,-2.97646583404392,-8.526897774720192,-3.821392810107768,50,jumping
1783067185502904000,5.957244,1.807399550577998,5.243422047251463,0.9374570834621786,-0.2313875555992126,0.4789142906665802,0.2199742496013641,-3.02919029301554,-8.466016897299886,-3.914197935055196,50,jumping
1783067185522827300,5.9771673,0.850353385026753,5.4995887654066085,1.1872060435295104,0.0337730534374713,0.5175080895423889,-0.3384487628936767,-2.97820011049062,-8.463161507868767,-3.959242360918224,50,jumping
1783067185542751000,5.997091,1.5847092778280376,4.875425185683369,1.4680425080388784,0.305292934179306,0.8171204924583435,-0.4060632288455963,-2.8572274602010843,-8.500246499159932,-3.968935487414896,50,jumping
1783067185562675000,6.017015,1.9395397838309405,4.659685754984617,1.539775034341216,0.5150961875915527,1.0095038414001465,-0.4983998537063598,-2.709874167986214,-8.556997729429602,-3.95028719330728,50,jumping
1783067185582599200,6.0369392,1.0638958902031184,4.234143297898769,2.501956224693358,0.6063446998596191,1.139844298362732,-0.6537184119224548,-2.525854986675084,-8.632740075895189,-3.907202669340372,50,jumping
1783067185602523100,6.0568631,0.5761306395687162,3.3226082989394663,4.175027676585317,0.3533158004283905,1.3689954280853271,-0.5878489017486572,-2.317014521709829,-8.703725583222507,-3.8790442040875552,50,jumping
1783067185622447000,6.076787,1.1488437257789077,2.7075948248773813,5.093087108877301,-0.1429651230573654,1.3707314729690552,-0.3519598841667175,-2.1276232919715343,-8.732304027453065,-3.9230703928187487,50,jumping
1783067185642371000,6.096711,1.02581867300421,2.3511726657688614,4.981529352664947,-0.3261980414390564,1.1111605167388916,-0.2461336851119995,-1.9790100628234444,-8.723040524545311,-4.0202565093293785,50,jumping
1783067185662295000,6.116635,1.3577296373210848,1.3911112440496682,5.112549349716305,-0.276158332824707,1.0437602996826172,0.2252334058284759,-1.8810124837994573,-8.70090818771422,-4.114167257431149,50,jumping
1783067185682219000,6.136559,2.591047005292773,-1.301248602294922,3.2175013263016936,-0.0994982868432998,0.5989992618560791,0.962642252445221,-1.917976917450875,-8.661024505615234,-4.180718581703305,50,jumping
1783067185702142000,6.156482,1.6196910132296385,-4.076279717585444,0.9641764558225868,-0.1275547444820404,-0.11774942278862,1.3382766246795654,-2.0973342444308103,-8.60700357709229,-4.206075141277909,50,jumping
1783067185722066200,6.1764062,-0.9449654132656752,-7.322917706522345,0.2865367219775915,-0.1802320778369903,-0.3263506293296814,1.9235416650772093,-2.389708586520701,-8.522208155599236,-4.222753596617281,50,jumping
1783067185741990100,6.1963301,-3.583122106388211,-10.727105972039698,-2.3252020659491417,-0.1267069578170776,-0.7918686270713806,2.1464684009552,-2.7968264752522107,-8.399272680804133,-4.219048604619503,50,jumping
1783067185761914000,6.216254,-8.276781442645191,-10.91263789600134,-3.90646091106236,-0.2887678444385528,-0.8219209909439087,1.1867315769195557,-3.155830759808421,-8.281827035596967,-4.197911708566546,50,jumping
1783067185781837800,6.2361778,-10.360837541699407,-11.086356632572413,-5.212217930692434,-0.4148192107677459,-0.4283226728439331,0.2857014536857605,-3.321126828210056,-8.20567143215537,-4.219889147096872,50,jumping
1783067185801762000,6.256102,-8.934120146739483,-11.148920348513126,-8.625220786306262,-0.1683644950389862,-0.0245314612984657,0.3090910315513611,-3.377014427387714,-8.158071476590633,-4.267554861374199,50,jumping
1783067185821686000,6.276026,-8.530587276887893,-11.689322525966167,-12.286575302410125,1.240756869316101,-0.0480407141149044,0.5476160645484924,-3.4483518168926235,-8.16833626549542,-4.1901714697033166,50,jumping
1783067185841610000,6.29595,-9.991932917636632,-9.579075170078871,-11.220405037534237,2.3059027194976807,0.1379069089889526,0.2810082733631134,-3.5176486404806373,-8.290047751453518,-3.882219034731388,50,jumping
1783067185861533200,6.3158732,-9.59353448806405,-7.099134670099616,-6.017769758701324,2.450990676879883,0.5617244243621826,0.0075821718201041,-3.5150188764989374,-8.45629279114306,-3.5080104590415955,50,jumping
1783067185881457200,6.3357972,-6.095957744753361,-2.6040473566412925,-2.933472787752748,2.675243139266968,-0.1722705215215683,-0.6603370904922485,-3.448826448667049,-8.642266029131411,-3.096323801089823,50,jumping
1783067185901381000,6.355721,-2.529058166630566,1.522400705692172,0.769876411254704,2.74003267288208,-0.5341793894767761,-1.030397653579712,-3.307556275758147,-8.861526035171746,-2.589170397765934,50,jumping
1783067185921304800,6.3756448,2.076094618655741,2.8871850838303565,3.669849957248568,1.989680528640747,-0.8204069137573242,-0.6273238658905029,-3.185208245462179,-9.030705959269405,-2.114516849900037,50,jumping
1783067185941229800,6.3955698,3.926030119407177,4.255702218756079,4.901883569020033,1.2378798723220823,-1.116488695144653,0.069051057100296,-3.176345432309806,-9.10829890203774,-1.7663770737074314,50,jumping
1783067185961154000,6.415494,4.781009995190799,5.640417624288797,4.469961640030145,0.7147820591926575,-1.4469225406646729,0.2165769785642624,-3.2472245566532014,-9.129816906362771,-1.5074363607943058,50,jumping
1783067185981078000,6.435418,4.348603205293417,4.498140271288157,4.661522322762012,0.1069684997200965,-1.183080554008484,0.5130955576896667,-3.350520095954835,-9.1190979439497,-1.3365749133504927,50,jumping
1783067186001001700,6.4553417,3.0989617483779788,3.377071126011014,4.062139548552036,-0.7230290174484253,-0.6073845028877258,0.6239360570907593,-3.482632564418018,-9.069435210636255,-1.336789871275425,50,jumping
1783067186020925000,6.475265,3.666380235311389,4.381133602020144,1.4013403771191837,-0.6916975378990173,-0.4730401933193207,0.0623390637338161,-3.5655244903773067,-9.019749680969118,-1.4496733231335877,50,jumping
1783067186040849000,6.495189,6.056186875379085,3.124437258157134,-0.869512551265955,0.2723986506462097,-0.7408348321914673,-0.7129353880882263,-3.522822243726253,-9.036768620309234,-1.4480749480262398,50,jumping
1783067186060772900,6.5151129,5.440225891333818,4.456335265737772,-0.6880499225698411,0.8954029679298401,-0.8593586683273315,-1.281705021858215,-3.356671604321897,-9.126374072432515,-1.269808046631515,50,jumping
1783067186080696800,6.5350368,5.657761557799577,4.213929946431517,-0.1421194832146167,0.5749284625053406,-0.6929917335510254,-1.116019606590271,-3.148189305144548,-9.225143658742308,-1.0751822041753678,50,jumping
1783067186100621000,6.554961,5.347428949692845,4.94416788251996,0.0905693287193775,0.0693562403321266,-0.5193031430244446,-0.6730536222457886,-2.9933301673442125,-9.287100056439638,-0.9798655347984284,50,jumping
1783067186120545000,6.574885,5.212160647547245,6.512555263361334,-1.074318938409537,-0.3925653100013733,-0.1514141112565994,-0.1908633857965469,-2.9174674093693493,-9.310477424895764,-0.9867894888427108,50,jumping
1783067186140468700,6.5948087,5.33339633268714,6.072561087074876,-1.2060480335783212,-0.6993369460105896,0.7304640412330627,0.6230245232582092,-2.952961332076788,-9.285429492878912,-1.1095938115388155,50,jumping
1783067186160393000,6.614733,4.681353396913409,6.168493988654017,-2.3131163452275096,-0.5561962127685547,1.3276575803756714,1.3636711835861206,-3.1116552257344123,-9.208831406366825,-1.2982375839106737,50,jumping
1783067186180316000,6.634656,3.083819124303758,5.642931652936339,-2.8576936164081097,-0.0191996693611145,1.5298219919204712,1.4917495250701904,-3.3428415241509675,-9.105395581811663,-1.4448361122354865,50,jumping
1783067186200239900,6.6545799,2.1017709117040035,5.117923443970084,-1.7594985662400722,0.1263436824083328,2.234909772872925,1.5554544925689695,-3.5589416048556566,-9.005957302460073,-1.5482408110000192,50,jumping
1783067186220163800,6.6745038,2.555614457383752,3.884648892226815,-0.9599595687799156,-0.5649862885475159,3.271780252456665,1.8084583282470703,-3.7682770137310015,-8.876109856319427,-1.7846935055121778,50,jumping
1783067186240088000,6.694428,1.6376587777271865,3.920404096218944,-0.4787694587521254,-1.274986982345581,3.95667576789856,1.902240753173828,-3.9495594635546207,-8.694591259652375,-2.2305688487917186,50,jumping
1783067186260012000,6.714352,1.4183341820180415,3.051220630776882,-0.3768994222089648,-1.5515800714492798,4.162557125091553,1.7089262008666992,-4.057342669664323,-8.473488256093859,-2.8121766045972705,50,jumping
1783067186279935700,6.7342757,1.1178685956701635,1.3786433921426533,-0.9385779041856528,-1.333263635635376,3.833065509796143,1.3255012035369873,-4.058097871945798,-8.26287099071443,-3.380412545393407,50,jumping
1783067186299860000,6.7542,2.236687331672013,-0.7775853781968355,-2.981866816304624,-1.168567776679993,2.4424116611480717,1.212846040725708,-4.028746982038021,-8.071234320136904,-3.846396026200056,50,jumping
1783067186319784000,6.774124,0.5520373779281974,-3.60638023237884,-4.313799602937698,-0.4869903922080993,1.146756649017334,0.8801625370979309,-4.065827004893124,-7.916162416368722,-4.119925090305507,50,jumping
1783067186339707000,6.794047,-4.175803337132931,-5.702145473927259,-2.958333965025842,-0.0513366721570491,1.5364896059036257,1.0849415063858032,-4.101699405524134,-7.825392596641183,-4.255545274628698,50,jumping
1783067186359630800,6.8139708,-3.7250443134650575,-8.819567884886265,-4.508683292612433,-0.1389722526073455,1.3952990770339966,2.162940263748169,-4.216522593273222,-7.68695618585348,-4.393407684920728,50,jumping
1783067186379555000,6.833895,-5.436503655940294,-8.436835811001062,-6.494869384545088,-0.4863222241401672,0.6812511086463928,2.5390045642852783,-4.498834683293104,-7.444801626437902,-4.5283340417608615,50,jumping
1783067186399479000,6.853819,-7.885238285794854,-4.333306851962209,-4.9350271292090415,-0.1662275493144989,1.442584991455078,2.7462387084960938,-4.782033785280585,-7.175769581490755,-4.670210656130314,50,jumping
1783067186419402800,6.8737428,-7.097680964159965,-4.781197334456444,-2.865098047445714,-0.3928647041320801,1.5660909414291382,2.822711944580078,-5.032241887292265,-6.871831058335304,-4.860541797067225,50,jumping
1783067186439327000,6.893667,-6.393572325584292,-0.5975356850385666,-2.4283190338134766,-0.4926997721195221,1.6537517309188845,1.897283911705017,-5.186582554176449,-6.5868649466753,-5.087529474750161,50,jumping
1783067186459251000,6.913591,-3.8682448699146503,0.5661866070508956,-0.2685404620379209,-0.776746392250061,0.9813663959503174,0.9201026558876038,-5.226578464478254,-6.374219974860549,-5.312492660868168,50,jumping
1783067186479175000,6.933515,-1.5713801329165695,1.2604957361459732,-0.2680886266171932,-0.7420075535774231,1.0056145191192627,0.5884162187576294,-5.2176779496639965,-6.217989548707008,-5.502984837585688,50,jumping
1783067186499097900,6.9534379,-0.4238981970101594,0.0885620805501937,0.7442460031747817,-0.3359923064708709,1.974797010421753,0.5764026641845703,-5.128704365703463,-6.093968032240867,-5.721043066620826,50,jumping
1783067186519022000,6.973362,-0.0376478858709335,1.1621540198594331,1.924468179166317,-0.1636198014020919,2.890005111694336,0.1158187836408615,-4.887374566674232,-6.031062370994687,-5.992516074979305,50,jumping
1783067186538945800,6.9932858,-0.1215229776486754,1.1488333505153656,2.632340554189682,-0.4707923531532287,2.98645544052124,-0.0293439012020826,-4.51006013392359,-5.9976902627468105,-6.313276553598046,50,jumping
1783067186558869800,7.0132098,0.802491563655436,1.1555062524080275,-1.1791671139806508,-1.1022151708602903,0.706794798374176,-0.1781253814697265,-4.243258916768432,-5.900813358315825,-6.58373249386847,50,jumping
1783067186578794000,7.033134,1.6879475339844825,0.503189760389924,0.09711071318686,-0.6819182634353638,0.2678097188472748,-0.3376329839229584,-4.189738631244004,-5.794973979750275,-6.710793524160981,50,jumping
1783067186598718000,7.053058,1.8056939157038927,0.6824532716065644,3.662360478276014,-0.1774050742387771,1.4393905401229858,-0.4723657965660095,-4.021527552178502,-5.776566216400266,-6.828542536228895,50,jumping
1783067186618642000,7.072982,0.9253510506048798,1.8841244783401487,1.2165110484689474,-0.2422880977392196,0.8993170261383057,-0.6143448948860168,-3.7743013885870575,-5.7914615877151485,-6.955861340674757,50,jumping
1783067186638566100,7.0929061,1.1524351743996142,2.035697434076667,-1.452310101377964,0.4033111333847046,0.0001983192050829,-0.8668142557144165,-3.645547290641069,-5.844572415655851,-6.980067561170459,50,jumping
1783067186658489000,7.112829,1.7560805744901298,0.8969178600639104,0.2532318337470293,1.3398654460906982,0.5514634847640991,-0.762669026851654,-3.513125317837298,-6.033078386992216,-6.886966083624959,50,jumping
1783067186678412800,7.1327528,1.8509113600462677,0.0956768809914588,1.5926380250006913,1.4197719097137451,0.8413637280464172,-0.6034793853759766,-3.324692119476199,-6.274363177835941,-6.763814335730672,50,jumping
1783067186698336800,7.1526768,1.8845093860045077,-0.031031682601571,1.3636837234199046,1.1331901550292969,0.4876836240291595,-0.5209968090057373,-3.1633123477354643,-6.481196833023429,-6.645142948120832,50,jumping
1783067186718261000,7.172601,1.988260267858207,-0.3354951064139604,1.255703241172433,1.038728952407837,0.197123572230339,-0.2048843204975128,-3.069092679814994,-6.644950055897236,-6.526538196006417,50,jumping
1783067186738185000,7.192525,1.4197516476005314,-0.6878355491667986,0.7707458875656128,0.9813756346702576,0.0856017023324966,0.0809912681579589,-3.046462330333888,-6.780128341671824,-6.39682051372528,50,jumping
1783067186758109000,7.212449,0.5438330286845564,-0.7685679590046406,1.427626326498389,0.5819008350372314,0.3571747541427612,0.2681538760662079,-3.04741948492825,-6.872526639384031,-6.296983590444922,50,jumping
1783067186778033000,7.232373,-0.4058461152300238,-0.9697054483771324,1.577308353921771,-0.0872270241379737,0.6984323859214783,0.4581247568130493,-3.0275887030377984,-6.881929258501529,-6.296279826089739,50,jumping
1783067186797956900,7.2522969,-1.2871575331002474,-1.151076161006093,0.0852022487282753,-0.7658880352973938,0.5545533299446106,0.4660946428775787,-3.007740970012545,-6.798571176335215,-6.395569636881351,50,jumping
1783067186817879800,7.2722198,-1.68281338596642,-0.8325900570601225,-0.8095230697274207,-1.0725966691970823,0.0921249091625213,0.3183192014694214,-3.023139322413504,-6.650785922443866,-6.542022180864215,50,jumping
1783067186837803800,7.2921438,-1.6507564519703388,-0.4906178635865449,-0.5959095451414584,-0.8016143441200256,0.283625841140747,0.1840601861476898,-3.0376889490306374,-6.507035038635134,-6.678423286432027,50,jumping
1783067186857728000,7.312068,-1.7280241083070635,0.5437696080595255,-0.2201905648887157,-0.264814019203186,0.7175840735435486,0.0935002788901329,-2.9867575109556315,-6.426622362270951,-6.778509800559282,50,jumping
1783067186877652000,7.331992,-1.1868389637827872,1.1881424475967883,-0.3812216693222522,0.2222210466861724,0.924507975578308,-0.066019631922245,-2.874624877464771,-6.4247103911697865,-6.828617355030775,50,jumping
1783067186897576000,7.351916,-0.1293812899336218,0.4701829783231019,-0.303652691951394,0.5658522844314575,0.5878875851631165,-0.0903632938861846,-2.7542849721208214,-6.484717408365011,-6.821491448673606,50,jumping
1783067186917500000,7.37184,1.1886720244288445,0.0317979907989501,-0.1854676265537738,0.6755587458610535,0.1615500599145889,-0.0980599001049995,-2.696270882308483,-6.577545329666138,-6.755472623842954,50,jumping
1783067186937427700,7.3917677,1.3191726737812162,-0.3906915084570646,0.7119219426751137,0.4538649916648865,0.2436664402484893,0.042397454380989,-2.6665093657732006,-6.6581368697285646,-6.687998339506984,50,jumping
1783067186957350700,7.4116907,1.240132454814017,-0.3157318368017673,0.7121054825484753,0.1377834379673004,0.120718203485012,0.1813333928585052,-2.6525615044415,-6.68985127389729,-6.661845661118626,50,jumping
1783067186977274600,7.4316146,1.01590605853796,-0.3742641052693128,0.1665145042806863,-0.0145424287766218,-0.1359739601612091,0.1469824910163879,-2.681073020915687,-6.687133831632137,-6.653154989662766,50,jumping
1783067186997198600,7.4515386,0.0762342216357588,0.0219254160821437,0.2794868034660816,-0.1801180839538574,-0.0806875452399253,-0.0478688664734363,-2.7061151077136394,-6.672269439977407,-6.657938716807961,50,jumping
1783067187017122800,7.4714628,-0.1427279705017805,0.3143640555799007,0.2147334685266017,-0.2904540300369262,0.3473444879055023,-0.1416938155889511,-2.6759955715209243,-6.644633245033026,-6.697633013814687,50,jumping
1783067187037046800,7.4913868,0.1485565305247903,0.1647492481738328,-0.1950467712819576,-0.1543635129928589,0.4962548613548279,-0.1255544871091842,-2.594682439185678,-6.620265111973882,-6.753524996906519,50,jumping
1783067187056970500,7.5113105,0.6100903384461999,0.164243636739254,-0.7155529926538468,0.1505181491374969,0.2062195986509323,-0.1142619997262954,-2.5300904322877527,-6.624846594545245,-6.773509800314903,50,jumping
1783067187076894700,7.5312347,0.8898775861635804,0.095260701406002,-0.473041874885559,0.4140723645687103,0.0133354263380169,-0.0860087350010871,-2.5068615323916075,-6.6692895473837845,-6.738443163108825,50,jumping
1783067187096818700,7.5511587,0.6440054675295949,0.056983285459876,0.3942003933608531,0.5071394443511963,0.2820380628108978,-0.0268191117793321,-2.482153792114556,-6.7366562796920535,-6.680326489704847,50,jumping
1783067187116741600,7.5710816,0.5215475471183657,-0.1320633686244487,0.6337561684548855,0.4146540462970733,0.5592626929283142,0.1024135649204254,-2.42778098141402,-6.796456960660219,-6.639611032956839,50,jumping
1783067187136665600,7.5910056,0.5879990642778575,-0.2079015766799449,0.3894879778861999,0.3923156857490539,0.2404481917619705,0.1031192690134048,-2.3852961769059298,-6.84362086289525,-6.606481501293182,50,jumping
1783067187156589800,7.6109298,0.7935274820856749,-0.2332037757188081,0.4885866500198841,0.4147698283195495,0.0743244737386703,0.1224475353956222,-2.3847737604670227,-6.892090002509951,-6.5560922072708605,50,jumping
1783067187176513800,7.6308538,0.6172500009424984,-0.2572159349471331,1.099059558042884,0.2731167674064636,0.241896703839302,0.3085465431213379,-2.3935977029137314,-6.9291294010937206,-6.513695665568113,50,jumping
1783067187196437500,7.6507775,-0.0885267169758677,-0.3251958307176828,0.9520043719917536,0.0915189012885093,0.3786302506923675,0.3163749575614929,-2.3956068507790564,-6.936267582410574,-6.505355122724176,50,jumping
1783067187216361700,7.6707017,-0.1831805385299026,-0.1856821460872888,0.3033388036966323,0.0306434091180562,0.2503618896007538,0.2515610456466675,-2.39432718623206,-6.928688087067008,-6.513897910141944,50,jumping
1783067187236285700,7.6906257,-0.3632932139217853,-0.0367214186757802,0.376598685696721,0.0498120486736297,0.2238031178712844,0.1540421545505523,-2.393330722540617,-6.924868821039795,-6.518324494412541,50,jumping
1783067187256209700,7.7105497,-0.5354653055727482,0.1726303568124771,0.5924614505141973,-0.0202799048274755,0.3447743356227875,0.0688423663377761,-2.373040798705816,-6.922184112000465,-6.528585191664099,50,jumping
1783067187276132600,7.7304726,-0.3198328423798084,0.4074327998995781,0.7822358343511819,-0.0745194926857948,0.4465751945972442,0.0431546606123447,-2.3265081801116465,-6.912627763625979,-6.555404225006699,50,jumping
1783067187296056800,7.7503968,0.3853350959904492,0.47524084623456,0.4835480713307857,-0.0795584544539451,0.2654149830341339,0.0772594958543777,-2.286031938946992,-6.900679551678896,-6.5821782501637935,50,jumping
1783067187315980800,7.7703208,0.2962606820039451,0.1992126587897539,0.4784183072268962,-0.1709752976894378,0.2686998844146728,0.1701598763465881,-2.2699806755952534,-6.8805316666632885,-6.608771658056974,50,jumping
1783067187335904500,7.7902445,-0.0372289298065006,0.0761380677849054,0.5999181962609291,-0.3027276396751404,0.3222352266311645,0.1859877407550811,-2.2546206093780694,-6.839159207311273,-6.656799483644962,50,jumping
1783067187355828700,7.8101687,0.0231697170548141,0.0054132572203874,0.2698112126260996,-0.2438485920429229,-0.0815031379461288,0.0584493912756443,-2.2527700130753217,-6.794172064593434,-6.703330348673463,50,jumping
