time,seconds_elapsed,acc_x,acc_y,acc_z,gyr_x,gyr_y,gyr_z,grav_x,grav_y,grav_z,fs_hz,activity
1783067231274225700,0.0,-4.02641766230762,-6.854984552952647,-11.420070700788497,2.069780111312866,-1.5900168418884275,-0.3816598057746887,-1.0724836127411574,-7.567835885432362,-6.143941731199622,50,jumping
1783067231294149600,0.0199239,-1.9161919337302444,-6.086296182438731,-8.385741583579778,2.671656370162964,-1.856499433517456,-0.3887501358985901,-1.2121319566018878,-7.859179715430736,-5.738851695033907,50,jumping
1783067231314072600,0.0398469,-2.9033731253042814,-1.2674182288855314,-4.422432996135949,2.6145801544189453,-2.4423511028289795,-0.6115671992301941,-1.3738679944343863,-8.166334278023243,-5.252984240844845,50,jumping
1783067231333996800,0.0597711,-1.5798935481093823,4.082258791995049,-0.1271978084146976,2.03336763381958,-2.8334829807281494,-1.1571890115737915,-1.496805076664686,-8.426986617159843,-4.78705102892071,50,jumping
1783067231353920800,0.0796951,2.2074122834794223,3.6020430799573657,3.491110177645087,1.14090895652771,-2.849243402481079,-0.853775680065155,-1.5687589906327426,-8.607420925721526,-4.429637520687282,50,jumping
1783067231373843700,0.099618,3.92856051466763,3.7294682673871513,5.130758375623822,0.5579412579536438,-2.926095724105835,0.2823120951652527,-1.76749394890815,-8.686063085281848,-4.195073854792118,50,jumping
1783067231393768000,0.1195423,4.288220340523123,5.513750561749935,5.147475117146969,0.3987589478492737,-3.016777992248535,1.021259903907776,-2.1334388463824987,-8.695195070764422,-4.001549763032794,50,jumping
1783067231413691000,0.1394653,2.4271885684788224,6.842346020653843,4.439066151028872,0.0046920818276703,-2.438596248626709,0.6743687987327576,-2.515624392300844,-8.6712168138057,-3.827796247409284,50,jumping
1783067231433614800,0.1593891,1.1971700959220528,7.060780681785941,4.032640774606168,-1.0363709926605225,-1.729748010635376,-0.3320013582706451,-2.7052175743520257,-8.623894506138562,-3.805340962234139,50,jumping
1783067231453538600,0.1793129,3.5042683499038216,7.003982689765095,2.976291938781738,-1.6525084972381592,-1.472495675086975,-0.7499623894691467,-2.7183716549575325,-8.547793847754598,-3.964349328668416,50,jumping
1783067231473461500,0.1992358,6.219001940619945,6.461293278157711,0.84594813580513,-1.2540735006332395,-1.9004852771759035,-0.3292101621627807,-2.7577345280528065,-8.455363985860346,-4.131840276765823,50,jumping
1783067231493385700,0.21916,4.7129023813873525,6.34987931433022,-0.0260696762800216,-0.2236922085285186,-2.224379539489746,-0.0531748384237289,-2.90453223221153,-8.400065292486548,-4.144031942079961,50,jumping
1783067231513308700,0.239083,3.6575069007650014,6.093541331261396,-0.88514120529145,0.8610187768936157,-2.407110929489136,-0.3475619256496429,-3.0628467711627483,-8.437464172032476,-3.949499842321873,50,jumping
1783067231533232600,0.2590069,2.6514626032888886,5.99976122380197,-0.4415016582399606,1.740370273590088,-2.3642468452453613,-0.7018234133720398,-3.1534964716419576,-8.568739020627737,-3.578063653954864,50,jumping
1783067231553156600,0.2789309,2.128789559271932,6.1676452628701925,-0.2461392451375722,2.2295291423797607,-2.7217392921447754,-1.1033633947372437,-3.1648803277045485,-8.759518197593092,-3.069979691782593,50,jumping
1783067231573079800,0.2988541,3.163533004748821,5.7015539377748965,-0.1068134842947125,2.224823474884033,-2.90503191947937,-1.3286750316619873,-3.1033783957764505,-8.963053980278968,-2.490595749506354,50,jumping
1783067231593003800,0.3187781,2.71165345261842,4.357373956248164,0.7222185880228876,1.929245352745056,-2.22413182258606,-0.9996212720870972,-3.004793226122856,-9.127968648147585,-1.954932875534892,50,jumping
1783067231612926700,0.338701,2.260973923927545,3.6405274166524406,1.8233512990780172,1.6502516269683838,-1.0508288145065308,-0.7312999963760376,-2.9066598918899893,-9.239815742695331,-1.532156376031041,50,jumping
1783067231632850700,0.358625,2.0225158809423447,3.75509604511857,1.4167746776163577,1.3928874731063845,-0.6838113069534302,-0.5002537965774536,-2.8140988048315045,-9.31652781097591,-1.2056359456460923,50,jumping
1783067231652775000,0.3785493,0.9852224587216972,3.840336287769675,1.5335504607379435,1.01081383228302,-0.7194830775260925,-0.4996196329593658,-2.742416255150735,-9.368248061341047,-0.9409854767840355,50,jumping
1783067231672697900,0.3984722,-0.1974956257387995,3.590343874335289,2.287584867477417,0.5228135585784912,-0.5675908923149109,-0.689053475856781,-2.6423268184140323,-9.413341587042808,-0.759934351498261,50,jumping
1783067231692621800,0.4183961,-0.6229761235043406,2.7310633787482974,2.363538810867071,-0.1548421382904052,-0.7050836086273193,-0.8785366415977478,-2.5041505198672414,-9.456226789045331,-0.692386198208481,50,jumping
1783067231712544800,0.4383191,-1.490514452087879,1.5903098743140696,3.640415772971511,-0.7888455390930176,-0.2228808104991912,-1.0885902643203735,-2.325394081389904,-9.496711944168805,-0.7585454544231295,50,jumping
1783067231732468500,0.4582428,-2.481030633303523,-0.2982826893508434,3.429011156606674,-1.171491265296936,0.2207791954278946,-1.260614275932312,-2.104314458706974,-9.53096258881688,-0.9502644695218652,50,jumping
1783067231752392700,0.478167,-3.1182752283960578,-1.123893555048108,2.541745506507158,-1.1756433248519895,0.0818625837564468,-1.5479419231414795,-1.8332330800145864,-9.560081715795397,-1.1893210629221052,50,jumping
1783067231772315600,0.4980899,-2.6638787250086664,-2.620634918826818,1.384937669981271,-0.6082139015197754,-0.4435093998908996,-1.638114094734192,-1.5283682357944548,-9.590690204548835,-1.3612946363262832,50,jumping
1783067231792239600,0.5180139,-2.643068868952989,-7.09129330894947,1.3983173760361969,0.1366907507181167,-0.7745203375816345,-1.3205641508102417,-1.2609757747478785,-9.625769701236486,-1.3873939770922064,50,jumping
1783067231812162600,0.5379369,-3.9107191530287264,-8.844263934725522,3.210563635993004,0.9009628295898438,-1.2330398559570312,-0.9869003891944884,-1.0620379143115133,-9.665908819401263,-1.2699136989630757,50,jumping
1783067231832086800,0.5578611,-4.532074689593911,-12.685906628918646,2.3752393316634,1.7737010717391968,-2.330413579940796,-0.6267579197883606,-0.945559360570833,-9.71244669869244,-0.9719378105390816,50,jumping
1783067231852010800,0.5777851,-4.933618431454897,-17.674671193534135,3.782314306911826,1.713998317718506,-2.7857120037078857,-0.0634554252028465,-0.9155657157801091,-9.747468327713012,-0.5648063682062551,50,jumping
1783067231871933700,0.597708,-4.206405980667472,-19.64684688029289,5.593807848805189,0.5434837937355042,-2.282859563827514,0.7100370526313782,-1.002030020333454,-9.751106976476311,-0.286760447730869,50,jumping
1783067231891857700,0.617632,-2.6765935374140737,-18.409512239503854,1.7238620201915502,-0.1036742031574249,-2.7225403785705566,1.048152208328247,-1.1873491783272474,-9.73223510274589,-0.2102773111016489,50,jumping
1783067231911780900,0.6375552,-4.287474198330939,-14.890148027276991,-1.0546557681709527,0.279474526643753,-3.041855335235596,0.8153908848762512,-1.3923201814480126,-9.706533090734482,-0.1226927155477926,50,jumping
1783067231931704800,0.6574791,-4.093217992904783,-7.173580547013878,-2.584517311263084,0.7800136208534241,-3.116964101791382,0.0185822155326604,-1.4765928942412136,-9.69461644296944,0.0667151182654313,50,jumping
1783067231951628800,0.6774031,-0.2052314806878566,-2.397913958677649,-2.673303848218917,0.9171820878982544,-3.0482945442199707,-0.2640228867530823,-1.4238731114447116,-9.696994278016684,0.3335700566355138,50,jumping
1783067231971551700,0.697326,2.499150227361917,0.730119862666726,-2.765369552975893,0.6117156744003296,-2.556772470474243,0.2534383535385132,-1.39153253820166,-9.69116776382029,0.5615068882694467,50,jumping
1783067231991475500,0.7172498,2.4412648784957827,3.3133646697759627,-3.0746529442906376,0.5313190221786499,-1.9520844221115112,0.6335119605064392,-1.4570980663068591,-9.670417821258306,0.7281858989294618,50,jumping
1783067232011398700,0.737173,1.0863505908563733,3.997544619044661,-3.03067234826684,0.3295377194881439,-1.919135928153992,0.5104541778564453,-1.546037309606373,-9.644119596919415,0.8781351989869027,50,jumping
1783067232031322400,0.7570967,-0.44213703353405,4.564209365001321,-2.6178502565443518,-0.3530536890029907,-1.673358917236328,0.0105375908315181,-1.5645030867539345,-9.635876084709167,0.9341275006480516,50,jumping
1783067232051246600,0.7770209,0.6896709479004144,5.348461215350032,-3.939890302455425,-0.790420651435852,-1.1461330652236938,-0.2661480605602264,-1.5083379858091472,-9.65188789283335,0.8581039991535245,50,jumping
1783067232071169500,0.7969438,2.842261069476604,6.160905725482106,-4.910702835291624,-0.6537847518920898,-0.6033312082290649,-0.1305233985185623,-1.4513795425295828,-9.670656890711188,0.7364118754830211,50,jumping
1783067232091093500,0.8168678,3.827816121153533,5.897791964668035,-5.335618684911728,-0.2480568438768386,-0.3179103136062622,0.060071337968111,-1.4413956163927912,-9.677189507350326,0.6669257398679852,50,jumping
1783067232111016400,0.8367907,2.6368980713635684,6.26955256268382,-4.315308838456869,-0.5064636468887329,0.1146333813667297,-0.0090254405513405,-1.4514691205091774,-9.67934580860138,0.6114792720539495,50,jumping
1783067232130940700,0.856715,2.482144147503376,6.961856197175383,-3.966732716673613,-1.038461685180664,0.5143767595291138,-0.2212982922792434,-1.4315385315060614,-9.691246674275398,0.4481544671926647,50,jumping
1783067232150864600,0.8766389,3.330572409686446,7.840012658146024,-4.649707966327667,-0.9765973091125488,0.8007315397262573,-0.215798869729042,-1.3896229051880538,-9.705094582363962,0.2246248575417324,50,jumping
1783067232170787600,0.8965619,3.937703606066108,8.577193545240164,-4.180030599439144,-0.3091129958629608,1.259670376777649,-8.95067350938e-05,-1.3690243537954985,-9.710399118512868,0.0655956081496318,50,jumping
1783067232190711600,0.9164859,3.439867773924768,9.153292474496364,-2.963384526413679,0.6039005517959595,1.2969006299972534,-0.0462314188480377,-1.3736714489489792,-9.709794138357042,0.0574222750987624,50,jumping
1783067232210634800,0.9364091,2.2175870560131967,9.26329715604782,-0.4986439336538315,1.2835851907730105,1.2162444591522217,-0.4254959225654602,-1.3344259186230598,-9.713107792949677,0.2126859431459568,50,jumping
1783067232230558700,0.956333,2.105421104774624,8.747638959228992,1.235320378357172,1.4636353254318235,1.3331900835037231,-0.801427960395813,-1.2186685187637805,-9.71998293941617,0.4551355217190459,50,jumping
1783067232250482400,0.9762567,2.841078873954713,7.999916804376244,2.175922481846809,0.8758591413497925,1.53114914894104,-0.6777995824813843,-1.0834355801925062,-9.724040105852485,0.6630024289444089,50,jumping
1783067232270405600,0.9961799,2.7218220876723525,7.668058008638024,1.6716694761395454,-0.3315160870552063,1.724668264389038,-0.2286521941423416,-1.0153549274612217,-9.730064188447594,0.682130469392985,50,jumping
1783067232290329600,1.0161039,1.5527955516949294,7.022597373864055,0.8023965788483619,-1.095515251159668,2.055948495864868,0.2392833977937698,-1.042082336997613,-9.73866951970756,0.492716370235756,50,jumping
1783067232310252500,1.0360268,-0.2480725512877106,5.854288923028111,-0.3297030059438198,-1.067568063735962,2.118356227874756,0.1979418396949768,-1.1095896468203514,-9.74097838117182,0.2292966852776706,50,jumping
1783067232330176500,1.0559508,-1.050186148476228,4.199201163855195,-1.4609014041125774,-0.44087815284729,2.014911413192749,-0.2166156321763992,-1.115518671543151,-9.742973938903212,0.0210885633992031,50,jumping
1783067232350100500,1.0758748,0.6519376487683505,0.5019488204181194,-4.201324731880426,1.3215826749801636,1.3717494010925293,-0.4824239015579223,-1.038451652345061,-9.751348384016753,0.0566623738092835,50,jumping
1783067232370023400,1.0957977,0.462897716685757,-8.022334387889504,-2.569322080218792,2.166904926300049,0.6121025085449219,0.1941707879304886,-1.0039870726853608,-9.746232648438214,0.416336566116847,50,jumping
1783067232389947600,1.1157219,-6.17096943885684,-14.632661458694932,3.012485534191132,1.0242568254470823,0.5937129855155945,0.5905351638793945,-1.1020164350870996,-9.717269004282354,0.7284541944768279,50,jumping
1783067232409870600,1.1356449,-11.74343873155713,-20.168654247391224,2.6182325338602066,-0.3600717186927795,-0.0157881397753953,0.3596771955490112,-1.2009615240942686,-9.70140508019626,0.7815336043659598,50,jumping
1783067232429794600,1.1555689,-14.715338572859764,-22.361399269223213,2.855608042305708,-1.6730005741119385,0.3217279016971588,0.1567981392145156,-1.2471036090008911,-9.709529934462903,0.5832132182408124,50,jumping
1783067232449718500,1.1754928,-14.014416163104771,-20.497249072897432,-1.0482884981613605,-1.7840951681137085,0.7951160073280334,-0.0166213195770978,-1.2686707131646573,-9.722216397556664,0.1984966012085788,50,jumping
1783067232469641700,1.195416,-12.936359061080216,-16.48396854006052,-3.0985791788011787,-0.279228538274765,1.05935800075531,-0.6414241790771484,-1.2114279730509967,-9.731491590902207,-0.0298942372535704,50,jumping
1783067232489565700,1.21534,-9.91123850172162,-11.466883889889717,-0.0754202749043703,0.7366222143173218,1.641610860824585,-1.144601583480835,-1.0293655518308282,-9.752476511263849,-0.0001465240632186,50,jumping
1783067232509488600,1.2352629,-5.491616471353173,-5.883947563710809,3.0141198573946952,0.8785317540168762,1.3015265464782717,-1.1536800861358645,-0.8019916513092815,-9.772785724321007,0.1409893010077532,50,jumping
1783067232529412600,1.2551869,-0.62079045002833,-1.374531865170598,4.967912330722808,0.0640057697892189,0.6498947143554688,-0.8097208738327026,-0.6078839875083416,-9.784992294943333,0.2340896369089372,50,jumping
1783067232549336600,1.2751109,3.100967535242438,-0.0140741180598735,4.579681074899435,-1.2360854148864746,0.1086522489786148,0.0684826299548149,-0.5322887213632465,-9.791529003235697,0.1141518186930101,50,jumping
1783067232569259500,1.2950338,2.0325681961402298,2.9460201346367594,3.2446617204278705,-2.314795970916748,-0.3336896300315857,0.5821613669395447,-0.6107118313454091,-9.784757901665568,-0.2364971181757748,50,jumping
1783067232589183500,1.3149578,0.03004289075993,6.957520213797688,2.396447393256426,-2.8655483722686768,-0.1119180619716644,0.4902664124965668,-0.7192736206121743,-9.751254275992512,-0.7523787484869361,50,jumping
1783067232609106400,1.3348807,-1.0843158701583742,9.604104981917144,1.1838235614843666,-2.3210079669952397,-0.0524735897779464,0.16824971139431,-0.7870518563307821,-9.692689858821034,-1.265974313687533,50,jumping
1783067232629030700,1.354805,-0.1658434731513261,12.152404147851469,1.5232659442193806,-1.3912354707717896,0.2693212330341339,-0.0285461284220218,-0.7910890028923749,-9.638791095373032,-1.6242714728876948,50,jumping
1783067232648954600,1.3747289,2.021975052063912,13.760752367681263,1.1161081618689,-0.6550192832946777,0.1431097537279129,0.0864800065755844,-0.7862677202157676,-9.603671266674995,-1.8225471430882807,50,jumping
1783067232668877600,1.3946519,3.2037811362460253,14.642418298077583,1.285849080850184,-0.0407145991921424,-0.2475199103355407,0.2680085301399231,-0.8240942505892366,-9.5881077868402,-1.886643767684698,50,jumping
1783067232688801500,1.4145758,3.257919261407852,13.746090220600363,1.5355414884246883,0.5769571661949158,-0.5224393010139465,0.4470483660697937,-0.907561273022741,-9.592000702625512,-1.827634090963751,50,jumping
1783067232708724500,1.4344988,2.826799880972505,11.916039862275122,1.9152083295203743,0.7741009593009949,-0.6630853414535522,0.6159478425979614,-1.0298017512910067,-9.6069808296144,-1.6780325814306736,50,jumping
1783067232728648700,1.454423,2.54578922894001,10.425430717641117,1.412643276900053,0.6067844033241272,-0.6848120093345642,0.8621651530265808,-1.1899227551423013,-9.613347442036869,-1.5290616248860955,50,jumping
1783067232748572700,1.474347,2.076998143366724,8.023651315706967,0.0415109910398721,0.4652181267738342,-0.6844915151596069,1.1635363101959229,-1.4066218246534463,-9.602328035372494,-1.4096473099544644,50,jumping
1783067232768495600,1.4942699,0.9381915352165698,6.214775262835621,-0.1065454810082912,0.2768201231956482,-0.5018807053565979,1.2099370956420898,-1.6542074692070483,-9.575784896361828,-1.318453127335012,50,jumping
1783067232788419600,1.5141939,0.2352737138606608,5.071880654719472,-0.2905551638387143,0.1146361157298088,-0.3384542763233185,1.0429811477661133,-1.8823346723139285,-9.540358193671702,-1.268369099869579,50,jumping
1783067232808342800,1.5341171,0.2201378117881715,4.815931963229179,-0.7147492750555277,0.0780980885028839,-0.2512077093124389,0.8565394878387451,-2.067264538729191,-9.505574465060231,-1.241313335161656,50,jumping
1783067232828266500,1.5540408,-0.094088588886708,4.109792695608735,-0.522391888988018,0.111379787325859,-0.0563032254576683,0.8293498754501343,-2.229035355614126,-9.472505139151217,-1.2138535196974871,50,jumping
1783067232848190500,1.5739648,-0.2894523171633482,3.2519208977758884,0.2993026800483465,-0.1272942274808883,0.2377659678459167,0.8888776898384094,-2.3871155012875795,-9.433749584299326,-1.2150848150581122,50,jumping
1783067232868113400,1.5938877,-1.0651368301749229,2.469071899962425,0.9049078359045089,-0.5824183225631714,0.3933216035366058,0.9572995901107788,-2.553698686890304,-9.379336441588402,-1.2950129227757454,50,jumping
1783067232888037600,1.6138119,-1.976824097086489,2.670758839911222,1.717552690914273,-1.0335125923156738,0.5697306990623474,0.7882157564163208,-2.7068329005941747,-9.309580768316984,-1.4748406437464057,50,jumping
1783067232907960600,1.6337349,-1.0633075689211486,2.478708327835798,0.8849871837735176,-1.0354465246200562,0.5852391123771667,0.5034681558609009,-2.807816948083043,-9.239634540909528,-1.7075447993800044,50,jumping
1783067232927884500,1.6536588,1.0633376717984675,0.8909984068870543,-0.4669422428362071,-0.3439274132251739,0.5551573634147644,0.4754895567893982,-2.8694632569178937,-9.187804984951018,-1.876382193650305,50,jumping
1783067232947808500,1.6735828,1.4022893484070895,-4.412432995647192,-0.9017425037413836,0.8654131293296814,0.6959350109100342,0.7635950446128845,-2.963159193225205,-9.160146578174828,-1.8659546153992408,50,jumping
1783067232967731500,1.6935058,-1.2217612240821123,-6.374633816358447,1.333000854256004,1.808795928955078,0.687404990196228,0.4453449845314026,-3.054732438290119,-9.169870684331656,-1.659061485109478,50,jumping
1783067232987655200,1.7134295,-2.3387410542190072,-8.897599803593755,2.73577754778862,2.1221868991851807,-0.272307276725769,0.2322854250669479,-3.0969942476972934,-9.21273951972127,-1.3055414771832523,50,jumping
1783067233007579100,1.7333534,-1.748254703170061,-15.54077700459957,3.5245319702535864,1.9378782510757449,-0.4704677164554596,1.3058911561965942,-3.228990980826318,-9.216164817994832,-0.8979428922627121,50,jumping
1783067233027502000,1.7532763,-4.12667105743438,-23.34338201537132,3.581778290563822,1.3720343112945557,-0.3195946216583252,2.6312248706817627,-3.6034584997132417,-9.103289549443126,-0.5617919522885233,50,jumping
1783067233047426300,1.7732006,-11.98617079859972,-30.143522632980343,4.986622876411676,0.1807602643966674,-0.9979395866394044,2.701135873794556,-4.117528550557792,-8.892586943867801,-0.3717993956562131,50,jumping
1783067233067349200,1.7931235,-19.71350341850519,-26.97431041355133,4.861767247208952,-1.0279183387756348,-1.5991891622543335,0.1389269977807998,-4.407478588110208,-8.75421015431285,-0.3290948839828372,50,jumping
1783067233087273200,1.8130475,-14.275989708739518,-17.63237752768397,0.6580892302006482,-0.821578323841095,-0.9178606271743774,-2.8114378452301025,-4.1629552537366745,-8.869640368044376,-0.4119353720158338,50,jumping
1783067233107197000,1.8329713,-1.882449238604307,-7.725874237790704,-5.532824680054188,1.5779030323028564,-0.5609890818595886,-3.642232418060303,-3.554632509484887,-9.134392543715238,-0.3127685300167649,50,jumping
1783067233127120100,1.8528944,4.6740214465901255,-1.55405315054059,-5.7571174195647234,3.673524856567383,-0.9751217365264891,-2.399941682815552,-2.982967178761959,-9.338666577547787,0.2482092015457339,50,jumping
1783067233147044000,1.8728183,2.331211535497009,2.907325370061397,-0.3725241297341883,2.725471973419189,-1.4102598428726196,-1.4863855838775637,-2.6212089193224903,-9.400698378568888,0.9625449090979992,50,jumping
1783067233166967000,1.8927413,0.0720968295700848,7.136470421281457,2.7670073833107947,0.1423576474189758,-1.1909607648849487,-1.5363621711730957,-2.3109749492846428,-9.442087789055703,1.2949052246175703,50,jumping
1783067233186891000,1.9126653,2.7922809407770632,9.099097358450294,-0.2678897430442273,-1.1576755046844482,-0.7832018733024597,-1.1058135032653809,-2.0237427923887967,-9.518681783914566,1.212252879567817,50,jumping
1783067233206815200,1.9325895,5.252780827227235,10.389458071506024,-3.995302977597713,-0.8517566919326782,-0.4151563048362732,-0.1753862202167511,-1.891920685174316,-9.56749929857552,1.026642410477251,50,jumping
1783067233226738200,1.9525125,4.702080543121696,13.04672263907194,-4.329780431401729,0.1978619694709777,0.1129594445228576,-0.1756964772939682,-1.8710864253297448,-9.578122983920574,0.9638318071033803,50,jumping
1783067233246662100,1.9724364,5.247080569759011,12.540533696866037,-3.751842596280575,1.1561936140060425,0.3972901701927185,-0.4438097178936004,-1.812149521584064,-9.575765607139468,1.0914353467747568,50,jumping
1783067233266585000,1.9923593,6.5552645242750645,11.11256542506218,-2.9848762272536757,1.543254852294922,0.5173390507698059,-0.4266725182533264,-1.7373828882828355,-9.557831891041994,1.341556355024874,50,jumping
1783067233286509000,2.0122833,7.103010634750127,9.492139229425788,-2.0493186938025056,1.408781886100769,0.794375479221344,-0.1108171269297599,-1.7045349500395357,-9.52296340675652,1.605643490915745,50,jumping
1783067233306433300,2.0322076,6.567875584045052,8.706080037394166,-1.6916599786363542,1.0763834714889526,0.9530354738235474,0.1563858538866043,-1.740117573943734,-9.479408342668414,1.8119686120592056,50,jumping
1783067233326356200,2.0521305,5.19551463317275,7.666226117035746,-1.473694250190258,0.739141583442688,1.005828022956848,0.3551804721355438,-1.8283694195009768,-9.436139109784364,1.945950089264661,50,jumping
1783067233346280200,2.0720545,3.4163638564795256,7.231805356967449,-1.6986077519476412,0.6147298216819763,0.926264464855194,0.2398964613676071,-1.92881672976464,-9.397959308993816,2.0318506955206392,50,jumping
1783067233366203100,2.0919774,2.175672890999913,6.854961756598949,-1.9590122538030144,0.7097481489181519,0.8783972859382629,-0.026855856180191,-1.9836878453761335,-9.367078433039785,2.119723624762893,50,jumping
1783067233386127400,2.1119017,1.4011385709367692,6.168705585578084,-1.822431700015068,0.7578160166740417,1.0097485780715942,-0.1275318562984466,-2.00747014137134,-9.338628583624958,2.220468018276989,50,jumping
1783067233406051000,2.1318253,-0.1791710106275975,5.47308478936255,-1.2991735495865344,0.6717455983161926,1.1043848991394043,-0.1433761268854141,-2.0312758182421327,-9.310540553259848,2.314764112434536,50,jumping
1783067233425974000,2.1517483,-1.8851038447663184,5.254489384710788,-0.3965818816699087,0.3036620616912842,1.1731277704238892,-0.2614901959896087,-2.0470731068328023,-9.29545228972137,2.3610236131757496,50,jumping
1783067233445898000,2.1716723,-3.0949639109134672,5.419767625194788,-0.579407030890882,0.2705495655536651,1.0499392747879028,-0.4656588137149811,-2.0361098142698406,-9.29927272479236,2.355455896046013,50,jumping
1783067233465821000,2.1915953,-2.9384646046906706,5.343301056107879,-1.7474644295752046,0.9948230981826782,0.5580009818077087,-0.3557679355144501,-1.985510530758649,-9.289394304856655,2.4362466119423507,50,jumping
1783067233485745200,2.2115195,-2.611279061460495,2.040587544205785,-1.8428443734467028,1.2133541107177734,0.3562633097171783,0.5602438449859619,-2.0155157929219305,-9.226933464768528,2.6404130937471986,50,jumping
1783067233505669000,2.2314433,-5.211334718117118,-4.033396269148588,-0.3046779433459043,0.550597608089447,0.5488104820251465,1.8275487422943115,-2.262763729953766,-9.12603212712705,2.786715707865357,50,jumping
1783067233525592000,2.2513663,-11.0261789349854,-6.238378256741166,1.2749094614237546,0.3301578760147095,0.1705127507448196,2.02368712425232,-2.6572818109616634,-9.005351737782359,2.8306974729329344,50,jumping
1783067233545516000,2.2712903,-15.204133312672376,-9.039430532994864,1.952533705438673,0.8109865784645081,-0.5014869570732117,1.095831036567688,-2.9265576015368104,-8.885659190431237,2.941215072442591,50,jumping
1783067233565440300,2.2912146,-15.235516292929647,-13.83690738660097,3.971593600708246,1.0841476917266846,0.2215295135974884,0.5675840377807617,-3.0452614301115277,-8.779618736335635,3.132900258336961,50,jumping
1783067233585363200,2.3111375,-11.592308258891103,-22.225238402152065,2.287422370392084,0.6778051257133484,0.6327335238456726,0.9861962795257568,-3.2093945922136307,-8.675226049447058,3.257398452404141,50,jumping
1783067233605287200,2.3310615,-12.871205913168192,-23.22240235081911,4.378592393104732,0.15399731695652,0.827434778213501,0.441574215888977,-3.4051749384671446,-8.59115017440021,3.28135654335767,50,jumping
1783067233625210000,2.3509843,-11.956043371361494,-19.975362210822105,3.614893501441181,-0.1158528551459312,0.721217691898346,-1.1208758354187012,-3.3948294855415817,-8.61664409661889,3.2247420912101865,50,jumping
1783067233645134300,2.3709086,-6.870720466744899,-15.425198322308065,1.7983233869358897,0.2737734913825989,0.8074527978897095,-2.215317249298096,-3.1479657255217437,-8.726309755474329,3.1799694680258628,50,jumping
1783067233665058000,2.3908323,-1.2648258743047711,-8.45985252945125,0.9521288751542568,0.7394441366195679,0.9883805513381958,-2.505358457565308,-2.77583834002018,-8.836009316599368,3.223359112419188,50,jumping
1783067233684981000,2.4107553,3.32344007358849,-2.62865222106576,1.07524116782099,0.4017296135425567,1.2027844190597534,-1.9263036251068115,-2.446713499290496,-8.912448997679352,3.279064340767264,50,jumping
1783067233704905000,2.4306793,3.8775367221340535,1.6163462328463791,0.9517243860065936,-0.3294257521629333,0.9290775060653688,-1.0855923891067505,-2.2547169093593955,-8.981209814694523,3.2287013502299784,50,jumping
1783067233724828200,2.4506025,1.3818700991041957,5.482359398186206,1.2687772422790526,-0.6493005752563477,0.5760749578475952,-1.057895541191101,-2.1203315275281667,-9.057501027214526,3.1042323822572824,50,jumping
1783067233744752000,2.4705263,0.9544311607472598,10.240720631456377,1.2691039900153875,-0.786052942276001,0.3794342279434204,-1.2934973239898682,-1.931265291960537,-9.149860746482014,2.9530703454092144,50,jumping
1783067233764676000,2.4904503,2.443935412879288,13.541590561318396,-0.4718649400606751,-0.7825818061828613,-0.0046570124104619,-0.9470734000205994,-1.7280688242316244,-9.239208424451949,2.796634167550504,50,jumping
1783067233784599000,2.5103733,2.6083652198404077,15.083147802901268,-1.7268471734821795,-0.2929733097553253,-0.113626554608345,-0.3804253339767456,-1.6032494353860616,-9.291724209108947,2.695151815150678,50,jumping
1783067233804523300,2.5302976,2.229984326902032,15.378144310188292,-2.880230442386865,0.1807325184345245,-0.1819049566984176,-0.0717964470386505,-1.5631991645485162,-9.299116657447817,2.6931834376871584,50,jumping
1783067233824446200,2.5502205,1.6030195721529423,14.498001643836496,-4.106755812130868,0.5590936541557312,-0.5011714100837708,-0.0497379787266254,-1.53583243419528,-9.281037395399808,2.7701933198705317,50,jumping
1783067233844370200,2.5701445,1.5675741647623478,12.847274417960644,-4.438006120581925,0.9738245010375975,-0.5550635457038879,-0.064751036465168,-1.4933537671670316,-9.238762434250116,2.930107402972877,50,jumping
1783067233864294100,2.5900684,1.4797254931785166,10.529074631989,-3.897328925579786,1.077466607093811,-0.3768583238124847,0.1042795181274414,-1.4677544848777353,-9.174704095837471,3.1370196763545275,50,jumping
1783067233884217000,2.6099913,1.2419555785879492,7.976604902371764,-3.642575873614848,0.8122844696044922,-0.2419040501117706,0.3501640856266022,-1.4864632770009338,-9.105321347531676,3.3247453109681606,50,jumping
1783067233904141300,2.6299156,1.0939330088093877,6.430417662900686,-3.228089063550532,0.2534436881542206,-0.1398388594388961,0.6467231512069702,-1.565740811855346,-9.054165745311977,3.4265094029188155,50,jumping
1783067233924064300,2.6498386,0.9343409972682596,5.593091809490323,-3.0345524045705794,-0.2699247300624847,-0.2250143438577652,0.6892268657684326,-1.6784889468960462,-9.033111266845465,3.4286984373956915,50,jumping
1783067233943988000,2.6697623,0.7775356938362121,5.230822093397379,-3.3510242460846897,-0.6505056619644165,-0.7319716215133667,0.4295984804630279,-1.7528735951423644,-9.045234250837565,3.3588056937411426,50,jumping
1783067233963912200,2.6896865,0.8424548868618905,5.201462727922201,-3.30607685085535,-0.9741355776786804,-1.1782904863357544,-0.0592745281755924,-1.7226231260463594,-9.091442459782956,3.2478681152537465,50,jumping
1783067233983835600,2.7096099,1.7889919333584603,5.072364638844132,-2.35552150862813,-1.2591583728790283,-0.9986159205436708,-0.346834123134613,-1.6062842730373144,-9.170340055409074,3.081413816727698,50,jumping
1783067234003759600,2.7295339,3.082490213787556,3.690556060668826,-2.5371251532301304,-1.6051058769226074,-0.7626451253890991,0.0020940012764185,-1.516084069891274,-9.26096666727364,2.8471745604813097,50,jumping
1783067234023682800,2.7494571,1.8485393702179191,1.7079267844349144,-2.342483163356781,-1.901808500289917,-0.3949221074581146,0.3821561336517334,-1.5220299726836382,-9.349320658031106,2.538508132021129,50,jumping
1783067234043606800,2.7693811,0.682970865739882,-0.8254811018377542,-1.786649900276959,-2.287177085876465,0.123011015355587,0.502851128578186,-1.6024937947131692,-9.43172713856101,2.155206441554427,50,jumping
1783067234063530800,2.7893051,-0.5660713101081549,-1.1391185967087745,-1.6307517748177052,-2.906137228012085,0.3788388967514038,0.1545977741479873,-1.6841789752312004,-9.517772267854212,1.6570875546880066,50,jumping
1783067234083453700,2.809228,-0.4354280374146997,-0.2679869198083877,-1.7764425406478344,-3.125429391860962,0.6359816789627075,-0.2906305193901062,-1.6762581191040575,-9.604505379411576,1.0554889310594648,50,jumping
1783067234103378000,2.8291523,1.1847763321645557,-7.005323582980036,-3.03166019026041,-2.39253306388855,1.1183892488479614,0.0564520694315433,-1.6540397114247083,-9.65412894975841,0.481985498189181,50,jumping
1783067234123300900,2.8490752,-1.122978924421221,-12.120047354125976,-2.574748781442642,-1.393578052520752,0.6911622285842896,0.5854769945144653,-1.7336027852222322,-9.651775080108642,0.0907640841064974,50,jumping
1783067234143224800,2.8689991,-7.009093164646625,-13.085268350565432,0.4348907156676054,-0.5427961945533752,-0.1170436665415763,-0.0614785701036453,-1.7976789515525102,-9.639895841744542,-0.1056879599966574,50,jumping
1783067234163148500,2.8889228,-11.559226658022403,-16.53126337519884,2.437269817510247,-0.0694981217384338,-0.781087338924408,-0.7857856750488281,-1.7076432913184163,-9.655915248653292,-0.1328507378761656,50,jumping
1783067234183071500,2.9088458,-12.490062569779155,-19.043824872797728,4.135466650569438,-0.5720124840736389,-0.802413821220398,-0.5933696627616882,-1.5664454529933631,-9.679412444096805,-0.1600443036195822,50,jumping
1783067234202995700,2.92877,-13.857414752578734,-17.37155684624314,4.704485266175866,-1.1000542640686035,-0.8661130666732788,-0.5115399956703186,-1.473556010763347,-9.69055226227045,-0.3036431569380685,50,jumping
1783067234222919700,2.948694,-13.098688973152637,-14.108057738876342,4.400660724788904,-1.0440584421157837,-0.6340727210044861,-0.6005969047546387,-1.3688722319737077,-9.69778864326477,-0.4994590859616175,50,jumping
1783067234242842600,2.9686169,-9.383996250092984,-11.497010148084165,2.053677327403426,-0.2348743379116058,-0.5695791840553284,-0.6516808867454529,-1.2604741088360547,-9.705590256926415,-0.6189522017505019,50,jumping
1783067234262766600,2.9885409,-6.268742415344715,-8.049804578617215,1.4645681099265813,0.9455795288085938,-0.7803791761398315,-1.0690487623214722,-1.1043511616449802,-9.729686587306857,-0.532924169722572,50,jumping
1783067234282689800,3.0084641,-1.986128078135103,-4.466892315587401,1.7337591448277234,1.5962681770324707,-1.0370261669158936,-1.3432785272598269,-0.8734464566487818,-9.764242936903235,-0.2589309587040916,50,jumping
1783067234302613800,3.0283881,1.1553093415964395,-0.2007546275347471,1.8696821114897728,1.894652009010315,-1.3808380365371704,-1.2018731832504272,-0.6202052705515175,-9.7865073756814,0.0999977124657947,50,jumping
1783067234322537700,3.048312,3.0763860516935586,3.279670489966869,1.4054431362628936,1.7528252601623535,-1.8216980695724487,-0.7642108798027039,-0.4140336594693362,-9.785913501441478,0.4846288888374343,50,jumping
1783067234342460700,3.068235,3.586796118725836,6.152043204590678,1.7984815001070498,0.8759536147117615,-2.124197483062744,-0.1450759619474411,-0.2989588898456655,-9.772524443036318,0.7607707292571664,50,jumping
1783067234362385000,3.0881593,2.8418539499804374,8.083429784843325,0.9350607629101724,-0.0479805320501327,-2.6732327938079834,0.2654215693473816,-0.2824524118060246,-9.76580477939248,0.8483198333725332,50,jumping
1783067234382307800,3.1080821,0.9595100714467464,9.170546976158022,0.4928689304489642,-0.4464197158813476,-2.8283791542053223,0.0540025383234024,-0.2726735249883495,-9.769397250926492,0.8092779358599335,50,jumping
1783067234402231800,3.1280061,-0.5331202037513256,10.046924737018346,-1.1054198137897997,-0.6115028262138367,-2.753581047058105,-0.3048866689205169,-0.2039946506355889,-9.778025378540155,0.7204024054463952,50,jumping
1783067234422155500,3.1479298,-0.9659982644222675,9.941671049386262,-2.211826154398918,-0.90064537525177,-2.289315700531006,-0.4161285161972046,-0.0971770472881849,-9.788741418343784,0.5843673932446166,50,jumping
1783067234442078700,3.167853,-0.5627859317619354,10.582385366415975,-3.4561329722881315,-1.1055164337158203,-2.10073471069336,-0.579146146774292,0.0145138874418276,-9.799033679777382,0.3861677839549258,50,jumping
1783067234462002700,3.187777,-0.0032339221536181,10.936671098017692,-4.227722909462452,-0.8716936111450195,-2.0770580768585205,-0.7984817624092102,0.1597549287515692,-9.803615746870635,0.1843647981447167,50,jumping
1783067234481925600,3.2076999,0.1563751318538561,10.410820008486509,-4.111588931375742,-0.4347160756587982,-1.739293932914734,-0.8837302923202515,0.3321917174870148,-9.800897135561703,0.0495260876219952,50,jumping
1783067234501849600,3.2276239,0.8582917768105864,10.122397034370898,-4.494418620416522,-0.233855590224266,-1.337476372718811,-0.8089569807052612,0.4983227388754487,-9.793942494118212,-0.0273303484321804,50,jumping
1783067234521773800,3.2475481,1.1699250191871076,9.372963399425148,-4.484763487842679,0.0016216033836826,-1.0574426651000977,-0.6913100481033325,0.6426352751549333,-9.785364050865171,-0.0636211160391569,50,jumping
1783067234541696800,3.2674711,0.9540868773542344,8.547817228630185,-4.196547434476018,0.18685382604599,-0.9541956782341005,-0.6329809427261353,0.7701870846390724,-9.776191733372212,-0.0570509941009571,50,jumping
1783067234561620700,3.287395,0.3405545817606151,6.946168798699975,-3.290679959759116,0.0103572364896535,-0.7790955305099487,-0.5371724367141724,0.8833313063252717,-9.766686238402128,-0.0438441969275241,50,jumping
1783067234581543700,3.307318,-0.7774526917278766,5.6625107981532805,-2.4794296278476717,-0.5094202756881714,-0.4109078347682953,-0.482040673494339,0.9812589619182048,-9.756894327706098,-0.1025671610950026,50,jumping
1783067234601467600,3.3272419,-1.1488943599876016,4.130688184121251,-2.126787571799755,-1.0196783542633057,0.2155729681253433,-0.3480903506278991,1.06300230236426,-9.745539405477048,-0.2546951660315506,50,jumping
1783067234621392000,3.3471663,-1.1541721542600545,3.229902542713284,-1.86882929405272,-1.2573275566101074,0.6913959383964539,-0.3126929998397827,1.1276861522641033,-9.730309103119373,-0.468809534545429,50,jumping
1783067234641314800,3.3670891,-1.8187457049787044,1.8631681995511051,-0.9318593365203588,-1.5179871320724487,0.8783451318740845,-0.309521347284317,1.197450228037685,-9.70702116651237,-0.7143039424408226,50,jumping
1783067234661238800,3.3870131,-3.5347406450569627,0.3148655753612518,1.125608030815795,-2.095833539962769,1.2701889276504517,-0.4562512040138244,1.2849389802679418,-9.666766313013436,-1.0358255416251718,50,jumping
1783067234681161700,3.406936,-3.316039734204113,-0.3752197985589504,0.8483816465623676,-2.118668794631958,1.2878202199935913,-0.9238470792770386,1.444671715454012,-9.595282793036104,-1.4190990289106964,50,jumping
1783067234701085700,3.42686,-1.0528666927970944,-1.96103469954133,-1.4515852942347525,-0.6854208111763,0.7011657357215881,-1.5507662296295166,1.7174072910942135,-9.507939440625906,-1.6792825814917682,50,jumping
1783067234721009700,3.446784,0.5282968752481043,-8.596331376430392,-0.9976835886269808,1.5004479885101318,0.1336889564990997,-1.0822197198867798,2.00222449580282,-9.468219424656033,-1.585659710420668,50,jumping
1783067234740932600,3.4667069,-0.2983738747656345,-13.264870884478093,2.43398129735887,2.335681915283203,-0.557910680770874,0.3880185782909393,2.069484406735748,-9.510122629883885,-1.202164616273716,50,jumping
1783067234760856600,3.4866309,-3.3228540903940798,-20.824083318471907,5.411249387696385,1.650043487548828,-0.3669376373291015,2.127937078475952,1.8133100897960364,-9.601433716881274,-0.8335356673471629,50,jumping
1783067234780780800,3.5065551,-9.529109654426572,-23.220882593905923,6.511968987905979,0.9499455094337464,-0.3272007703781128,2.313723087310791,1.3464764219008385,-9.695348264375328,-0.597991612112522,50,jumping
1783067234800703700,3.526478,-9.954967753332852,-18.69554568813443,5.30532583797872,0.4501140117645263,-0.3199365437030792,0.6398640871047974,1.043000620886311,-9.73963865700066,-0.4711335205135866,50,jumping
1783067234820627700,3.546402,-3.198202167069912,-15.150512781643869,-0.9448101496387272,0.8793312907218933,-1.043598771095276,-0.0791598409414291,1.0155882978256792,-9.746791451364755,-0.3728984794719144,50,jumping
1783067234840550700,3.566325,1.7303540125593542,-11.225007562893628,-2.7618863870352506,1.682382106781006,-1.4687812328338623,1.0509538650512695,0.9242170050736516,-9.761966808664798,-0.1422804185305256,50,jumping
1783067234860475000,3.5862493,0.6554442686498164,-4.422772018831968,0.2452957800507545,0.5503504276275635,-1.5948566198349,1.6733956336975098,0.6360778163354843,-9.785617148843407,0.0864510066803544,50,jumping
1783067234880398800,3.6061731,-0.7519498555503785,2.6731325833052395,-0.3459147936195135,-1.3721699714660645,-2.2254302501678467,1.4517405033111572,0.3331140930289402,-9.800969616276026,-0.0202487127582891,50,jumping
1783067234900321800,3.6260961,-0.6356713544264435,4.851171034392714,-2.831194316539168,-1.882507562637329,-2.11826753616333,1.36578369140625,0.0475955488176783,-9.799385561954974,-0.3743425408003851,50,jumping
1783067234920245800,3.6460201,0.5958494489846751,7.6929820220142595,-4.9217836167544124,-0.4234355986118316,-1.3169121742248535,0.9308363199234008,-0.1973645101724192,-9.784915722575784,-0.6219901081416755,50,jumping
1783067234940168700,3.665943,0.4355477913368493,9.253018923139573,-4.055132884660363,1.0549988746643066,-0.6445469856262207,0.3091099262237549,-0.3351409592140466,-9.786177120813727,-0.5373947027327493,50,jumping
1783067234960092700,3.685867,0.1806698343506082,9.193083802136778,-1.304511988005042,1.248924732208252,-0.5390753746032715,0.0034421060699969,-0.3612824220886453,-9.795822316515444,-0.2858365195526741,50,jumping
1783067234980016600,3.7057909,-0.0951866497891023,8.85392666608393,-0.0519990673065185,0.4092073142528534,-0.3888209760189056,-0.1545137017965316,-0.3535765604190528,-9.79963632184565,-0.1118538896147161,50,jumping
1783067234999939600,3.7257139,0.3135969801975414,8.906613715654611,-0.1687953086942434,-0.3523240387439728,0.0295801404863595,-0.2195081114768982,-0.3138962188724428,-9.80099767332673,-0.1108771170044317,50,jumping
1783067235019863800,3.7456381,1.6847848321698604,8.991154285603761,-1.5036504125148058,-0.4120956659317016,0.5452975630760193,-0.067313551902771,-0.2834286364270374,-9.800544084340334,-0.1984772023883648,50,jumping
1783067235039786800,3.7655611,2.2460298911653456,9.20602336320877,-1.9997148510694505,0.0628502443432807,0.8366330862045288,0.0997111350297927,-0.2866751440675929,-9.79948551519811,-0.2414078327015042,50,jumping
1783067235059710700,3.785485,1.9761317309081556,9.116824738320709,-1.3505764045655726,0.5836422443389893,0.6451964378356934,-0.0612934604287147,-0.2919605188583024,-9.800668587502836,-0.1790192906646057,50,jumping
1783067235079634700,3.805409,1.5557453414112328,8.164159856593608,0.3053571577817201,0.602135419845581,0.4054774641990661,-0.2846650183200836,-0.256292299029883,-9.803138777008652,-0.0560608140198281,50,jumping
1783067235099557600,3.8253319,1.4472808750391006,6.88989220020473,1.1525205145955084,0.1795013397932052,0.4554760456085205,-0.3810070157051086,-0.1876315265893936,-9.804832136923077,0.0209373206435353,50,jumping
1783067235119481900,3.8452562,1.505440218541026,5.234610379764438,0.936725554317236,-0.1994092911481857,0.5490248799324036,-0.3122151792049408,-0.1211427278931252,-9.805889537021518,0.0158675876227032,50,jumping
1783067235139404800,3.8651791,1.2250065626788884,4.197497282546759,0.9461030389934778,-0.453240156173706,0.6382667422294617,-0.3741685450077057,-0.0542419965282548,-9.806362999752164,-0.0518686686927685,50,jumping
1783067235159328800,3.8851031,0.7516470732115209,2.6061259164810178,0.9975123237133026,-0.5209169387817383,0.5241188406944275,-0.5170660018920898,0.0312568491099751,-9.80549089309275,-0.1475704786295071,50,jumping
1783067235179252700,3.905027,0.2728634215372614,1.1360808364480732,2.0810656850665805,-0.8961730003356934,0.5827116966247559,-0.6814390420913696,0.1504613412328064,-9.8015944701761,-0.2765860587895847,50,jumping
1783067235199176000,3.9249503,-0.21935265275985,0.5583095900654792,2.976868861886859,-1.5575659275054932,0.7626186609268188,-0.8971226215362549,0.3082374259257689,-9.788255680653451,-0.5151803501740098,50,jumping
1783067235219099600,3.9448739,0.3705584191517904,-0.072516954678297,2.9100854824244973,-1.941867709159851,0.6658732295036316,-0.9817364811897278,0.5078143879832699,-9.756128604030607,-0.8546635763760656,50,jumping
1783067235239022800,3.9647971,0.7393846807487309,-0.9595949732512236,2.3773294358104464,-2.077113628387451,0.5034257769584656,-0.9319604635238647,0.6987822559211403,-9.702682845047116,-1.240981326728314,50,jumping
1783067235258946600,3.9847209,1.2552296323113143,-0.8502899644017219,0.3779699740499257,-1.6561108827590942,0.4565696716308594,-1.2946454286575315,0.9254392403449864,-9.629579030391572,-1.6078414393514393,50,jumping
1783067235278870800,4.0046451,2.388472176593542,-5.318516743463277,-0.4530727074377239,-0.6896798014640808,0.6463348269462585,-1.1744204759597778,1.1899612605217844,-9.562942950445413,-1.8178275672204791,50,jumping
1783067235298793700,4.024568,1.994105632885545,-6.765235892966389,1.2195821264773608,0.2419113665819168,0.7657982707023621,-0.4531027674674988,1.380371969500929,-9.529850243660809,-1.8565895518131552,50,jumping
1783067235318717700,4.044492,0.3946471142150461,-13.068328906202316,2.5678549302756783,2.196440935134888,0.2855983972549438,0.5146580338478088,1.3924747874878347,-9.57288859039843,-1.6097250611409544,50,jumping
1783067235338640600,4.0644149,-3.5874440612405536,-18.33957302635908,6.380392526015639,2.5951502323150635,-0.1929567903280258,1.1012998819351196,1.229005496121943,-9.665703067696096,-1.1109040904197842,50,jumping
1783067235358564900,4.0843392,-6.139179046842456,-19.087277061033248,9.341261270216108,0.8557841181755066,-0.3442750573158264,1.3432278633117676,0.9868570741862058,-9.726790865865349,-0.7655299795482308,50,jumping
1783067235378488800,4.1042631,-5.755609937611222,-17.52684443858862,5.716778979435563,-0.27369225025177,-0.7596632242202759,1.5532846450805664,0.6972605262465774,-9.753138190042971,-0.7486608970075845,50,jumping
1783067235398411800,4.1241861,-4.084982079479098,-15.115740743470193,-0.4299941027324646,0.2553665339946747,-0.7767617106437683,1.7197660207748413,0.3673853055410087,-9.76914123033881,-0.7741396947223693,50,jumping
1783067235418335700,4.14411,-2.828283689789474,-10.934523564594985,-4.489937675610184,1.48362398147583,-0.7600119709968567,1.573493480682373,0.0243742180233472,-9.787291219535469,-0.6153983086612075,50,jumping
1783067235438258700,4.164033,-2.2627771739572284,-7.309974053797125,-5.2191906923145055,2.412553548812866,-1.0628297328948977,0.986262857913971,-0.2346745058584958,-9.801536017987132,-0.2126545068280771,50,jumping
1783067235458183000,4.1839573,-0.5291909745436162,-4.2029783443063495,-4.052595475137234,2.2160956859588623,-1.1391812562942505,0.5130428075790405,-0.3756676153916865,-9.796069569274785,0.2574862032558769,50,jumping
1783067235478106600,4.2038809,1.757779779623449,-1.155814879965782,-3.2328993864417077,1.681783676147461,-1.3142882585525513,0.4214707911014557,-0.4503961451722308,-9.774764330917597,0.6492566660560667,50,jumping
1783067235498029800,4.2238041,2.6811469629347324,2.354820082360506,-1.7146318350315093,0.6883476972579956,-1.4051498174667358,0.5822386145591736,-0.5268145277358591,-9.75080828579068,0.9025484863620252,50,jumping
1783067235517953800,4.2437281,2.222471759314835,5.928218082591891,-1.0724562132775783,-0.3808883130550384,-1.199174404144287,0.4992836117744446,-0.613717954358831,-9.742180742698908,0.9400264955587684,50,jumping
1783067235537876700,4.263651,1.585493413943052,8.642574072167276,-1.7696096258878706,-0.7459917664527893,-1.2325059175491333,0.1226849034428596,-0.6539993305385112,-9.748845461285114,0.8382651800870895,50,jumping
1783067235557800700,4.283575,1.3774185265228152,10.947456695926189,-2.0194494791090487,-0.8119261860847473,-1.0883373022079468,-0.3528760373592376,-0.6160623985931277,-9.762326289626955,0.6984482747264206,50,jumping
1783067235577724700,4.303499,1.837415626396239,12.521553102064132,-2.928922284841537,-0.4890247583389282,-0.8982548117637634,-0.8878943920135498,-0.4824471974167972,-9.77779741500318,0.5764692238733172,50,jumping
1783067235597647600,4.3234219,2.2948246094726024,12.497010196959971,-3.5343420011281963,0.0266844406723976,-0.935094118118286,-1.3365521430969238,-0.2588553909835405,-9.788270293700696,0.5414407997857779,50,jumping
1783067235617571800,4.3433461,2.007510473381728,11.602715086615085,-2.900888615012169,0.3583208918571472,-0.8801306486129761,-1.653729796409607,0.0473130329487146,-9.788958275964855,0.5868927104711532,50,jumping
1783067235637494800,4.3632691,1.730141538852453,9.892716172081233,-2.2594319551825524,0.3941358625888824,-0.654924750328064,-1.7011387348175049,0.386631930867955,-9.776747613689302,0.6604049597971141,50,jumping
1783067235657418800,4.3831931,1.1834836620055138,8.278952356943488,-1.782563800007105,0.271546721458435,-0.6514413952827454,-1.631300449371338,0.7203555706299841,-9.753632111039757,0.7198378303661942,50,jumping
1783067235677342700,4.403117,0.462056589686498,6.609648440891504,-1.2513830398857593,0.0517967864871025,-0.5843396782875061,-1.4817136526107788,1.0329727094773202,-9.723756612735986,0.7429146815057843,50,jumping
1783067235697266000,4.4230403,-0.2664890824660658,5.765528105035424,-1.0458663855809718,-0.2168944478034973,-0.4360291361808777,-1.3450369834899902,1.3126052780896424,-9.692168465295431,0.7136713436257094,50,jumping
1783067235717190000,4.4429643,-0.8244991050630808,5.331320695456862,-1.1360241378247735,-0.3462890684604645,-0.2961634993553161,-1.2667983770370483,1.568048358145356,-9.658839611667394,0.6468590303298085,50,jumping
1783067235737112800,4.4628871,-1.3988633194811642,4.818810733535885,-0.7847346654295921,-0.489630788564682,-0.2317904978990554,-1.218847393989563,1.809768033275008,-9.621878539016842,0.5608765910092741,50,jumping
1783067235757036800,4.4828111,-1.8113111710637808,4.381227710044384,-0.3582312543570995,-0.8140408396720886,-0.1441133469343185,-1.1730008125305176,2.042950181683898,-9.581732991111275,0.4326015818171203,50,jumping
1783067235776960800,4.5027351,-1.963600019984692,3.4527252096712586,-0.138207826196216,-1.2353867292404177,-0.0065557630732655,-0.9890713691711426,2.25060538238734,-9.54207902611494,0.2321807528140023,50,jumping
1783067235796883700,4.522658,-2.3437372550711038,2.4446768788963555,-0.2699392229199409,-1.6743232011795044,0.0697081759572029,-0.7028369903564453,2.412570552800596,-9.505177574697136,-0.0386137900273315,50,jumping
1783067235816807700,4.542582,-2.254146415995061,1.3977367996692656,-0.3810696570983156,-2.2307729721069336,0.3914581835269928,-0.3520520329475403,2.512121060355008,-9.47083516011238,-0.4036297908874228,50,jumping
1783067235836730600,4.5625049,-2.0024509980350733,-0.0085223291516304,-1.0940016170661897,-1.88141131401062,0.9114561080932616,-0.5127943158149719,2.587982649286092,-9.42732451968789,-0.7734755317252129,50,jumping
1783067235856654600,4.5824289,-0.3467857312351465,-1.7834288924038408,-2.7397914596050974,-0.4258774220943451,0.9614475965499878,-1.2871028184890747,2.773907664218545,-9.357988533133268,-0.9507206888567656,50,jumping
1783067235876578800,4.6023531,2.638457283504307,-5.806372156599164,-2.8187808251678943,1.203960657119751,0.5577614307403564,-1.3991397619247437,3.0528593378946183,-9.28248700968623,-0.8281867805998772,50,jumping
1783067235896501800,4.6222761,4.714137476140261,-10.875179395222665,-0.0872760958602651,1.94979989528656,0.1405021846294403,-0.4510103166103363,3.242841811524332,-9.241501503825187,-0.4990039991378784,50,jumping
1783067235916425700,4.6422,4.356847302025557,-16.473796690136194,3.309171309739351,1.7152273654937744,-0.3589858710765838,1.1589863300323486,3.181446262580156,-9.274944339221715,-0.1555585365076549,50,jumping
1783067235936348700,4.662123,1.3012363273352383,-19.767043285512923,6.350483125442266,0.37790647149086,-0.5198106169700623,2.583233594894409,2.8200822631552813,-9.392386477297544,0.0239296525936224,50,jumping
1783067235956273000,4.6820473,-1.5773117149226366,-17.715293126779795,6.782876179075241,-1.2791892290115356,-0.6498256921768188,2.811836004257202,2.292579168633372,-9.534460952326654,-0.0921299838985316,50,jumping
1783067235976196900,4.7019712,-1.91383221886158,-13.958925162029264,2.8171768971025943,-2.0233821868896484,-0.8254005908966064,2.486491203308105,1.7839466326676308,-9.632190674194693,-0.4569431921955197,50,jumping
1783067235996120000,4.7218943,-0.8447983812481165,-11.72990120459199,-1.59916830355227,-1.7536473274230957,-0.6090308427810669,2.64270281791687,1.2865284414164722,-9.6842867721349,-0.8542899938233196,50,jumping
1783067236016043800,4.7418181,-0.9132930946730076,-6.226676128509641,-2.955557778310776,-1.3581607341766355,-0.2915581464767456,2.652811050415039,0.7588670145276933,-9.70823171134591,-1.1596261818822473,50,jumping
1783067236035967000,4.7617413,-1.2951876948207617,-0.9690449386417864,-4.196088584792614,-1.116622805595398,-0.5146199464797974,2.067024946212769,0.282440410840977,-9.70191127615273,-1.4012559137061238,50,jumping
1783067236055890700,4.781665,-1.5430416349217295,2.9551614724695683,-5.03676550219655,-0.9061843156814576,-0.3185483515262604,1.655712008476257,-0.0773838757280726,-9.675535310402513,-1.5963700511358678,50,jumping
1783067236075815000,4.8015893,0.5806501628197729,5.225387793388962,-5.370300706714391,-0.4509638249874115,1.0366195440292358,2.3618855476379395,-0.4386441133843735,-9.641343117943403,-1.7385329351007937,50,jumping
1783067236095737900,4.8215122,2.372152033172548,7.61412943457365,-5.222988915553689,0.596143364906311,2.136918783187866,2.9741384983062744,-0.9040575757507234,-9.60565630301237,-1.756258415275067,50,jumping
1783067236115661800,4.8414361,2.16929502653107,8.68672944023609,-2.0837417724080383,1.7361855506896973,2.2353475093841557,2.499208927154541,-1.3663397908866404,-9.582910218197108,-1.5720549634382128,50,jumping
1783067236135584800,4.8613591,1.5994963664628563,9.099687141036986,1.549450625181198,1.7055294513702393,2.017561912536621,1.2643122673034668,-1.6704245906449853,-9.57628290901184,-1.294168873167038,50,jumping
1783067236155509000,4.8812833,2.8891432321608064,8.512826579269767,2.1403864735633134,1.1994688510894775,1.6418042182922363,0.1526508033275604,-1.757583672529459,-9.587673487076165,-1.0760144902810451,50,jumping
1783067236175433000,4.9012073,5.425801060140133,8.401502631813287,0.5638477888397873,0.7121902108192444,1.2091690301895142,-0.1080519333481788,-1.7155368210472166,-9.608929625594616,-0.9464714339144528,50,jumping
1783067236195356000,4.9211303,6.62737231363058,6.9941212209641925,-1.385186530175805,0.5703192353248596,1.1406255960464478,0.5119519829750061,-1.7300328177809714,-9.61382791903019,-0.8670088248167186,50,jumping
1783067236215279900,4.9410542,4.943364164921641,5.7978439822286365,-2.070766409370303,0.556797444820404,0.9780913591384888,0.7714838981628418,-1.8482602610155936,-9.598041151833534,-0.7949432671677321,50,jumping
1783067236235202800,4.9609771,2.4743653301954267,4.745587676414847,-1.04843177908957,0.1815314590930938,0.5972776412963867,0.3425650596618652,-1.949736037544161,-9.581725392326712,-0.74796758098118,50,jumping
1783067236255127000,4.9809013,0.8203314639896154,4.216048253759742,-0.0229850812029093,-0.5172854065895081,0.4482887983322143,-0.2440336942672729,-1.9499455886416135,-9.577862287157773,-0.7953829006940126,50,jumping
1783067236275050800,5.0008251,0.8493858551688492,4.5706098796933885,-0.1445971253745257,-0.9963271617889404,0.7002280950546265,-0.6071721911430359,-1.8567459114186464,-9.580027356237172,-0.9725969320349396,50,jumping
1783067236294974000,5.0207483,1.3724433684587478,5.424521541723609,-1.6743572539187968,-0.8170487880706787,0.5726182460784912,-1.0089765787124634,-1.6895255969561636,-9.588338672986628,-1.1745930109981446,50,jumping
1783067236314897700,5.040672,1.194193418198824,5.47274810475409,-0.4718272383987903,-0.762823224067688,0.6322751045227051,-1.3927006721496582,-1.4458838677227497,-9.606636546221376,-1.3387877670943735,50,jumping
1783067236334820900,5.0605952,1.0448736482165752,5.473614366194606,0.7513537893533706,-1.027578592300415,0.686674177646637,-1.710408329963684,-1.1259772294543682,-9.621717795497178,-1.5248307093180715,50,jumping
1783067236354744800,5.0805191,1.3817360974609851,5.050842542865872,1.224540625667572,-1.1774157285690308,0.7065503001213074,-1.7210551500320437,-0.7692693122070282,-9.618081484821438,-1.7524619456015529,50,jumping
1783067236374668800,5.1004431,1.91029308495,3.4088048194020986,1.921718880458176,-1.4467384815216064,0.7145014405250549,-1.470818042755127,-0.4371108759351074,-9.58883668563664,-2.008358906904608,50,jumping
1783067236394591700,5.120366,2.4332947763994333,2.1438076801836488,1.742012593910098,-1.896125555038452,0.4791745245456695,-1.260972023010254,-0.1487774797990918,-9.524832123237848,-2.3293398964062333,50,jumping
1783067236414516000,5.1402903,3.237553349727392,-0.5828133322030306,0.2722776027396321,-2.2258315086364746,0.3552685379981994,-0.7902957201004028,0.0686895921095972,-9.420759169822931,-2.7230422771170733,50,jumping
1783067236434439000,5.1602133,2.790672336536646,-3.495526240521669,-0.7121037289828062,-2.096576452255249,0.7577371001243591,-0.3227748572826385,0.2008826743612065,-9.290707725542784,-3.132535516677797,50,jumping
1783067236454363000,5.1801373,2.3116984412536024,-6.660809303808212,-1.7087746334359049,-1.646644949913025,0.7108452320098877,-0.1544289588928222,0.2915468417571857,-9.166658152025937,-3.4724268122240898,50,jumping
1783067236474285800,5.2000601,2.322693882520497,-8.246221469208598,-2.2987752467945217,-1.3244609832763672,0.2837038934230804,-0.1261123865842819,0.3526767985677346,-9.058917323753237,-3.739251410254836,50,jumping
1783067236494209800,5.2199841,2.0455476508311925,-11.11215158356428,-4.345516929715871,-0.8057016134262085,0.2526040971279144,0.3158149123191833,0.3618219723254442,-8.975200929668546,-3.935128787142038,50,jumping
1783067236514134000,5.2399083,0.7771167377717793,-16.82250725195408,-3.402453404548764,-0.4264028370380401,0.9191266894340516,1.667832851409912,0.247302261034958,-8.937157322478294,-4.029447823783755,50,jumping
1783067236534057000,5.2598313,-2.2771892917998136,-17.975212475466726,-1.1009592541843651,-1.0485279560089111,0.3747183084487915,2.7923526763916016,-0.1096800801064353,-8.885786031681299,-4.147430060085654,50,jumping
1783067236553981000,5.2797553,-9.296305691680312,-13.541407021445035,-0.3398895419806241,-1.7278223037719729,-0.8868036270141602,1.6792409420013428,-0.5591260210148989,-8.747413918301463,-4.3977863383963705,50,jumping
1783067236573905000,5.2996793,-12.182883457267284,-9.98736780167818,0.4227729923725128,-1.11953604221344,-0.1239015012979507,0.1062100604176521,-0.7649593400534241,-8.598520410907268,-4.653027758400142,50,jumping
1783067236593827800,5.3196021,-7.964241679883003,-6.5777990121662615,-2.8149957536712287,0.3605947494506836,0.1518272906541824,-0.5994825959205627,-0.6997753586117178,-8.563879890158772,-4.726589838217199,50,jumping
1783067236613751800,5.3395261,-3.8363776132717726,-3.172345256757736,-2.210593397733569,1.7098571062088013,0.5240315794944763,-0.6266101598739624,-0.5647636615756899,-8.672517375010251,-4.543000280494987,50,jumping
1783067236633674800,5.3594491,-0.6686584088794887,-0.4679255547851323,-1.3163777823656797,3.100996494293213,0.9498451948165894,-0.6091629266738892,-0.3891298851635307,-8.880983015313744,-4.140905626752972,50,jumping
1783067236653598700,5.379373,0.3565454201620072,1.0603934350401163,0.8894184442192316,4.560025691986084,-0.0430031828582286,-0.4915196299552917,-0.2387807356009259,-9.181525466290116,-3.436998940490186,50,jumping
1783067236673522000,5.3992963,-0.7263157211434096,2.4953917516112325,5.629349117785692,3.832430124282837,-0.9571987390518188,0.1718218475580215,-0.2357043603628873,-9.447703875371811,-2.6183409626707435,50,jumping
1783067236693446000,5.4192203,-0.6095999245807528,3.874949920511245,6.298382935848832,1.4570469856262207,-0.7675880789756775,1.283348560333252,-0.4152680966351181,-9.568810381174089,-2.1061356827847657,50,jumping
1783067236713369900,5.4391442,-1.4383116789028048,4.943393391016126,3.322543709270656,0.2426353991031646,-0.6269102692604065,1.889454007148743,-0.7628574724033474,-9.576473463147876,-1.96967042593956,50,jumping
1783067236733292800,5.4590671,-2.9658266588687896,6.645732730707526,0.6458645393997431,0.6947083473205566,-0.5807638168334961,1.2385441064834597,-1.100724933971837,-9.5612718023628,-1.88172165498212,50,jumping
1783067236753217000,5.4789913,-3.006919716757536,7.297178869631886,-0.0099653675667941,1.466550350189209,-0.2203026115894317,0.0074935443699359,-1.2379998266994952,-9.584688333785534,-1.664778839842975,50,jumping
1783067236773140000,5.4989143,-1.3239113927409052,7.370007374477386,0.1296117376886308,1.948061227798462,0.139959380030632,-0.9373554587364196,-1.1446603026144206,-9.648689973574877,-1.3277601771235463,50,jumping
1783067236793064000,5.5188383,0.4802564093742519,7.369568983060121,0.8681330796062946,1.8952189683914185,0.4662637412548065,-1.1429954767227173,-0.9266253083243966,-9.715886610013246,-0.9556711508709936,50,jumping
1783067236812988000,5.5387623,1.3990651256635784,7.704833203327655,0.5055383693426847,1.4335455894470217,0.4526900053024292,-0.9214633107185364,-0.7159694645002483,-9.759806415760517,-0.6355735931403934,50,jumping
1783067236832910800,5.5586851,1.2853142433211209,7.954858349987864,-0.6152502054274082,0.9974929690361024,0.324585497379303,-0.5990682244300842,-0.5654076951002702,-9.781783854290843,-0.4091685376510023,50,jumping
1783067236852834800,5.5786091,1.464574247406423,7.7222262366771695,-1.222196108368039,0.8185932040214539,0.4370598793029785,-0.299205332994461,-0.4736740353092551,-9.792312262567878,-0.2379675925871357,50,jumping
1783067236872758000,5.5985323,2.1529148234859106,7.115657350355386,-1.399998899382353,0.6716342568397522,0.7321822643280029,0.1403021961450576,-0.4536302682552486,-9.795666833692788,-0.0975744491079356,50,jumping
1783067236892681700,5.618456,2.6794997802495955,7.262734163716435,-1.746350330853462,0.579932689666748,0.7744424343109131,0.539299488067627,-0.5235212218115106,-9.792656545960902,0.013696491802961,50,jumping
1783067236912606000,5.6383803,2.7241519919246437,7.426157131722569,-2.22946585598588,0.892367422580719,-0.0481589920818805,0.6824150681495667,-0.643590676183626,-9.784445766976477,0.1442663681833539,50,jumping
1783067236932529000,5.6583033,3.03459770501703,6.37287557451427,-1.949652889305353,1.310597538948059,-0.9323139786720276,1.0227105617523191,-0.8005082808837294,-9.766806065389511,0.3729212392929941,50,jumping
1783067236952452900,5.6782272,2.665526492215693,5.415335195705294,0.242095011248067,1.0138956308364868,-0.5694239735603333,1.5859816074371338,-1.048243270780146,-9.730286306765676,0.6270007028453052,50,jumping
1783067236972375800,5.6981501,1.988487793003768,5.222452908980846,-0.2727204511363059,0.37459596991539,-0.3160641193389892,1.6797699928283691,-1.3676413750045,-9.680455231148004,0.7672720739752054,50,jumping
1783067236992302800,5.7180771,1.1685220935866236,3.379161376288533,-0.4877518796961754,0.1576997339725494,-0.0819825306534767,1.4661248922348022,-1.6662169098220765,-9.629076341566442,0.8215931544885039,50,jumping
1783067237012227000,5.7380013,1.0853120415888726,0.1140665241628885,-1.1067712283987552,-0.2444698214530944,-0.1777868866920471,1.4073779582977295,-1.9392937001153825,-9.577596914219855,0.824105137309432,50,jumping
1783067237032150000,5.7579243,0.8918659835018217,-3.643356502598524,-0.9982126540023832,-0.9265829920768738,-0.1279167383909225,1.3547968864440918,-2.201344215612113,-9.529240587329864,0.719736561948806,50,jumping
1783067237052074000,5.7778483,0.2334030976831912,-5.647587954309582,-1.4458219084024428,-1.1059744358062744,0.0121086537837982,0.7008299827575684,-2.4034473351463674,-9.493342759996652,0.5198642336739226,50,jumping
1783067237071997000,5.7977713,1.4014052590489388,-6.699993897727132,-1.1495125649511813,-0.6884307861328125,0.6805144548416138,0.0097058806568384,-2.467572893576324,-9.485706566029789,0.3206704257151112,50,jumping
1783067237091921200,5.8176955,2.74589591396004,-11.80287993156314,-2.9113854591071604,1.2536057233810425,0.2812725603580475,0.0103999432176351,-2.4638287386119364,-9.486510283628103,0.3256481410624459,50,jumping
1783067237111845000,5.8376193,-1.1084916955158113,-18.180515267825125,0.5407727643311023,2.410284280776977,-0.8960365056991577,0.1398900300264358,-2.474132105961442,-9.461440139779448,0.7281539694212377,50,jumping
1783067237131768000,5.8575423,-4.891449853289127,-20.70669495640993,5.598385824245214,0.4052653312683105,-1.2693898677825928,0.7265881299972534,-2.5215967447087166,-9.413557860141992,1.0940068046979603,50,jumping
1783067237151692000,5.8774663,-7.386102769231796,-16.33299355021715,7.123233923089503,-2.765575885772705,-0.4072182178497314,1.23098623752594,-2.699471724176407,-9.383575394332407,0.9120061236023902,50,jumping
1783067237171615200,5.8973895,-7.094902147096395,-8.81284237602353,3.2665795377254483,-4.21680212020874,0.3971516788005829,0.9123899340629578,-2.9128607923567293,-9.36154417978823,0.2171334423404186,50,jumping
1783067237191539000,5.9173133,-4.727300616835057,-2.4820716667890546,-1.494588569658995,-3.399120330810547,0.8275247812271118,0.1160158067941665,-3.0065695881456134,-9.31835093474984,-0.5470666403109208,50,jumping
1783067237211463000,5.9372373,-1.361575352963805,0.7928565970867871,-2.9083886153787373,-1.87802255153656,1.3955986499786377,-0.3757893443107605,-2.955469515505433,-9.285389160868524,-1.1032459038168192,50,jumping
1783067237231385900,5.9571602,0.9486860412240028,1.921144587701559,-2.2847755091451107,-0.8574521541595459,1.79153311252594,-0.4537137150764465,-2.832174267487228,-9.278525704839826,-1.4346164776466783,50,jumping
1783067237251310000,5.9770843,2.586271169193089,2.216712757396698,0.28204949356094,-0.3650441765785217,2.7447750568389893,0.0280721373856067,-2.7136124777317043,-9.274669029411672,-1.6694892094910143,50,jumping
1783067237271233000,5.9970073,3.5176562392652038,1.012276762124896,1.5541205166883765,-0.2869262099266052,3.269219160079956,0.9325791001319884,-2.6909081862315536,-9.23950126991868,-1.887064331184328,50,jumping
1783067237291157000,6.0169313,2.012143247748911,1.926348001563549,1.1421066726088522,-0.6004489660263062,2.7469332218170166,1.5692145824432373,-2.8094124005809427,-9.150851511085031,-2.1306125369153914,50,jumping
1783067237311081000,6.0368553,0.3252306097701192,3.7513825775533913,1.888647508722544,-1.146871566772461,2.5126750469207764,1.7601760625839231,-2.998656038542092,-9.014286739388108,-2.433328240277618,50,jumping
1783067237331004000,6.0567783,0.0974415525764226,4.644382387390732,2.3985627779752017,-1.7195603847503662,2.791268110275269,1.7087247371673584,-3.1774323507636786,-8.826752827954293,-2.8570523958951237,50,jumping
1783067237350928100,6.0767024,0.735536042496562,4.641090944629907,1.6590414652347565,-1.5917140245437622,2.5884809494018555,1.2512744665145874,-3.2663568348854777,-8.62294758067727,-3.3385739298343657,50,jumping
1783067237370851000,6.0966253,0.7784779431223869,4.323336077567935,0.6409896268397569,-0.8971676826477051,1.6575546264648438,0.4585382640361786,-3.274583395960927,-8.479371468913556,-3.68072878639847,50,jumping
1783067237390775000,6.1165493,0.8064207197979092,5.097566884639859,1.2443237690240143,-0.4993959367275238,1.3331577777862549,-0.4014672338962555,-3.164410079844296,-8.428350306728483,-3.8884205197200177,50,jumping
1783067237410698000,6.1364723,2.198321360659599,2.799245519092679,1.6850900987267494,-0.3081182241439819,1.5165170431137085,-0.263374924659729,-2.982422696621716,-8.42337485640347,-4.040086706697941,50,jumping
1783067237430622200,6.1563965,2.7771798177570104,1.4249918863415718,-0.0743368635818362,-0.2991074025630951,1.2118512392044067,0.459574282169342,-2.882075485731661,-8.393764731037617,-4.172377746598422,50,jumping
1783067237450546000,6.1763203,1.9022122159555552,2.0187042136996984,-0.4550082055449485,-0.1582603603601455,0.5912076830863953,0.7127891778945923,-2.9122660413339734,-8.334907468399406,-4.268303049392998,50,jumping
1783067237470469000,6.1962433,0.2629842892155051,2.266779979857802,-0.1937918027848005,-0.0569955185055732,-0.1875991225242614,0.4609891772270202,-3.000305267053842,-8.292537814703584,-4.289800303190947,50,jumping
1783067237490392800,6.2161671,0.0186488786295056,2.3188410064846274,1.5814029297590255,-0.4729964137077331,-0.0330597385764122,-0.004920978564769,-3.055394409330189,-8.259603513351083,-4.314384124827384,50,jumping
1783067237510315800,6.2360901,0.4629299384549259,1.9172487493067976,3.2745705364793536,-0.8279681205749512,1.1856292486190796,-0.140771746635437,-2.9901594283536075,-8.205469187581539,-4.460897459086776,50,jumping
1783067237530240000,6.2560143,1.3603873122230172,1.5960335126578806,4.454372441232204,-0.4666603505611419,3.0276992321014404,-0.2356045246124267,-2.777305782224238,-8.151806570976973,-4.690949785037338,50,jumping
1783067237550164000,6.2759383,1.9071914656728504,2.088757993134856,5.867168278345465,0.0465262457728385,5.405106544494629,-0.708312451839447,-2.2995411166004835,-8.156711294153332,-4.934626731714606,50,jumping
1783067237570087000,6.2958613,2.954143235337734,0.7697901942759752,-10.91267296731472,-1.5007513761520386,-0.0190714169293642,-0.7016614079475403,-1.702124966288358,-8.158744845807552,-5.167981314080953,50,jumping
1783067237590011100,6.3157854,1.2102828216038644,-1.2088467974513768,7.253291212588548,-1.8604155778884888,-0.105793796479702,-0.163213163614273,-1.7588544231176375,-7.975909321323036,-5.427862084323167,50,jumping
1783067237609934000,6.3357083,0.6698159083515405,-1.5889841786682606,1.3001263202667237,-2.1476449966430664,0.5236215591430664,0.2044922113418579,-1.6906436412006616,-7.756033229210972,-5.758129226955771,50,jumping
1783067237629858000,6.3556323,1.3185337913557886,-1.7651602452635764,0.1434007551968097,-1.935368299484253,0.364926815032959,0.2915934920310974,-1.702952649284154,-7.498155615484714,-6.086707685849071,50,jumping
1783067237649782000,6.3755563,1.7274959927797318,-2.6063462812334297,-1.4519067812740802,-1.720773696899414,0.6638760566711426,0.7067526578903198,-1.7031049172364174,-7.260607673081755,-6.368154391211271,50,jumping
1783067237669705000,6.3954793,1.974878369846195,-4.323143185344338,-4.071817477479577,-1.9178920984268188,-0.1131171584129333,1.132034420967102,-1.7917217967137693,-6.9926020485728975,-6.638044514292478,50,jumping
1783067237689629200,6.4154035,-0.1825679595895111,-4.438054343637824,-4.544447848954796,-1.7585229873657229,-0.624497652053833,1.5994689464569092,-2.034911690526456,-6.68720222069323,-6.878288271650671,50,jumping
1783067237709552000,6.4353263,-2.7438798979625103,-2.4476889201939103,-4.953591544425487,-1.260729432106018,-1.0075435638427734,1.4651012420654297,-2.3512805100575087,-6.409211208742857,-7.040161672127247,50,jumping
1783067237729476000,6.4552503,-4.1691409566342825,-0.2329232052117586,-1.79674663913846,-0.5914738178253174,-0.2595681548118591,0.6124019026756287,-2.595077283722162,-6.222891933795809,-7.121205632132291,50,jumping
1783067237749399000,6.4751733,-4.00375808673203,-0.7293225748091936,-0.5956383269846439,0.1871265023946762,0.6973845958709717,0.0463722869753837,-2.5826906803578136,-6.180193778797984,-7.162772152751684,50,jumping
1783067237769323000,6.4950973,-1.9739532178252932,0.6654319941788911,-0.05800152259171,0.6368806958198547,0.9157309532165528,-0.2442702054977417,-2.4568162295013667,-6.249159178474545,-7.147198736044764,50,jumping
1783067237789247000,6.5150213,-0.1390638950362801,0.1910199999839067,0.3390554292440414,0.6272780299186707,0.9471498727798462,-0.1689463704824447,-2.2901531105302277,-6.352497972396016,-7.111354100203513,50,jumping
1783067237809170000,6.5349443,0.5885393086344003,-0.2589350138247013,0.0561643702924251,0.602675199508667,0.5567141771316528,0.0660187453031539,-2.177241747751832,-6.43764702963233,-7.070127186802029,50,jumping
1783067237829094000,6.5548683,0.3699655312925577,0.4986579621791839,0.6956523603975773,0.6766363382339478,0.3532858490943908,0.0501316115260124,-2.126710999432206,-6.527257742452621,-7.003027580997348,50,jumping
1783067237849016800,6.5747911,-0.0479620668753981,0.1098123738497495,0.943939138957858,0.4504344463348388,0.5728312134742737,0.014770433306694,-2.0692602425910533,-6.607226766702532,-6.945005600139498,50,jumping
1783067237868941000,6.5947153,-0.1110417695142328,0.0892804579526185,0.1245125148534774,0.1822860687971115,0.6775926351547241,-0.0990450680255889,-1.976402802934497,-6.650141194799542,-6.931078197073936,50,jumping
1783067237888865000,6.6146393,0.7791988047428429,0.1356710377275943,-0.3399310430347919,0.1697406470775604,0.7265797853469849,-0.0496378615498542,-1.867064184076339,-6.67588178525567,-6.9366463525950905,50,jumping
1783067237908788000,6.6345623,1.8065169225245716,0.2083019741743803,-0.6719482442051172,0.2807799279689789,0.6914010047912598,0.3239916861057281,-1.784370557168126,-6.701526514121889,-6.93368224209249,50,jumping
1783067237928712000,6.6544863,1.5264115487687289,0.5777314988940954,-0.7015636302679776,0.31794473528862,0.8870323300361633,0.5065950155258179,-1.7418898443132638,-6.72933338945806,-6.917534240368008,50,jumping
1783067237948635100,6.6744094,1.1396999037280675,0.925706732174754,-0.8070768456190824,0.4023992419242859,1.1608647108078003,0.6328826546669006,-1.6722599893786012,-6.756185740548372,-6.908536694920063,50,jumping
1783067237968559000,6.6943333,1.078643815871328,1.001743093150854,-1.1902835512787102,0.8395736217498779,1.179942965507507,0.7173192501068115,-1.6028244879722595,-6.816810012859106,-6.865307209524512,50,jumping
1783067237988480000,6.7142543,0.8106757468938827,1.6077882478594778,-0.4524737186312675,1.2102216482162476,1.407270908355713,0.7513605952262878,-1.531180808997154,-6.936084042537212,-6.761405521023273,50,jumping
1783067238008403000,6.7341773,0.8608484755560756,1.535058527213335,0.2751402986943722,1.265940546989441,1.6561713218688965,0.8588255047798157,-1.436354699616134,-7.080478484946489,-6.631296793597937,50,jumping
1783067238028327200,6.7541015,0.8581878780446947,1.296218206912279,0.4476414761692285,1.1515898704528809,1.4847054481506348,0.9833091497421264,-1.359623342113197,-7.21348819451034,-6.502876749911904,50,jumping
1783067238048250000,6.7740243,0.4175510199405253,1.311588210001588,0.4979577049553394,1.0623531341552734,1.212315797805786,1.034027934074402,-1.333333154950291,-7.327169518747925,-6.380062271147966,50,jumping
1783067238068174000,6.7939483,-0.0844466080553829,1.6330904468983412,0.8812509198546409,1.0770721435546875,1.1336461305618286,0.9482331871986388,-1.3362128020398318,-7.436186358305812,-6.252043209478258,50,jumping
1783067238088097000,6.8138713,-0.4545853039577603,1.6977134334564208,1.244964405015111,0.9174732565879822,1.3922654390335083,0.7723057866096497,-1.3118866084262728,-7.538068523678183,-6.134073248136043,50,jumping
1783067238108021000,6.8337953,-0.2920164685629308,1.424170633086562,0.99792733425498,0.6325180530548096,1.4486075639724731,0.5993771553039551,-1.2366811453163624,-7.614977575835585,-6.05418196529746,50,jumping
1783067238127945200,6.8537195,0.3691563338015228,1.474555835455656,0.5304395863652229,0.571971595287323,1.135485291481018,0.561941385269165,-1.166874253314361,-7.670450456732511,-5.997748130413889,50,jumping
1783067238147868200,6.8736425,0.3977973218742758,1.6379221048384904,0.4294482323527336,0.694139301776886,0.938870131969452,0.5849223136901855,-1.1350619417291137,-7.732063155558705,-5.924290680015087,50,jumping
1783067238167792000,6.8935663,0.0028474253203719,1.4668471607744693,0.5773404537498951,0.6251593232154846,1.071972131729126,0.5695042610168457,-1.1091183760467915,-7.799809827095269,-5.839795118251443,50,jumping
1783067238187715000,6.9134893,-0.489566381772235,0.9077285924136638,0.4027215534687042,0.3455077111721039,1.161991000175476,0.4806249737739563,-1.0615769457362592,-7.844329352301359,-5.788777463197707,50,jumping
1783067238207639300,6.9334136,-0.5941265341822057,0.6594599340319633,-0.296862301158905,0.2872878313064575,1.0877745151519775,0.3518963158130646,-0.997119817264378,-7.86930012742877,-5.766304350104928,50,jumping
1783067238227563300,6.9533376,-0.6142853789832443,0.3989841205060482,-0.4318371733158826,0.3509854972362518,1.042927384376526,0.2651115953922272,-0.925785058107972,-7.900916916441917,-5.7348781152278185,50,jumping
1783067238247486200,6.9732605,-0.6720186790928244,0.0879296278655529,-0.0814402658462524,0.1494886428117752,1.217277765274048,0.1496659368276596,-0.8300436605129391,-7.927593326443433,-5.712677389335632,50,jumping
1783067238267410000,6.9931843,-0.4175271276082843,-0.218927413085103,-0.1146726733624935,-0.0193630680441856,1.4023782014846802,0.2041411995887756,-0.7058024368815123,-7.930785400483011,-5.72493481336236,50,jumping
1783067238287333400,7.0131077,-0.0743844655832275,-0.1564759253472089,-0.5538637165725231,0.0548407211899757,1.3485386371612549,0.3399152457714081,-0.5886596836110577,-7.926498516944051,-5.744083165946602,50,jumping
1783067238307257000,7.0330313,-0.2731567236617207,-0.4861339961707592,-0.952997474682331,0.2903458774089813,1.11257004737854,0.3435888290405273,-0.5052582372270524,-7.943101861220597,-5.729069721210003,50,jumping
1783067238327181000,7.0529553,-0.9595138708390296,-0.9881056129425764,-0.7653688707023859,0.476029485464096,1.1469517946243286,0.1760658472776413,-0.4199953443527221,-7.98386583328545,-5.67907381041944,50,jumping
1783067238347104000,7.0728783,-0.8702300518855453,-1.05514559751451,-0.7653881599247455,0.5984472632408142,1.1476904153823853,0.0386243686079978,-0.3033776926686056,-8.045364550343155,-5.599148040789365,50,jumping
1783067238367028200,7.0928025,-0.5843133249698207,-1.6662006893396375,-1.405809631487727,0.5172917246818542,0.7316449284553528,0.0375066399574279,-0.2012840582363307,-8.107827728518844,-5.512983669030666,50,jumping
1783067238386951200,7.1127255,-0.7538132382694631,-2.72497909039855,-1.91187348600924,0.4040075838565826,0.2263054549694061,0.1533195227384567,-0.1648119016138836,-8.158911434546113,-5.438325026148557,50,jumping
1783067238406875100,7.1326494,-2.2774055648989973,-2.7094541890084742,-1.2882336378991603,0.0648749619722366,0.1736612766981125,0.1560247540473938,-0.1796438523037359,-8.18610865355134,-5.396826894590259,50,jumping
1783067238426798000,7.1525723,-3.976201971286535,-1.2526210572481156,-0.2826180872291326,-0.3930832743644714,0.533411979675293,-0.2013536095619201,-0.141376017036708,-8.167814287447928,-5.425607583394647,50,jumping
1783067238446722000,7.1724963,-3.999838867461681,-0.0757137048929929,0.1040975033342838,-0.6789487600326538,0.746939480304718,-0.4865800440311432,-0.0091024317361705,-8.106919381502271,-5.517985422840714,50,jumping
1783067238466646300,7.1924206,-3.3199685980856417,0.44650107396245,0.2500713238894939,-0.6964804530143738,0.6378495097160339,-0.3262566328048706,0.140917651410494,-8.028937731677294,-5.629093681719898,50,jumping
1783067238486569200,7.2123435,-3.6398970097944137,0.8957721971601247,-0.0905652370661497,-0.5258027911186218,0.2795260548591614,-0.1856369972229004,0.2278604967284016,-7.956272308439016,-5.728541897943615,50,jumping
1783067238506493200,7.2322675,-4.335578596286475,1.8216934488683936,0.2442705286562442,-0.1248208656907081,0.1417268514633178,-0.3649822175502777,0.2892280799534171,-7.9168819628149265,-5.780113679748773,50,jumping
1783067238526416100,7.2521904,-4.211524931116402,2.082027223575115,0.494327239498496,0.306054025888443,0.1355445235967636,-0.6700049638748169,0.3872365456975996,-7.922831226608157,-5.766209073036909,50,jumping
1783067238546340400,7.2721147,-3.3434497191771864,2.1105127288252112,0.6324135216742753,0.7362900972366333,-0.0169897507876157,-0.7290829420089722,0.5106603519989177,-7.976755124497413,-5.681635185340046,50,jumping
1783067238566264000,7.2920383,-2.014317523048073,1.4326765956252812,0.8432581660687923,0.9472661018371582,-0.3812320828437805,-0.5945999622344971,0.5950047052562236,-8.065513019880653,-5.546518274363876,50,jumping
1783067238586187000,7.3119613,-1.6934182204805313,0.9954127210855483,1.1944827565342186,0.8206467032432556,-0.5904050469398499,-0.5170530080795288,0.626053119796887,-8.158117069298028,-5.405884061270952,50,jumping
1783067238606111000,7.3318853,-1.3940502201110123,0.7340805829912423,1.4325363103717563,0.5093361735343933,-0.5733045339584351,-0.529583215713501,0.6521470537353307,-8.221945690608024,-5.305156911152601,50,jumping
1783067238626034000,7.3518083,-0.6314691534962504,0.315331439307332,1.277515260007977,0.3534430861473083,-0.8369540572166443,-0.2982345819473266,0.6507724043812603,-8.259890513598918,-5.246053564798832,50,jumping
1783067238645958100,7.3717324,-0.6055255878139287,-0.5179056834846735,1.1067249781042336,0.2772000730037689,-1.3550238609313965,-0.0183867197483778,0.559886045601964,-8.291708378142118,-5.206196186184883,50,jumping
1783067238665882000,7.3916563,-1.7464768798425792,-0.9736720139205456,1.4576152220487597,0.0082371039316058,-1.4964720010757446,-0.0001853272842708,0.4069210875177755,-8.307749412360787,-5.194813791427016,50,jumping
