time,seconds_elapsed,acc_x,acc_y,acc_z,gyr_x,gyr_y,gyr_z,grav_x,grav_y,grav_z,fs_hz,activity
1783067219210127000,0.0,0.1674063385538756,5.119629663366079,3.233086725707352,-0.7141802310943604,-0.2942071855068207,0.3010929822921753,-1.356127170560509,-9.085923404100535,-3.431805463500321,50,jumping
1783067219230050000,0.019923,0.3754324183963239,5.481482030829787,2.252059965109825,-0.6720214486122131,-0.4402678608894348,0.1323316544294357,-1.4200525302432476,-9.02968889118135,-3.5522608119174834,50,jumping
1783067219249974000,0.039847,1.0601624027632175,5.321749734035134,1.670692740061879,-0.3498027920722961,-0.6858280897140503,0.1813572347164154,-1.4854324726484716,-8.988319938960672,-3.629598318620026,50,jumping
1783067219269897000,0.05977,0.7696762125074863,4.915579501417279,1.3604624232858418,-0.1836708486080169,-0.8277602195739746,0.394879937171936,-1.589540643507242,-8.962977407911419,-3.6481224018260834,50,jumping
1783067219289821200,0.0796942,-1.271129942885041,3.480547282576561,1.822907500833273,-0.1712453663349151,-0.4676445722579956,0.5158859491348267,-1.7314980680279433,-8.932144462752342,-3.6591105365693566,50,jumping
1783067219309745200,0.0996182,-1.3834909783042966,3.7391514570116993,2.5208643387809397,-0.0132867554202675,0.3905074894428253,-0.0406587533652782,-1.7837385428749024,-8.915564499351381,-3.674420333904028,50,jumping
1783067219329668000,0.119541,0.7124417287655175,2.231667749944329,1.4088473917484283,-0.0479752793908119,1.016777276992798,-0.2312340289354324,-1.6913710786923766,-8.92151610123217,-3.703540045404434,50,jumping
1783067219349592000,0.139465,2.5682687717735764,8.18330645561e-05,-1.7969588205844162,-0.1332213580608368,0.3364118039608001,0.0766186118125915,-1.6200155690088869,-8.91668736590147,-3.7468148312464353,50,jumping
1783067219369516000,0.159389,1.5906880599766968,-3.012051818948984,-3.058939826852083,0.0308298151940107,-0.3730795979499817,0.432657390832901,-1.6696968608923255,-8.903141655629872,-3.757202954269945,50,jumping
1783067219389439200,0.1793122,-0.8214816569380462,-5.36838230587244,-2.3066268370777365,0.1554412394762039,-0.6062172651290894,0.5690873861312866,-1.8000195233292875,-8.893727930596471,-3.7191301209852097,50,jumping
1783067219409363000,0.199236,-2.944456538581848,-9.524542200380564,-3.354531961944699,-0.2909207940101623,-1.1591798067092896,0.5853814482688904,-1.9656022997178133,-8.870857342618704,-3.689807872650027,50,jumping
1783067219429286000,0.219159,-5.485917967450618,-14.561209502899644,-4.268227938330173,-0.7448515892028809,-0.8582443594932556,0.6330347657203674,-2.1580197454094887,-8.803056310546397,-3.744267484851181,50,jumping
1783067219449210000,0.239083,-8.151223802652954,-17.079311098968983,-6.758564160117507,-0.2707220315933227,0.2474038004875183,0.5128139853477478,-2.282108481892944,-8.733325771716236,-3.832934779341519,50,jumping
1783067219469133000,0.259006,-7.979923233139514,-17.78324379645586,-9.167463623189926,0.6477324366569519,0.667168140411377,0.3862336874008178,-2.3191838285729287,-8.728948287284373,-3.820631762607396,50,jumping
1783067219489057000,0.27893,-6.654630322912335,-16.029214017015693,-9.168639681231976,1.3591091632843018,0.7686232924461365,0.3795313537120819,-2.332454375164956,-8.785338867548107,-3.680741645880044,50,jumping
1783067219508981000,0.298854,-5.6611494466722005,-12.97010584785938,-10.422446148872377,2.6377289295196533,0.668759286403656,0.3240039050579071,-2.3428164869643746,-8.904816310843826,-3.3742911399036646,50,jumping
1783067219528904000,0.318777,-4.7599064168855545,-10.415203922659158,-9.276552943462132,4.352916240692139,1.0560511350631714,0.3266298174858093,-2.3462338941924274,-9.105920482468605,-2.783489731556177,50,jumping
1783067219548828200,0.3387012,-3.246329653640091,-8.528893332451581,-6.709445032161474,5.22663164138794,1.5329058170318604,0.5920167565345764,-2.366127658316493,-9.315988297271728,-1.945294401834905,50,jumping
1783067219568751000,0.358624,-3.6696161484926937,-5.212155971372127,-3.5569472161680458,5.10390567779541,1.1334174871444702,0.4401752352714538,-2.4361969275817272,-9.44185456482172,-1.0424635914001614,50,jumping
1783067219588675000,0.378548,-3.4178239921599625,-0.4396849642068147,-1.4608832839339971,5.0604424476623535,0.2043829709291458,-0.3687871098518371,-2.4304629139743743,-9.499994034579396,-0.1156982809500303,50,jumping
1783067219608599000,0.398472,0.4685328730285167,0.2359036823272705,2.731364407521486,4.179105281829834,0.4866021275520324,-0.3230627179145813,-2.347083204498142,-9.490389755409955,0.7707539978068322,50,jumping
1783067219628522200,0.4183952,4.823340778180957,2.4267677127182483,4.601472050946951,1.642941117286682,0.4371900558471679,0.7257748246192932,-2.394572831556201,-9.418734385997055,1.3129539453968404,50,jumping
1783067219648446200,0.4383192,4.508222981624305,7.6257298559963695,2.4801696325600147,-1.2707698345184326,-1.0870345830917358,0.9041615128517152,-2.558893625184893,-9.36945568356514,1.3548926603294908,50,jumping
1783067219668369200,0.4582422,2.54897838037014,9.59040028169155,2.52189865026474,-2.739901304244995,-1.621193289756775,0.2203123569488525,-2.6336729718372225,-9.390334220942854,1.0275046533297747,50,jumping
1783067219688292900,0.4781659,2.643268775439262,11.102449689239265,1.6336720461785792,-2.7406485080718994,-1.708521008491516,-0.0786729976534843,-2.607804663348198,-9.435337730273604,0.5866505722783506,50,jumping
1783067219708217000,0.49809,5.278643582758307,12.15504618679285,-0.0374561626911163,-2.1589138507843018,-1.9786834716796875,0.1534630358219146,-2.597287360987067,-9.45408685440719,0.211484093075525,50,jumping
1783067219728140000,0.518013,4.767860590760409,12.66184069367647,-0.4920306529939174,-1.236282467842102,-2.337557077407837,0.1654001027345657,-2.6302877133131024,-9.447325105187296,0.0052594674562511,50,jumping
1783067219748064000,0.537937,3.341137058320641,11.82012683444023,0.0467261044728104,-0.544651210308075,-2.257831573486328,-0.059460662305355,-2.6418799514293667,-9.444029570773244,-0.0337073429680545,50,jumping
1783067219767987000,0.55786,2.9051822205528617,10.20661962441206,0.3382967198312282,-0.3717677891254425,-1.9883977174758911,-0.1498907208442688,-2.621020411013067,-9.449901677677037,0.0004822878195891,50,jumping
1783067219787911200,0.5777842,3.555953821216524,9.486382273334264,-0.3870423382997512,-0.5778372287750244,-2.0414087772369385,-0.0651952177286148,-2.598871999830008,-9.456007008814812,0.0142952579887758,50,jumping
1783067219807835100,0.5977081,3.0396131950914858,8.328022969582676,-1.2560767506599426,-0.524693489074707,-1.8209844827651975,0.0045446716248989,-2.594590669248998,-9.457187158510088,0.0085481634208525,50,jumping
1783067219827758000,0.617631,2.105152078574896,7.558520944598317,-1.7445500034332275,-0.3385119140148163,-1.4278030395507812,-0.1910951137542724,-2.5795032824933526,-9.461314467573166,0.010549782141915,50,jumping
1783067219847682000,0.637555,2.7994869266331195,6.64837243156135,-1.7609680542707442,-0.2637951374053955,-1.2634986639022827,-0.2488247454166412,-2.5319351833716035,-9.474129525482654,0.0241238303087186,50,jumping
1783067219867605000,0.657478,3.2349174482658505,5.800339890697599,-1.3607049998700618,-0.4193450212478637,-1.2768691778182983,-0.0985183790326118,-2.5004963812738654,-9.48247357545793,0.0248901225230772,50,jumping
1783067219887529200,0.6774022,2.390855564598739,4.954900873458385,-1.1577478938549757,-0.600287914276123,-1.2169833183288574,-0.2109559476375579,-2.4731559544056654,-9.489668455398082,-0.0086771543871611,50,jumping
1783067219907453200,0.6973262,1.6188826194562016,3.905716230174898,-0.987175638616085,-0.7816320657730103,-0.9775965213775636,-0.3619326651096344,-2.4203417713239785,-9.502910798808932,-0.0837806184273213,50,jumping
1783067219927376100,0.7172491,1.718591970834136,3.540300032749772,-0.3051858746017329,-0.9883899092674256,-0.4791215658187866,-0.5501129031181335,-2.335846794082224,-9.521912436398864,-0.2176477485381066,50,jumping
1783067219947299800,0.7371728,2.159044412282109,3.845751883077621,-0.6911942119449377,-0.9862969517707824,-0.4184933304786682,-0.7488564252853394,-2.21575706410706,-9.544998712953925,-0.392182258471474,50,jumping
1783067219967220000,0.757093,2.0452043903514743,3.919579335832596,-0.6368301690727471,-0.7135916948318481,-0.3765302300453186,-1.008097529411316,-2.051189894501865,-9.574683657121655,-0.5370766497595235,50,jumping
1783067219987143000,0.777016,0.8363181376725435,2.5403192730963227,0.6619716245919466,-0.6684482097625732,0.1864378005266189,-0.9839130640029908,-1.857594783332944,-9.606655835443734,-0.6571834404673427,50,jumping
1783067220007067000,0.79694,0.7027442183546722,1.1461053868561983,0.7940081052094697,-1.0070801973342896,0.7765920758247375,-0.8308144211769104,-1.6762866145461797,-9.626367667129635,-0.8327644637789576,50,jumping
1783067220026989800,0.8168628,-0.3486499176718294,1.4158745139062403,0.3138035721529275,-1.3152800798416138,0.6076880097389221,-1.1941779851913452,-1.4827645686134696,-9.63307330224812,-1.0842875939119607,50,jumping
1783067220046913800,0.8367868,0.1433728442765772,-0.058559156474471,-0.7796322277240455,-1.119558811187744,0.3585795164108276,-1.575410008430481,-1.18709498437047,-9.641846975812316,-1.340133628745377,50,jumping
1783067220066838000,0.856711,0.6915120457224547,-7.305871294653415,-1.4619615806899964,-0.721149742603302,0.4257150292396545,-0.7945442795753479,-0.9396109004952012,-9.64253145094514,-1.519567528092861,50,jumping
1783067220086761000,0.876634,-1.932908675253391,-9.717261405497789,-0.3884707636676728,-1.3931457996368408,0.4165297746658325,-0.7024266123771667,-0.8084520064298063,-9.622500470307468,-1.7100469914592802,50,jumping
1783067220106685000,0.896558,-3.686712829244137,-10.150362899661063,-1.1477093149214983,-1.9585477113723757,-0.0323192551732063,-0.9089137315750122,-0.6255437820352614,-9.56843219551146,-2.055283447425812,50,jumping
1783067220126608000,0.916481,-4.225245997954905,-17.381731034255026,-3.3796775091171263,-1.4329912662506104,-0.246113896369934,0.0042666625231504,-0.5432552653292194,-9.497670560067892,-2.381070668165385,50,jumping
1783067220146532000,0.936405,-7.803237463456392,-21.0925799413681,-2.259455920580029,-1.119269609451294,0.2251056134700775,0.6045383214950562,-0.6123815911885351,-9.432293540272116,-2.612894095441699,50,jumping
1783067220166456000,0.956329,-10.791405717992784,-19.23483610495329,-1.4133645769119263,-1.0597739219665527,0.3279084265232086,0.2274470031261444,-0.6865470437262207,-9.365548739254477,-2.825868737602234,50,jumping
1783067220186379000,0.976252,-9.670382749944924,-16.593118650609252,-2.3832266771554944,-0.2670544385910034,-0.0933330580592155,-0.5064932703971863,-0.6499730706971139,-9.325161783808468,-2.964671935875714,50,jumping
1783067220206303000,0.996176,-4.473021027600765,-15.4944711804986,-2.4638430593982337,0.8340137004852295,-0.6642561554908752,-0.3760836124420166,-0.5741059653406962,-9.349262205842138,-2.9038080095902083,50,jumping
1783067220226226200,1.0160992,-0.7902361854553223,-12.292716289383172,-0.6781634654581546,1.1551048755645752,-1.1844531297683716,0.3702299892902374,-0.6242879367552697,-9.409674296706914,-2.6904782703816887,50,jumping
1783067220246150100,1.0360231,0.4922998983893543,-7.188903203830122,0.4826853170216083,0.5003917813301086,-1.5344359874725342,0.8885413408279419,-0.8200061775580048,-9.445860293331744,-2.504737964366376,50,jumping
1783067220266073900,1.0559469,-0.0244347685545682,-1.433738671898842,1.1258964193031191,-0.1806953996419906,-1.86103355884552,0.7596773505210876,-1.0698649546753614,-9.435786058562991,-2.4477948647864163,50,jumping
1783067220285996800,1.0758698,-0.1250549511671066,2.5110697977364063,1.029294824682176,-0.9332414269447328,-2.5931336879730225,0.2934619784355163,-1.2754032362900674,-9.398439785987138,-2.492600951848924,50,jumping
1783067220305921000,1.095794,0.1252256315588951,5.47640253560841,1.85637079449594,-1.9471919536590576,-2.751779079437256,0.0647348091006279,-1.4481718325294552,-9.319245837762953,-2.6879072508499027,50,jumping
1783067220325844000,1.115717,0.5575643246561288,8.155143606445193,1.3301242759063838,-2.294877290725708,-2.237146377563477,-0.3323710560798645,-1.5700122055642305,-9.19692001929879,-3.020280718111992,50,jumping
1783067220345768000,1.135641,1.023283163177222,10.090849218940734,-0.0754857413560152,-1.527096152305603,-1.8554368019104004,-0.8791071176528931,-1.5865191037289796,-9.0912700258255,-3.316948373481631,50,jumping
1783067220365692000,1.155565,1.2849183758713305,11.09083757737875,-0.8362547170475125,-0.4797079265117645,-1.6625970602035522,-1.219146728515625,-1.5146119515120982,-9.057710286051034,-3.440088430938125,50,jumping
1783067220385614800,1.1754878,1.7337164747297762,11.839341237998008,-0.4271823332473635,0.2791937589645386,-1.2581182718276978,-1.367993950843811,-1.3784765111431478,-9.090497872409223,-3.41072263572216,50,jumping
1783067220405539000,1.195412,2.084926306017488,11.277319933933018,0.1857517041921615,0.8220436573028564,-0.7482521533966064,-1.358818292617798,-1.1986227058831602,-9.16338950561881,-3.281155175566673,50,jumping
1783067220425462000,1.215335,2.077692993763089,10.558403602325916,0.8753960563465952,1.1122488975524902,-0.313831627368927,-1.3797379732131958,-0.981896675299853,-9.255658039471507,-3.0885356314316392,50,jumping
1783067220445386000,1.235259,2.2662997951254247,9.45376770545542,1.5089067256078124,1.1872704029083252,0.1007860600948333,-1.2708700895309448,-0.7382004394002258,-9.348272610282898,-2.869710801938176,50,jumping
1783067220465310200,1.2551832,2.860663279868662,8.70062527911961,1.5373752797231075,1.0310934782028198,0.3609086573123932,-0.8949995040893555,-0.520630286142975,-9.423674180486795,-2.663397955754399,50,jumping
1783067220485233200,1.2751062,3.0431942684486506,8.1090429495275,1.9497265390634533,0.8386820554733276,0.6600170135498047,-0.3896746039390564,-0.3720135133309289,-9.477478251388668,-2.4918635774850846,50,jumping
1783067220505157000,1.29503,2.3970918286398053,7.619339862698316,1.916383072388172,0.635017991065979,0.6288813352584839,-0.1809753626585006,-0.2933366660497151,-9.514799389523269,-2.3564671189151705,50,jumping
1783067220525080000,1.314953,1.6045277847588062,7.288754155635833,2.271830833506584,0.3517675101757049,0.5172442197799683,-0.2479730993509292,-0.2274131000207737,-9.53915349405706,-2.26345127382651,50,jumping
1783067220545003800,1.3348768,1.2369840737856923,6.685158732166886,2.272115641797334,0.0154957454651594,0.4653777480125427,-0.2713997960090637,-0.1555530566149391,-9.548174420380592,-2.2312641375795006,50,jumping
1783067220564928000,1.354801,0.7722837646573781,6.51739335104227,2.2101386397033926,-0.1357044428586959,0.4482859969139099,-0.3904663026332855,-0.0739250450776657,-9.545759175932409,-2.2457522432677446,50,jumping
1783067220584851000,1.374724,0.7718360939551144,6.541598402494191,1.7789406410738824,-0.201193019747734,0.4101620316505432,-0.4145697951316833,0.0258820675863185,-9.537941195657847,-2.2797775547273456,50,jumping
1783067220604775000,1.394648,0.542707531785965,5.967586216384172,1.2925135071754454,-0.0795070603489875,0.3988577723503113,-0.3747371435165405,0.1158475806270726,-9.530457561904193,-2.30810421615392,50,jumping
1783067220624697900,1.4145709,-0.004509951705113,5.808367129808664,0.7675913690574466,0.0173412896692752,0.1283324062824249,-0.5120811462402344,0.2128056240028701,-9.52805868406892,-2.3111031057089564,50,jumping
1783067220644622000,1.434495,-0.6434861198306083,4.112790123859048,0.6468652408748865,0.0062377294525504,-0.0612126179039478,-0.7059406638145447,0.3301448314271867,-9.526230299597978,-2.304850036663562,50,jumping
1783067220664546000,1.454419,-1.053607135900855,1.4522469730138778,1.403861127768457,-0.6587954759597778,0.289711982011795,-0.7759705185890198,0.4733126911835745,-9.508587090879676,-2.352264406528324,50,jumping
1783067220684469000,1.474342,0.5592013512734323,0.1189858603864908,0.5248828290209174,-1.924843192100525,0.4809598326683044,-0.8973971605300903,0.6561554125938565,-9.435573877117037,-2.590330673716962,50,jumping
1783067220704393000,1.494266,3.322914003887772,-3.335337432131171,-4.441876240013539,-2.296499252319336,-0.5430588126182556,-0.9917996525764464,0.8320732666444033,-9.297067908224465,-3.0070836751475927,50,jumping
1783067220724316000,1.514189,4.033418480980396,-7.703752422353625,-6.716694272637367,-1.1677491664886477,-1.358696460723877,-1.1386460065841677,0.964477265400067,-9.163697548654676,-3.356609937262535,50,jumping
1783067220744240000,1.534113,5.155647317686677,-11.003019008672236,-7.338439685302973,0.0114575512707233,-2.667076110839844,-0.9323863387107848,1.0273787619277834,-9.105731097376346,-3.492928332982957,50,jumping
1783067220764164000,1.554037,2.6504560565948485,-18.75563336935043,-5.504681120109558,0.2671128213405609,-3.630423784255981,0.1083317995071411,0.8881739240508526,-9.113771780490875,-3.510086680793762,50,jumping
1783067220784087000,1.57396,-4.369726949603855,-24.01349427632093,0.2112117241412401,-1.3008726835250854,-1.2567510604858398,1.568463921546936,0.5405007789893076,-9.0942738838166,-3.629383214564621,50,jumping
1783067220804010800,1.5938838,-9.580851532101631,-21.3311233245492,-2.355161150883138,-1.7640153169631958,0.0679576769471168,1.0316779613494873,0.2485529004168696,-8.975428308683632,-3.943384866572916,50,jumping
1783067220823935000,1.613808,-11.99843874402046,-15.591401276421546,-4.786829787385464,-0.2178594917058944,-0.3786955177783966,-0.854185163974762,0.2098382620972581,-8.889909833613038,-4.134713786375523,50,jumping
1783067220843858000,1.633731,-9.0651196855247,-9.37853389303386,-3.588219721788168,1.075508952140808,-0.4931611120700836,-2.31763243675232,0.4766693446677177,-8.920647501704096,-4.045392119629681,50,jumping
1783067220863782000,1.653655,-3.079667557582259,-4.755850127232074,-2.0361872634202243,1.5020610094070437,0.6917163133621216,-1.955656170845032,0.8777500721268355,-8.994050007045269,-3.8088071770399807,50,jumping
1783067220883704800,1.6735778,1.421990658698976,0.3013473376184701,-2.8101746171250936,1.992978572845459,1.1438807249069214,-1.2221107482910156,1.2349743413984775,-9.08567264420986,-3.4778961835458877,50,jumping
1783067220903629000,1.693502,2.8482562182381748,2.804571098029613,-1.7615867706909776,2.813448667526245,0.1950704902410507,-0.6808465123176575,1.4560696000419555,-9.216693225783107,-3.0170901053771373,50,jumping
1783067220923553000,1.713426,2.0429836455620825,2.785906729570031,1.8508014699310065,2.719635248184204,-1.2337563037872314,-0.1355003267526626,1.5029786507330831,-9.363227602830529,-2.498283381399512,50,jumping
1783067220943476000,1.733349,-0.1049149571970105,2.398207388666272,5.18016567287147,1.0716112852096558,-2.085280418395996,0.5232671499252319,1.3885064683787525,-9.461551198938489,-2.1728990423724053,50,jumping
1783067220963400000,1.753273,-0.3656468643758446,2.773996511545777,6.334021819984913,-1.186099410057068,-1.9599119424819944,1.0179799795150757,1.1470544312093407,-9.477761159983276,-2.2420317614398897,50,jumping
1783067220983323400,1.7731964,1.472673674970865,3.86114000634551,3.3497157938346267,-2.1894354820251465,-2.011669158935547,1.186605453491211,0.8434170829575508,-9.411197560751438,-2.6245719660148024,50,jumping
1783067221003247400,1.7931204,1.9499473422072824,4.762552839741111,1.2372367333725094,-1.6444014310836792,-1.9786611795425413,0.9541248083114624,0.5187738446213305,-9.313480698364971,-3.026602906870842,50,jumping
1783067221023171000,1.813044,0.9678446229413152,5.747553472405672,0.2906877041772008,-0.5998934507369995,-2.1467154026031494,0.2995280921459198,0.2719030520725063,-9.250271670258044,-3.2448332776024937,50,jumping
1783067221043094300,1.8329673,-1.2349281641691925,7.469425780084729,2.1763997439697382,-0.1897318810224533,-1.8289915323257449,-0.5145812630653381,0.1546943026274442,-9.228714502966405,-3.313196327471733,50,jumping
1783067221063018200,1.8528912,-2.091662044013292,8.90536634594202,3.506704052618146,-0.2962597906589508,-1.049845576286316,-1.2490519285202026,0.2241846577598713,-9.210327782404422,-3.3600592009335752,50,jumping
1783067221082941200,1.8728142,-1.6663777994722129,9.680172907075285,2.6148212641119954,-0.2364872246980667,-0.4706239104270935,-1.5980525016784668,0.4408457881471141,-9.180832223328949,-3.418824109113216,50,jumping
1783067221102865200,1.8927382,-0.5896230122178793,9.842851778715849,1.37167413765192,0.1504077911376953,-0.0050551388412714,-1.5316956043243408,0.7169645399522036,-9.15840937911868,-3.4321842336848376,50,jumping
1783067221122789000,1.912662,-0.2328819964185356,9.540875495544077,0.6308315131798387,0.686263382434845,0.2363537549972534,-1.190998673439026,0.974037120905891,-9.163938371673224,-3.3531884383812547,50,jumping
1783067221142712000,1.932585,-0.1434416717290878,8.796187009298801,0.8361424888446927,0.9667397141456604,0.3908351063728332,-0.9138219356536864,1.1880617105107754,-9.197065565249323,-3.1894927909135817,50,jumping
1783067221162636300,1.9525093,-0.0861266700968146,6.955698843589425,1.2605915977358817,0.8785901069641113,0.4626122415065765,-0.4217105209827423,1.3402394272074103,-9.23797157613337,-3.0056653327822684,50,jumping
1783067221182559200,1.9724322,-0.1355894969239831,5.081442848312855,1.9004554354161023,0.6395853161811829,0.7206207513809204,0.1857499033212661,1.3950892077699302,-9.279676043918728,-2.8481106722876426,50,jumping
1783067221202483200,1.9923562,-0.8687642171166837,4.361180947315693,2.1218632671400903,0.3070433139801025,0.7679229974746704,0.3888579607009887,1.375885910128057,-9.315680838757752,-2.7377713519543407,50,jumping
1783067221222407400,2.0122804,-1.3694633297346532,3.971435779798031,2.747347866334021,-0.1332766115665435,0.7505113482475281,0.2510865032672882,1.3555468864545226,-9.329658510705828,-2.7000617990240454,50,jumping
1783067221242330400,2.0322034,-1.0501138869576156,2.6343349428772926,2.849025156784057,-0.5151350498199463,0.7145490646362305,0.0917889550328254,1.3648017676644026,-9.316102863562106,-2.7418843402311204,50,jumping
1783067221262254300,2.0521273,-0.5507487994223833,1.419369954806566,2.0988710986092687,-0.7692816257476807,0.6253219842910767,0.0078036147169768,1.391113582137227,-9.281329071822762,-2.844664623486996,50,jumping
1783067221282178000,2.072051,0.7017071303918957,0.8064636821568012,1.1514300890102982,-0.9346970319747924,0.8283277750015259,0.0629954412579536,1.4303293018467724,-9.231807792806626,-2.982994359029829,50,jumping
1783067221302101200,2.0919742,3.364685107168555,-0.52253743493855,-0.7126885431334375,-0.7722246646881104,1.1392711400985718,0.2979518175125122,1.4609776842191815,-9.182508047586678,-3.117285925097763,50,jumping
1783067221322025200,2.1118982,5.20489620950222,-5.520410019639134,-3.3838995107263323,-0.320199966430664,0.7415716052055359,0.9334267377853394,1.4159692064523697,-9.165772601363065,-3.1865377405002717,50,jumping
1783067221341948200,2.1318212,3.927216114321351,-7.097575750219821,-1.597668712644279,-0.1890169084072113,0.4960766732692718,1.388985514640808,1.2354308529943228,-9.18209712869823,-3.2145266944050785,50,jumping
1783067221361872100,2.1517451,1.988673524834216,-9.88376831099391,-0.8807833023428916,-0.0477340184152126,0.3134956657886505,1.5918680429458618,0.9849249370798469,-9.206847539073229,-3.2302102934882044,50,jumping
1783067221381796000,2.171669,0.3396022494718432,-12.153652686607836,-1.0631830657586454,0.0233674738556146,-0.0125055443495512,1.3598004579544067,0.7172880728181451,-9.233748990002274,-3.22393369743675,50,jumping
1783067221401719300,2.1915923,-1.1486307406153529,-14.668838687491416,-0.7236290393427014,-0.1457564979791641,-0.0356946103274822,1.064775466918945,0.496210861288011,-9.244597716274855,-3.234434925445914,50,jumping
1783067221421643300,2.2115163,-2.2913187933087347,-17.221157025939224,-1.3438035494297742,-0.2827553451061249,-0.101262517273426,1.0531494617462158,0.2945545539394952,-9.23881153408885,-3.2753596410304304,50,jumping
1783067221441566200,2.2314392,-4.213671295495331,-15.20436829047203,-1.8842840528160327,-0.263077050447464,-0.6337669491767883,0.5547325015068054,0.1171923462995327,-9.223222335290908,-3.3299878877967592,50,jumping
1783067221461490200,2.2513632,-4.12520653783977,-11.1816068125844,-1.1724693699076771,0.04324222356081,-0.7942805290222168,0.1847921758890152,0.0059825096173502,-9.215345902827382,-3.3537688686177134,50,jumping
1783067221481414400,2.2712874,-2.9249866989582776,-6.87319942407906,-0.5392547609835863,0.5464515686035156,-0.829833984375,0.1711818277835846,-0.0789881873858626,-9.234989345452188,-3.2983512250393625,50,jumping
1783067221501337300,2.2912103,-2.132430546122789,-2.127289091581106,0.1188221942573785,0.8677898049354553,-1.237451672554016,-0.1536617279052734,-0.1549298466826789,-9.280632321730256,-3.1648452563911675,50,jumping
1783067221521261300,2.3111343,-1.612755368747562,0.921726722627878,0.1078235381200909,1.5115668773651123,-1.6427381038665771,-1.126590371131897,-0.1324678851715754,-9.352607424616814,-2.9464485891819,50,jumping
1783067221541185000,2.331058,1.5957907899431882,0.1823147154808044,0.4832008653283119,1.8155549764633176,-1.7272464036941528,-1.1987104415893557,0.0229888235129765,-9.451765133461356,-2.614190272732079,50,jumping
1783067221561108200,2.3509812,5.473114599978923,-1.1607681184589862,0.6546472730532288,0.6110997796058655,-1.7418196201324463,0.5305557250976562,0.0145454698901798,-9.518121227422355,-2.361264143933356,50,jumping
1783067221581032200,2.3709052,5.0488230197370045,0.3401403018712997,-0.454317300671339,-1.417171597480774,-2.199338674545288,2.0665271282196045,-0.3448151618145406,-9.492574698233604,-2.437728667193651,50,jumping
1783067221600955100,2.3908281,0.677198054492101,2.5336896258234978,-0.3911056422159075,-2.079973697662353,-1.8589719533920288,1.9836206436157229,-0.8584091926451772,-9.368686452758311,-2.7678935184955598,50,jumping
1783067221620879000,2.410752,-2.1688363229781387,5.419662411254644,-1.0967457281425594,-1.055711030960083,-0.9036548137664796,0.2666404545307159,-1.1670347045730798,-9.24634485220313,-3.0518071984931825,50,jumping
1783067221640803300,2.4306763,-0.4421771463487297,6.530064032045006,-2.6552000362515447,0.7422407269477844,-0.2694744765758514,-1.543784737586975,-1.0696115644361823,-9.252870454579591,-3.067690411801636,50,jumping
1783067221660726300,2.4505993,2.49872557220906,7.629992189615964,-1.6651327678471803,1.7011711597442627,0.2605279982089996,-2.1244823932647705,-0.7128009174667298,-9.365190427336096,-2.8205536800593136,50,jumping
1783067221680650200,2.4705232,3.542564178289473,8.806698466441034,-0.7165636310011148,1.5583181381225586,0.595055103302002,-1.8501001596450808,-0.3076984967434779,-9.476327327787876,-2.5049840480819343,50,jumping
1783067221700573200,2.4904462,2.9184111199602483,9.688285486382243,0.0244109492875635,0.7868897914886475,0.7714217901229858,-1.1786160469055176,0.0155333050338842,-9.537899110081792,-2.2800481883622705,50,jumping
1783067221720497200,2.5103702,2.5317227096647024,8.975970160475372,0.3420534420162439,-0.116251952946186,0.8600695729255676,-0.313832551240921,0.1949737060457468,-9.551326746931672,-2.214618123205006,50,jumping
1783067221740421400,2.5302944,2.2467276641711598,8.293218782705068,0.3217034585572779,-0.7292811274528503,0.9576667547225952,0.4427230954170227,0.2188511329784989,-9.531170678609609,-2.297668016204983,50,jumping
1783067221760344300,2.5502173,1.5873986630424857,8.057962750631571,0.0352978156134486,-0.9768295288085938,0.986446738243103,0.9961231350898744,0.1246051615729928,-9.492537288832663,-2.4589777914494277,50,jumping
1783067221780268300,2.5701413,0.9955683500386774,8.58574100883305,0.278721372051537,-1.099843144416809,1.0224664211273191,1.1512330770492554,-0.0329496793014346,-9.440321363905072,-2.655115572838485,50,jumping
1783067221800191200,2.5900642,0.3222341313678771,8.806219743013381,0.1207303659662604,-1.0366027355194092,0.8695911169052124,0.968959391117096,-0.1829214857349172,-9.378283133143189,-2.860893873754144,50,jumping
1783067221820115200,2.6099882,-0.2796584885048679,8.147218658664823,0.6292416136398911,-0.8885339498519897,1.1341694593429563,0.7035844922065735,-0.2808840299781411,-9.318433352336289,-3.0427471092030403,50,jumping
1783067221840039200,2.6299122,0.0618954978229477,6.968878643158078,0.7183657119870186,-0.8852326273918152,1.6161891222000122,0.5938609838485718,-0.3125384475879371,-9.25953049699068,-3.2146202179074286,50,jumping
1783067221859962000,2.649835,0.9101943980053068,6.952287573841214,-0.3927969563037157,-0.8757677674293518,1.503099799156189,0.1836443394422531,-0.284858815360628,-9.198647281482817,-3.387348189875483,50,jumping
1783067221879886000,2.669759,2.32016085691154,5.542248341959715,-1.5675412854060529,-0.9101036190986632,1.3198930025100708,-0.0981596186757087,-0.186927086380776,-9.136992497080564,-3.5567984553471206,50,jumping
1783067221899810300,2.6896833,3.6883784243687994,1.9466461087048053,-2.6371400634258984,-1.036550998687744,1.3815486431121826,0.2381992489099502,-0.0937839068517088,-9.066852208405733,-3.73547656789124,50,jumping
1783067221919733200,2.7096062,3.3900814142316578,-0.2146779389470815,-4.099784511813521,-1.1792724132537842,0.8948052525520325,0.6333739757537842,-0.0874299073156435,-8.979953677153587,-3.939944662991166,50,jumping
1783067221939657200,2.7295302,0.2023369830890558,-3.1105741524994373,-4.367888628260791,-1.1116459369659424,0.4647324383258819,0.840959906578064,-0.1668728344653733,-8.885123183858394,-4.146939938481152,50,jumping
1783067221959580200,2.7494532,-4.058901297283172,-6.534069176033139,-6.768223384344577,-0.8276036977767944,-0.0573116913437843,0.6217617988586426,-0.2895675593071617,-8.798549062255024,-4.321120447345078,50,jumping
1783067221979505000,2.769378,-8.349627483147382,-8.773515158763527,-6.920318902650475,-0.477921724319458,0.3650231659412384,0.1897278130054474,-0.3471601905707269,-8.738573609241843,-4.437025292851031,50,jumping
1783067221999428900,2.7893019,-9.466946335980296,-12.068587216001749,-8.960505464839935,0.0006035368423908,0.4730216562747955,0.6689711213111877,-0.3664886489622295,-8.715627033418416,-4.480393017673492,50,jumping
1783067222019352000,2.809225,-12.502940756052732,-13.893168787527085,-7.7362389799386255,-0.3515026271343231,0.508556067943573,1.4686238765716553,-0.518074646843411,-8.699864816141128,-4.496036577007175,50,jumping
1783067222039275800,2.8291488,-14.995136341971158,-12.281346169584989,-3.823660170517861,-1.32233464717865,1.308550238609314,1.717974066734314,-0.720702119045332,-8.60267577702105,-4.652411672328412,50,jumping
1783067222059199000,2.849072,-11.744570365935564,-10.162451981383562,-2.902514754909277,-1.5121248960494995,1.5803356170654297,1.3197294473648071,-0.8363606616400182,-8.432862815716863,-4.935353292423486,50,jumping
1783067222079123000,2.868996,-5.317172927638888,-8.803568351721763,-3.066753130951524,-0.3883630931377411,0.9178354144096376,0.7785196900367737,-0.8800685051370412,-8.314823296269774,-5.124409298858046,50,jumping
1783067222099047000,2.88892,-1.0903205904658884,-6.090611707550287,-1.0019418305933474,0.5436466932296753,0.7471005320549011,0.6026461720466614,-0.9158708362065257,-8.317244970458745,-5.114196532401442,50,jumping
1783067222118969900,2.9088429,2.1461669566608963,-3.749418584004044,1.044804236242175,0.6522712111473083,1.2275470495224,0.6406928896903992,-0.9182406340777872,-8.370628185600042,-5.02591209974885,50,jumping
1783067222138893800,2.9287668,2.4424951509431003,-2.163569780752063,0.1706231086432933,0.3966661393642425,0.2717457413673401,0.439605563879013,-0.9251697757538409,-8.415659167459607,-4.948851071900129,50,jumping
1783067222158817000,2.94869,-1.95775801595822,1.3530688059031963,4.655690547868609,-0.1699833571910858,0.0217491555958986,-0.2815721333026886,-0.9371309933129698,-8.428382455432414,-4.924888597032427,50,jumping
1783067222178741000,2.968614,-0.8805355381269008,4.410242792126536,4.586936160594225,-0.830925703048706,0.0360066071152687,-0.6891099810600281,-0.8419429918169975,-8.384168635174632,-5.016694774070382,50,jumping
1783067222198665000,2.988538,1.6424964270167053,3.8780414567857977,3.1425954306602475,-0.7335930466651917,0.264145165681839,-0.1550495475530624,-0.7514046427577733,-8.308212353697419,-5.155519891914725,50,jumping
1783067222218588000,3.008461,0.936138548209518,4.906608259454369,3.511173891508579,-0.5335990786552429,0.4338973760604858,0.2139769792556762,-0.7241022098124027,-8.241282259240746,-5.265674795591831,50,jumping
1783067222238512000,3.028385,-1.2057573800686747,6.1468731084764,3.681227091309428,-0.677153468132019,-0.2076089084148407,-0.2257710844278335,-0.7175345218598842,-8.182094157212973,-5.358066079041362,50,jumping
1783067222258435800,3.0483088,-2.5701784047871827,7.160638647854328,4.921633979150653,-1.0210479497909546,-0.2138489037752151,-0.7761742472648621,-0.6642385466106235,-8.094676570522784,-5.495943102380633,50,jumping
1783067222278359000,3.068232,-0.4670248430857434,7.367496268439292,3.816107855442166,-0.6893554329872131,-0.1031280532479286,-0.9043868780136108,-0.5368936944080517,-8.004503547644616,-5.640040607669949,50,jumping
1783067222298282800,3.0881558,1.8546252660028637,7.168920153987408,3.2294156359791755,0.0565895475447177,0.0948589891195297,-0.5659151077270508,-0.4207977833094075,-7.974718650233745,-5.691852043449878,50,jumping
1783067222318206000,3.108079,2.420832331319898,7.828934799292683,3.325219942742586,0.784958004951477,0.0300943199545145,-0.3531527817249298,-0.3396724651638418,-8.026905349066853,-5.623503898888826,50,jumping
1783067222338130000,3.128003,1.5726146431475876,8.50144535355568,4.036353949910402,1.2432962656021118,-0.2687944769859314,-0.5970959067344666,-0.282139948323369,-8.144709306192398,-5.45476821142733,50,jumping
1783067222358054000,3.147927,1.181871842894703,7.727564675095677,4.977838096931577,1.25665283203125,-0.0646423175930976,-0.7628129720687866,-0.1900738234412856,-8.283916701352595,-5.245090272724628,50,jumping
1783067222377976800,3.1678498,2.5827415337622166,6.7796420194596045,4.307970166131854,0.96682608127594,0.0240727756172418,-0.609011173248291,-0.0691289379415102,-8.402161972504853,-5.056606513220071,50,jumping
1783067222397901000,3.187774,3.5733100296869877,5.1921419418692585,4.083562275809049,0.5094257593154907,0.1776739209890365,0.0978607162833213,-0.0117854043344967,-8.476088209459185,-4.93215712673068,50,jumping
1783067222417824000,3.207697,2.951245175808668,4.6872255038172,4.7604812941640615,0.0894151180982589,0.3515145480632782,0.6588015556335449,-0.0580022486774949,-8.503433312502503,-4.884530867680907,50,jumping
1783067222437748000,3.227621,1.263296326649934,4.860736735117436,4.967879597496986,0.060567483305931,0.1527814120054245,0.4790203869342804,-0.1378718722401186,-8.506806588327883,-4.877049572014808,50,jumping
1783067222457672000,3.247545,1.1569884537898003,4.612568029978871,4.685437743617594,0.2338410168886184,0.1468234807252884,-0.1020805686712265,-0.1554640448909252,-8.521251293265818,-4.851235624061524,50,jumping
1783067222477595000,3.267468,4.12632589725852,1.8390508263826368,2.273341238069534,-0.0013472710270434,0.3778436183929443,0.1012397930026054,-0.1173847909985575,-8.536679748544097,-4.825111587245762,50,jumping
1783067222497519000,3.287392,8.495650988063217,-2.8254683401077982,-1.7416440528586503,-0.8574328422546387,0.56014484167099,1.261459231376648,-0.1737053473665379,-8.496561088645457,-4.893735918399691,50,jumping
1783067222517442000,3.307315,7.394981656736135,-10.0892359385252,-6.690497755107283,-1.3934627771377563,0.5926800966262817,2.795583724975586,-0.4642170191233977,-8.364371463292837,-5.098251944294572,50,jumping
1783067222537366000,3.327239,-1.3180183891795574,-13.944564628243446,-8.14849174734056,-0.5660524964332581,0.7640982270240784,2.913276672363281,-0.8861433680713177,-8.210480293741822,-5.288965070286393,50,jumping
1783067222557289700,3.3471627,-8.690457520848511,-16.48991546576619,-9.705219670048356,0.9290538430213928,0.6772748231887817,1.718028545379639,-1.192358384791389,-8.182482864269614,-5.272157727870344,50,jumping
1783067222577213000,3.367086,-10.838386080354452,-18.65746291797757,-9.55394131334424,2.370042324066162,1.0545049905776978,0.9022075533866882,-1.3123366902813314,-8.320251751059294,-5.02210744676888,50,jumping
1783067222597137000,3.38701,-10.11829252166152,-19.26402011386156,-7.984822695618868,2.976937055587769,1.4529038667678833,0.840513288974762,-1.3324252463251351,-8.56513310509026,-4.586232103978097,50,jumping
1783067222617060900,3.4069339,-7.976142545557022,-17.210323497235773,-4.061476116207242,2.0517170429229736,1.5481910705566406,0.5520482063293457,-1.3199439504146575,-8.775593134081364,-4.173380201639235,50,jumping
1783067222636983800,3.4268568,-2.718624752935767,-13.671606934285164,-3.4286692113012074,1.170143961906433,0.9557474255561828,0.4850824773311615,-1.3045318617492914,-8.880276328349114,-3.950858855715394,50,jumping
1783067222656908000,3.446781,2.0502885617479683,-7.153751226428151,-5.30247395567894,2.552762508392334,-0.7981823682785034,-0.1181511431932449,-1.328736328679323,-9.008008389770984,-3.641515550906956,50,jumping
1783067222676831000,3.466704,2.4730834736913443,-4.495488295474648,-2.102220116776228,2.7051496505737305,-1.5457158088684082,-0.0516251102089881,-1.3892583096593618,-9.205629979977012,-3.0816753902733325,50,jumping
1783067222696755000,3.486628,1.6812033204212784,-2.8247990625441077,1.3988894768357276,0.3819101750850677,-0.7180570960044861,0.8943384289741516,-1.5324635422840711,-9.286718948167564,-2.752959860996902,50,jumping
1783067222716679000,3.506552,1.7715854560054838,3.814454827538132,1.9588246222764247,-1.4692986011505127,-0.753265380859375,0.8999544978141785,-1.7491399615719914,-9.218616887322067,-2.850964015892148,50,jumping
1783067222736601900,3.5264749,2.0149949839182195,7.951941585758328,1.6661971822082997,-1.9365758895874023,-0.7713759541511536,0.6832701563835144,-1.941074153791368,-9.081855716270208,-3.1500036610901354,50,jumping
1783067222756526000,3.546399,5.872237836694717,5.636206728595495,2.2947362005367875,-0.626121461391449,-0.3015805184841156,1.6022809743881226,-2.158382148981094,-8.94618993923962,-3.3878383114799857,50,jumping
1783067222776449000,3.566322,2.4653277449980378,3.733758658057451,3.460897702471912,0.6674275398254395,-0.8963478803634644,1.5649397373199463,-2.518897422622144,-8.87366012507975,-3.329216611163318,50,jumping
1783067222796373000,3.586246,-2.25163063378185,5.781712931638956,5.550016637873649,0.1566498577594757,-0.6017410755157471,-0.1480623930692672,-2.700476225043833,-8.86948488522172,-3.1953190128490325,50,jumping
1783067222816297000,3.60617,1.1795783251300451,7.188184241905808,3.4300431300029155,-0.5488319993019104,-0.1057049259543418,-0.8318924307823181,-2.611011934956908,-8.887021126434206,-3.220850344468653,50,jumping
1783067222836220000,3.626093,5.500903939658403,9.481440140756964,0.9771192317649722,-0.5063289999961853,0.1740503013134002,-0.2716139256954193,-2.5012682424291968,-8.879746751517057,-3.326279680928588,50,jumping
1783067222856144000,3.646017,6.744802761268615,10.233166270554063,-0.2992757920414209,0.0183634888380765,-0.0171279311180114,0.4305917918682098,-2.513499947492778,-8.85739755706489,-3.376272669109702,50,jumping
1783067222876066800,3.6659398,3.992189229491353,9.678100776976349,0.5866989414647221,0.2551306486129761,-0.1464447528123855,0.6417142152786255,-2.621209211583436,-8.840577939689158,-3.3382346148774027,50,jumping
1783067222895990800,3.6858638,0.8155898224204778,8.314678919363022,1.854146104183793,-0.0476176515221595,0.032706007361412,0.406445175409317,-2.724816008791328,-8.818957644033432,-3.312364552822709,50,jumping
1783067222915915000,3.705788,-0.1193561550036072,8.186601405504346,2.032820417335629,-0.0775355324149131,0.2023238688707351,-0.1290046274662017,-2.7411159862071277,-8.80310833299458,-3.3409526416644453,50,jumping
1783067222935838000,3.725711,1.2481100095644593,7.448559517666697,1.715072564536333,0.5173938870429993,0.4739474654197693,-0.3242787420749664,-2.668769419659674,-8.83121097640693,-3.325322526334226,50,jumping
1783067222955762000,3.745635,2.718475407592952,6.195123052382469,2.303243624380231,1.0074405670166016,0.6195322871208191,-0.0741938352584838,-2.5962214853212235,-8.894286149001122,-3.2127409800320863,50,jumping
1783067222975685600,3.7655586,1.7970792320936917,5.775944285109639,4.218506752827763,0.8915777802467346,0.6587556600570679,-0.1163175925612449,-2.544967975685,-8.960082855513692,-3.067644234572351,50,jumping
1783067222995608600,3.7854816,1.022151967190206,6.175100839573145,5.176247622644901,0.167326346039772,0.3656336367130279,-0.3931705355644226,-2.466304481075704,-9.00639452483356,-2.995428893189132,50,jumping
1783067223015532500,3.8054055,1.3115930323071776,6.1911693463206285,5.0510412803083655,-0.5058886408805847,0.316013753414154,-0.3632269501686096,-2.372972409644723,-9.014082741248608,-3.0472441283613443,50,jumping
1783067223035455500,3.8253285,1.0954103878855703,5.426467415094376,3.5999846861228346,-0.6643439531326294,0.2998571395874023,-0.1501882076263427,-2.309270191193372,-8.986644114702939,-3.174564686372876,50,jumping
1783067223055379700,3.8452527,-0.4101253999844193,5.667544116145372,2.8010414625987408,-0.4723759591579437,0.0748151168227195,-0.3721773326396942,-2.2585114793367684,-8.958672988715767,-3.288111570575833,50,jumping
1783067223075303700,3.8651767,-1.0722951774969696,5.729209421941638,2.4138167534694075,-0.1708830446004867,-0.1315965801477432,-0.8998365998268127,-2.144464098265767,-8.966468757158518,-3.3427669976100325,50,jumping
1783067223095226600,3.8850996,0.2498595808349549,2.479127430030704,1.350149119064212,0.0140985138714313,0.0056089488789439,-0.4016473293304443,-2.016481130822748,-8.991954496070742,-3.353946271011233,50,jumping
1783067223115150300,3.9050233,-0.2416262977577745,-0.555583379971981,-0.2568558694630861,0.4021074473857879,0.1739392429590225,0.5054375529289246,-2.0255331829369068,-9.001321459352969,-3.323224092750251,50,jumping
1783067223135073500,3.9249465,-2.9775954225957397,-1.2931594038635492,-1.2846078486174344,0.6241689324378967,-0.2913142740726471,0.3148514032363891,-2.1151709298945964,-9.016572219976782,-3.224571995340288,50,jumping
1783067223154997500,3.9448705,-4.189796791172028,-3.831621650916338,-2.173755659201741,0.804837167263031,-0.6402532458305359,0.0034101789351552,-2.1648631815634665,-9.054570818981528,-3.081965897652507,50,jumping
1783067223174921500,3.9647945,-2.922603603214025,-6.844429256668686,-5.1402270457148544,2.053563356399536,-1.3161897659301758,0.271396279335022,-2.2380983675137163,-9.128786394271254,-2.797598628668487,50,jumping
1783067223194844400,3.9847174,-3.620929566735029,-11.579156516373155,-4.46872186910212,2.988145589828491,-1.9384827613830569,1.1234533786773682,-2.4423864298716187,-9.232142139327523,-2.22995524693802,50,jumping
1783067223214768600,4.0046416,-8.349224747565389,-15.94087522382736,-0.4360222039155662,1.6566073894500732,-1.8969768285751345,1.7890537977218628,-2.801619554747641,-9.246724791431426,-1.679105032967776,50,jumping
1783067223234692600,4.0245656,-10.718818620687722,-16.87542752575874,0.0803683988310396,0.379885733127594,-1.4215102195739746,1.3262064456939695,-3.1472002941071984,-9.179920369181035,-1.4122927098967135,50,jumping
1783067223254615600,4.0444886,-7.332752287316322,-17.628699715954063,-3.751974698227644,0.6053625345230103,-1.6094528436660769,0.9804906249046326,-3.3878841964483257,-9.118722096374633,-1.2415814845785498,50,jumping
1783067223274539500,4.0644125,-4.272729049141705,-16.261670189237595,-4.115598167017102,1.3213977813720703,-1.827488899230957,0.9274950623512268,-3.602997604203224,-9.071827658730744,-0.9437987806390972,50,jumping
1783067223294462700,4.0843357,-3.5627108942613,-13.034008118927478,-2.403025018081069,1.4863824844360352,-1.6267311573028564,0.5097784996032715,-3.7611516918957233,-9.039933221819997,-0.5511207745399326,50,jumping
1783067223314386700,4.1042597,-0.6812476952090859,-12.240839971673488,-1.8729262079775333,1.3808016777038574,-1.2944976091384888,0.8005519509315491,-3.883447407482564,-9.003060411974786,-0.1847402438609861,50,jumping
1783067223334310700,4.1241837,-0.486559528106451,-8.624967688328027,-0.3565829026281833,1.141083836555481,-1.6606069803237915,0.3464532494544983,-3.998379316303134,-8.953112431979179,0.1586127912454307,50,jumping
1783067223354233600,4.1441066,0.8964689472526312,-4.977539406245946,0.9575859715163708,0.7477476596832275,-1.9811655282974243,-0.5089157223701477,-3.9737659763112654,-8.953271421933174,0.4674134405445307,50,jumping
1783067223374157600,4.1640306,0.2661711025580763,1.7443688016474246,-0.1113151796281337,-0.0220556519925594,-1.9505112171173096,-1.259958028793335,-3.789987033496797,-9.016905981975793,0.7083690724991262,50,jumping
1783067223394080500,4.1839535,3.773239604574442,5.3656613564759486,-1.1622598183214663,-0.8277935981750488,-1.3754127025604248,-1.4591641426086426,-3.507932133108377,-9.127401077392696,0.7452198897082358,50,jumping
1783067223414004500,4.2038775,6.324525677365064,6.447609036198258,-1.679322036719322,-1.4115304946899414,-0.7626596093177795,-0.7503954768180847,-3.280298558737337,-9.221590350174903,0.6101612482579425,50,jumping
1783067223433928400,4.2238014,4.919619132196903,6.67985478053987,-1.5549194119811056,-1.9591953754425049,-0.6822723746299744,-0.1879589706659317,-3.202827196522057,-9.262450183829664,0.3453988799866289,50,jumping
1783067223453851400,4.2437244,4.241915100944042,8.063069133859873,0.2375461888372897,-2.699772834777832,-0.4416118562221527,-0.2755424082279205,-3.15808935239017,-9.28411081149578,-0.0460098505288129,50,jumping
1783067223473775600,4.2636486,4.343231156866252,9.166649384197592,-0.855637243713811,-2.9162304401397705,-0.2481743395328521,-0.3641756474971771,-3.102137163543701,-9.286061361041664,-0.5623285799158737,50,jumping
1783067223493698600,4.2835716,5.005688811409473,9.828249252867698,-3.2073955273509025,-1.7543975114822388,-0.1462614089250564,-0.3986859321594238,-3.033764176802337,-9.27159795140326,-1.0020596848193557,50,jumping
1783067223513622500,4.3034955,6.1940294119268655,10.236638330578804,-4.184063215956091,0.2421672046184539,-0.3421833217144012,-0.6007649898529053,-2.947940873566269,-9.284344035729765,-1.131812657609582,50,jumping
1783067223533546500,4.3234195,6.207531283056736,9.599159342208504,-3.029561172154545,1.6975414752960205,-0.6605386137962341,-0.7591184377670288,-2.8302105661988257,-9.3455236038357,-0.9063567926038056,50,jumping
1783067223553469700,4.3433427,5.254502244192362,8.011427793949842,-0.925014585192129,1.790485143661499,-0.6503008604049683,-0.6353108882904053,-2.705425371883809,-9.411585683286187,-0.5225797762429342,50,jumping
1783067223573393700,4.3632667,3.6786131094187495,6.8586173564970485,0.5144728229591623,0.8114050626754761,-0.1675975918769836,-0.3466227054595947,-2.615437350183725,-9.448243973597885,-0.2460231262109242,50,jumping
1783067223593317600,4.3831906,3.7488013288885353,6.425605878704786,-0.085392784598004,-0.2983629107475281,0.1145739182829856,-0.1177588552236557,-2.5747443975284696,-9.460405536034704,-0.2044553817488253,50,jumping
1783067223613240600,4.4031136,3.19532427354604,6.1361114759653805,-0.8733248030304909,-0.6841469407081604,0.2059815227985382,-0.0834951922297477,-2.557419168718159,-9.461955688086151,-0.318388890649192,50,jumping
1783067223633164500,4.4230375,1.4532809922367331,5.8219332983464,-0.5341214897483587,-0.5642714500427246,0.5655022859573364,-0.1825432032346725,-2.5309707222536204,-9.463513438922169,-0.4543844476234167,50,jumping
1783067223653087500,4.4429605,0.5852411438718438,5.460017802518606,-0.7468617386311293,-0.3888306021690368,0.7227206826210022,-0.4283791482448578,-2.469926763226092,-9.47285000706613,-0.5787779392071067,50,jumping
1783067223673011500,4.4628845,-0.577813478089124,3.178802470073104,-0.3087485537856817,-0.4622611701488495,0.9603177905082704,-0.7498460412025452,-2.347901096752286,-9.496352463206648,-0.6906809286605566,50,jumping
1783067223692935400,4.4828084,-1.9483346463136373,0.3478443003773689,1.3361124104052782,-0.4698940217494964,1.6783548593521118,-1.0021989345550537,-2.159815981176495,-9.52826034412086,-0.8472465781178324,50,jumping
1783067223712858600,4.5027316,-1.3589407666765152,-1.4887193853646516,0.854115075647831,0.4011428654193878,1.4937398433685305,-1.3522770404815674,-1.9066006601728496,-9.57383902299106,-0.9364159769114108,50,jumping
1783067223732782600,4.5226556,-0.5376175151705742,-5.3829672960639,0.9031354924697428,1.5949811935424805,0.942617118358612,-1.3272342681884766,-1.6149192687831817,-9.641544777995348,-0.7765421527542173,50,jumping
1783067223752705500,4.5425785,-2.223551078984141,-11.1481452724874,2.846117744904757,1.085677981376648,0.9375997185707092,-0.0634999051690101,-1.4548403505079448,-9.684549806985258,-0.5131180473493412,50,jumping
1783067223772629500,4.5625025,-6.739393595701456,-12.2000496961236,5.322141948223114,-0.5880914926528931,1.5360841751098633,0.9641801714897156,-1.550080447517335,-9.670532972070577,-0.4984241168906912,50,jumping
1783067223792553700,4.5824267,-8.811060168781877,-9.714565006020663,2.4318664971619843,-1.433708906173706,1.7376611232757568,0.8108715415000916,-1.710259026774764,-9.625197454306482,-0.7752287320680916,50,jumping
1783067223812476700,4.6023497,-8.129668388926982,-9.778946585038303,-1.44069857403934,-0.2021312713623047,1.7991645336151123,0.4619790613651275,-1.7974397359691558,-9.586254267928004,-1.0214387043543158,50,jumping
1783067223832400600,4.6222736,-7.494883461946249,-10.38038161560297,-3.223641728752851,1.609831929206848,1.5554192066192627,0.2560423910617828,-1.830831279569864,-9.588307108804583,-0.9395757561165838,50,jumping
1783067223852323600,4.6421966,-7.216707741078734,-10.033923801147935,-1.6026304267048834,2.435114860534668,1.4534982442855835,0.1956616044044494,-1.8480390194803475,-9.61289443757236,-0.5894110134350136,50,jumping
1783067223872247600,4.6621206,-6.42155046583414,-9.736030987897514,-1.0008318235248326,2.3534789085388184,0.911392629146576,0.2315320372581482,-1.8821391497418285,-9.622885085710882,-0.1673890038265846,50,jumping
1783067223892171500,4.6820445,-4.696732167831063,-8.319175061738491,-0.2422410686552524,1.7693758010864258,0.2408941686153412,0.1601705104112625,-1.9184467269197103,-9.61474211126566,0.2160544331983663,50,jumping
1783067223912094700,4.7019677,-1.2255357741847634,-5.795758992648125,0.1793172872304916,0.5252839922904968,-0.3203048408031463,0.4638829231262207,-1.968628369540721,-9.596713118100164,0.4449706495247781,50,jumping
1783067223932018400,4.7218914,1.9514216525435448,-2.599942259410024,-0.425668677281402,-0.919586420059204,-0.7585157752037048,1.1948434114456177,-2.117968743919581,-9.565445873177053,0.4322524030532688,50,jumping
1783067223951942700,4.7418157,2.13933024250865,1.112291380059719,-0.8188625604808331,-2.295351505279541,-1.0414259433746338,1.9685425758361816,-2.417506986289472,-9.502622629517315,0.1619535895733162,50,jumping
1783067223971865300,4.7617383,-0.0173608846455812,4.892493224862218,0.1400029294520616,-3.102229118347168,-0.6932947039604187,1.7631124258041382,-2.7890923738688227,-9.396585098031162,-0.3090935312984511,50,jumping
1783067223991789600,4.7816626,1.525181276321411,8.914638616678118,-1.3117372630834578,-2.6706748008728027,-0.6366799473762512,0.7937061190605164,-3.033229047012329,-9.288433350870012,-0.8336168428245931,50,jumping
1783067224011712500,4.8015855,5.206755573633313,9.495040796086192,-2.433273587480932,-0.9423462748527528,-0.6361987590789795,0.3496194779872894,-3.144001498065889,-9.219259276878834,-1.1361817395392804,50,jumping
1783067224031636500,4.8215095,7.270540453553199,10.412768804466724,-1.1273088433843106,0.5646666884422302,-0.54183429479599,0.1822342127561569,-3.2056346551582213,-9.200254716679453,-1.117853471166268,50,jumping
1783067224051560400,4.8414334,7.8478394062489265,10.665013380742073,1.097043980436772,1.0588558912277222,-0.5900478363037109,-0.046844258904457,-3.230472159294784,-9.213229349064829,-0.9224169699143616,50,jumping
1783067224071483400,4.8613564,7.719283168962598,9.095826373955608,2.009739985999465,0.8665857315063477,-0.9012895226478576,-0.097474418580532,-3.224768102434277,-9.235587895867228,-0.6893374781623482,50,jumping
1783067224091407600,4.8812806,6.415162226101756,6.832556448045373,2.6488655725330115,-0.0649885907769203,-1.0766209363937378,0.1681735068559646,-3.2391040863007303,-9.24052418322563,-0.5397237302022054,50,jumping
1783067224111330600,4.9012036,5.013626618671417,4.836002106833457,2.0320242985218764,-1.307528376579285,-0.8672469258308411,0.584721028804779,-3.319280031299591,-9.20811361348629,-0.6028352892840281,50,jumping
1783067224131254500,4.9211275,3.567014728935063,3.712027887764573,0.1561169558417052,-1.9236161708831787,-0.6632565259933472,0.7174595594406128,-3.460772614787518,-9.135194507747888,-0.8612093447577208,50,jumping
1783067224151178500,4.9410515,1.612424090966582,3.721875912562013,-1.276515873707086,-1.6833688020706177,-0.6096704006195068,0.0490271970629692,-3.5482860630676147,-9.069176851961016,-1.1532995361439884,50,jumping
1783067224171101700,4.9609747,0.738566496233642,2.9367864423453804,-2.1020630265183744,-1.0337071418762207,-0.587124764919281,-0.7357339859008789,-3.502074346990883,-9.058611618804932,-1.3592045321792363,50,jumping
1783067224191025400,4.9808984,0.4670107780277728,2.774451269575953,-1.1778120461098849,-0.5888859629631042,-0.2564074695110321,-1.3407175540924072,-3.321347777484357,-9.109808137556907,-1.4664339037984608,50,jumping
1783067224210948400,5.0008214,1.2017130000486969,3.1263591661304235,-0.6603817250519991,-0.5522371530532837,0.0324346981942653,-1.6240901947021484,-3.0497374064818024,-9.188478354167938,-1.562485171060264,50,jumping
1783067224230872300,5.0207453,1.5305784591898322,2.8229969815582034,-0.1977080994457006,-0.6271712779998779,0.1273292005062103,-1.622645378112793,-2.745635801719129,-9.264596548208594,-1.6730613688893614,50,jumping
1783067224250796500,5.0406695,0.9241115719377994,1.814492139187455,0.7257371175378561,-0.97526353597641,0.255130410194397,-1.4415444135665894,-2.453856795173883,-9.317171954098344,-1.8273688641563055,50,jumping
1783067224270719500,5.0605925,-0.6443078114770352,-0.025884382840991,2.016354435703158,-1.5412850379943848,0.6379225850105286,-1.2707440853118896,-2.1863868849769235,-9.331403893068432,-2.077256648172438,50,jumping
1783067224290643500,5.0805165,-2.4914056045845148,-0.5069546658813953,2.800788949142396,-2.127244710922241,0.9771499037742616,-1.4858758449554443,-1.9025528460867704,-9.301340763238072,-2.456772098098696,50,jumping
1783067224310566400,5.1004394,-3.1001831068664787,-0.6418833608090877,2.002531369794905,-2.024484872817993,1.0557950735092163,-2.055769920349121,-1.5186805161252617,-9.247814340233802,-2.8882360541880128,50,jumping
1783067224330490600,5.1203636,-2.1665826988324524,-3.2518326349705458,0.2799310401022434,-1.283970832824707,0.9081138372421264,-2.165350437164306,-1.0588558502092955,-9.20100933443904,-3.223452343660593,50,jumping
1783067224350414600,5.1402876,-3.0038617904916403,-7.176046060344577,-0.061755906689167,-0.403264582157135,0.7490941882133484,-2.0298471450805664,-0.625748145500943,-9.179643890327217,-3.3930770889163013,50,jumping
1783067224370337500,5.1602105,-4.967744572940468,-9.88398926026821,-1.1029939748823645,1.0278297662734983,0.1364025622606277,-2.17253041267395,-0.2064244167994707,-9.213509919571877,-3.352465677064657,50,jumping
1783067224390261500,5.1801345,-5.254461327660083,-17.310168019300697,-1.3830837126776576,2.102523803710937,-0.2954145967960357,-1.3860262632369995,0.1367056962712667,-9.322930663755535,-3.0388568237662312,50,jumping
1783067224410185500,5.2000585,-6.597128566536307,-23.677235199797156,0.2544362411007285,1.2379765510559082,-0.4003366231918335,0.3894630670547485,0.208650203090161,-9.42469709379375,-2.7022078711420296,50,jumping
1783067224430108700,5.2199817,-10.475791954612731,-20.20458597699404,0.7259478376790881,-0.3013903200626373,-0.5726571083068848,0.837732195854187,0.0327331573237897,-9.449695341449976,-2.621556709846854,50,jumping
1783067224450032400,5.2399054,-10.361928259545564,-12.634570409435034,-2.4654563398137688,-0.3028295636177063,-0.2719773054122925,0.0390323437750339,-0.0697577464974951,-9.424106142163277,-2.7114059075981376,50,jumping
1783067224469955300,5.2598283,-4.904856447350978,-9.362686920082568,-6.797724788638949,1.4148070812225342,-0.0772589668631553,0.0456942096352577,-0.0734367820701096,-9.450351175010203,-2.6183710655480623,50,jumping
1783067224489879300,5.2797523,-1.301561906027794,-4.157931580355763,-6.1483542869448655,3.0721781253814697,0.1922235786914825,0.4248995780944824,-0.1168529582773335,-9.559497193905711,-2.184664737359434,50,jumping
1783067224509803500,5.2996765,-0.4514655645020305,0.527184968483448,-5.146442851489782,4.0864973068237305,-0.6382870674133301,0.2242479920387268,-0.1946696085326373,-9.691142629379032,-1.488039878667891,50,jumping
1783067224529726500,5.3195995,-1.3869232908405362,3.189363027054071,-0.503297896939516,4.123967170715332,-0.7955152988433838,-0.424623429775238,-0.1935491714016534,-9.782096573501825,-0.6659701196435839,50,jumping
1783067224549650400,5.3395234,0.4508401991453021,6.113928870251774,2.533599609452486,2.896254539489746,-0.2616449296474457,-0.8752095699310303,-0.0623810939493821,-9.80638696514964,0.0356785562760545,50,jumping
1783067224569573400,5.3594464,4.4768417549327015,7.492033917734027,1.6418097599267958,1.2068369388580322,-0.4422469437122345,-0.5968072414398193,0.0936893330365885,-9.796602653238176,0.4338133322270587,50,jumping
1783067224589497600,5.3793706,6.952495663633942,7.791041998749971,1.247246962994337,-0.0238725785166025,-0.6845810413360596,0.4149340987205505,0.1300015589901246,-9.790947403955458,0.5392763882935047,50,jumping
1783067224609421600,5.3992946,6.339627969428896,8.56699889896214,1.3104746958017348,-0.7690125703811646,-0.6733695268630981,1.5681666135787964,-0.0677175915725529,-9.795821731993556,0.4556979048421606,50,jumping
1783067224629344500,5.4192175,4.385573045772314,10.082454315561057,0.7181833411574363,-1.1685547828674316,-0.8326103091239929,1.8067384958267207,-0.4037166289206594,-9.794701203531028,0.2668804381375201,50,jumping
1783067224649268500,5.4391415,2.493024437958002,10.895212129426,1.5726011991441249,-1.344470500946045,-0.5300758481025696,1.402311086654663,-0.7244574529908597,-9.779814600044489,0.0280720404948224,50,jumping
1783067224669191700,5.4590647,1.983003077982366,10.74166991944313,0.7605471496343612,-1.456500768661499,-0.3819771111011505,0.8426278829574585,-0.9407769485998898,-9.75854969369769,-0.2366657710072584,50,jumping
1783067224689115600,5.4789886,3.0075898711040616,10.108094952774048,-0.1351928622892126,-1.4103831052780151,-0.4059915244579315,0.3973430395126343,-1.062600297434628,-9.735496734890342,-0.5112418416813016,50,jumping
1783067224709039400,5.4989124,3.8896792876094577,9.68758698272407,-1.1639969443123788,-1.1986751556396484,-0.6171998381614685,0.0814311653375625,-1.111806811413169,-9.714222476193308,-0.7537582201465964,50,jumping
1783067224728962300,5.5188353,4.217742782717943,9.074301939889788,-1.1175861254669726,-1.0630911588668823,-0.4758108556270599,0.0781517997384071,-1.1331132918793707,-9.693652566373348,-0.9589347557768224,50,jumping
1783067224748886500,5.5387595,3.814603588359058,9.275842164844274,-2.135700361573696,-0.7682271599769592,-0.8504953384399414,-0.1408397108316421,-1.1465651133224368,-9.67417746605277,-1.1252020803634075,50,jumping
1783067224768809500,5.5586825,3.15200974021554,8.640548703819514,-0.7207254268556833,-0.3540707230567932,-0.7389394640922546,-0.3243981301784515,-1.1169384752132,-9.667063250133396,-1.2127420513242482,50,jumping
1783067224788733400,5.5786064,3.2154470241203903,7.8880515896499155,0.3536433420449495,-0.1683956980705261,-0.3366331160068512,-0.2160287052392959,-1.0721876254692673,-9.667541973561049,-1.2487751954749229,50,jumping
1783067224808657400,5.5985304,3.331916810032725,7.212880876266956,0.8130377998501062,-0.0866595208644867,-0.4706372320652008,0.1042321026325225,-1.070593268949911,-9.665890114700794,-1.2628482906214893,50,jumping
1783067224828580400,5.6184534,2.6088968424990773,6.459076771152019,1.9157110183455048,-0.2043182849884033,-0.5714025497436523,0.4392447471618652,-1.1363130377687514,-9.65683177897632,-1.2746633777081966,50,jumping
1783067224848504600,5.6383776,0.3430094275668263,3.81211089476049,2.9499428610384464,-0.4741395711898803,-0.2773075699806213,0.5560038089752197,-1.2520578704074024,-9.635407298153638,-1.327272393606603,50,jumping
1783067224868427500,5.6583005,-1.7871074347861111,0.3276823868364095,3.4001194086432456,-0.9743196368217468,-0.194173201918602,0.2246275097131729,-1.3367270351722835,-9.605661563709376,-1.4542317170903083,50,jumping
1783067224888351500,5.6782245,-3.40483854611963,-1.3901204794466495,3.963383406245708,-1.9419183731079104,-0.1279052942991256,-0.3523319661617279,-1.3320892923690375,-9.561107551711798,-1.726600212983787,50,jumping
1783067224908275500,5.6981485,-3.553257714000344,-3.531292550429701,1.9946283415853976,-2.3642163276672363,-0.3381324112415313,-0.6840729117393494,-1.2354448815196752,-9.487777527084946,-2.150849999910593,50,jumping
1783067224928198700,5.7180717,-2.8850924954652784,-11.373698241192102,-1.108734564360976,-1.1829851865768433,-0.5100304484367371,-0.5316753387451172,-1.1374656418699771,-9.416052599567177,-2.4928932127937675,50,jumping
1783067224948122600,5.7379956,-5.359868160027265,-17.779146298009156,-2.421730303072929,-0.3700374960899353,-0.9410291910171508,-0.2973747253417969,-1.0948996618844569,-9.391451242274046,-2.602352535422146,50,jumping
1783067224968045800,5.7579188,-11.1729523814857,-20.575182207405565,1.801872019328177,-0.1721406877040863,-0.6843116879463196,-0.2264352738857269,-1.092692068837583,-9.38241745646894,-2.635652747477591,50,jumping
1783067224987969800,5.7778428,-13.31522861431837,-24.465292287647724,-0.0494096353352069,-0.2567303776741028,-1.258455514907837,-0.3239155113697052,-1.08993509827964,-9.379442240050434,-2.647358967362344,50,jumping
1783067225007893800,5.7977668,-14.014875597310066,-23.052453780436515,0.1481254456311464,-1.3615047931671145,-1.5396003723144531,-0.3592860698699951,-1.0971758631881323,-9.349625193935632,-2.747928881092369,50,jumping
1783067225027816700,5.8176897,-11.40402674396038,-18.688916040861606,-1.2297209509149194,-2.817424774169922,-1.0174258947372437,-0.0042301486246287,-1.1372501724883914,-9.229569658491014,-3.1132112230047584,50,jumping
1783067225047740700,5.8376137,-7.404343359321356,-12.127391287148,-6.709544400882721,-2.883978366851806,-0.8056932687759399,0.3062421679496765,-1.2298961613513528,-9.023433337917924,-3.638045244447887,50,jumping
1783067225067665000,5.857538,-5.469072046589851,-7.138865207463502,-9.443580657961965,-1.0976688861846924,-0.9102579951286316,-0.2254144698381424,-1.3163950257614254,-8.859190285700558,-3.994025797268748,50,jumping
1783067225087587800,5.8774608,-3.302768749220669,-1.7456757925927635,-7.150517651334405,0.9071876406669616,-1.3245019912719729,-1.3589762449264526,-1.2616270782634615,-8.878294799143076,-3.969202029396593,50,jumping
1783067225107511800,5.8973848,2.399410626976192,3.697178109157085,-1.923020902967453,1.6954128742218018,-1.2301725149154663,-1.5853108167648315,-1.0772126870896666,-9.022331514155864,-3.6888384430959817,50,jumping
1783067225127434800,5.9173078,7.82985425222516,7.288105920860171,1.2908049496918916,1.3474738597869873,-1.8036177158355715,-0.8934447765350342,-0.9466739707492292,-9.16052125670612,-3.3703184368804093,50,jumping
1783067225147359000,5.937232,7.361008075463771,7.842269497162103,4.7388370331108565,0.1753453910350799,-1.864643096923828,0.1796637922525406,-1.010986795379594,-9.220282774707677,-3.183503779631853,50,jumping
1783067225167283000,5.957156,4.673219482557475,8.193094859176874,6.576960807776451,-1.130326509475708,-1.4952280521392822,0.6336057186126709,-1.2043204791333526,-9.177261379104852,-3.2400422439336776,50,jumping
1783067225187206000,5.977079,2.040314572483301,10.796180092787742,5.102950331243872,-1.9621334075927732,-1.886643648147583,0.0684450790286064,-1.3920844729959965,-9.060233667048813,-3.484918921789527,50,jumping
1783067225207129600,5.9970026,1.1462032942727207,10.860816523349284,4.112658606433868,-1.9691908359527588,-1.4907368421554563,-0.5925139784812927,-1.4650810278847812,-8.920316662314534,-3.8015617359563705,50,jumping
1783067225227052800,6.0169258,2.935670297797024,9.709897014209629,2.2101652354493737,-1.2826606035232544,-0.8598116040229797,-0.6434847116470337,-1.4371991876162589,-8.810574431091547,-4.059386158190668,50,jumping
1783067225246976800,6.0368498,4.2621798903375865,8.224151676219702,0.4315712158560753,-0.4491244554519653,-0.7845840454101562,-0.2076573520898819,-1.425798818810284,-8.753717986881732,-4.184482025890052,50,jumping
1783067225266900700,6.0567737,3.039543052464724,6.495432863646745,1.4664923559874294,-0.1697380393743515,-0.7416782379150391,0.1053136363625526,-1.4878012476064264,-8.73296395266652,-4.206207243224978,50,jumping
1783067225286823700,6.0766967,1.3770568536035717,5.721200887531042,2.061221166911721,-0.3705088794231415,-0.5623723864555359,0.0668367892503738,-1.5635056001491845,-8.707669352412223,-4.231116935814917,50,jumping
1783067225306748000,6.096621,0.8613767372138798,6.103610889855027,1.6670049914598464,-0.1974323242902755,-0.2010401636362075,-0.2110992223024368,-1.5874183906562624,-8.68081933940947,-4.277134006102383,50,jumping
1783067225326670800,6.1165438,1.644936513645202,5.923036296039819,1.0973965932667256,0.6077682375907898,0.3381938338279724,-0.3032539188861847,-1.5351026586160064,-8.704200799518823,-4.248615183104574,50,jumping
1783067225346594800,6.1364678,2.7357430609971285,5.377924041199684,1.2720949885249138,1.6360986232757568,0.9480534195899964,-0.0390310287475585,-1.4404798167221249,-8.804924442505836,-4.070467524175346,50,jumping
1783067225366518800,6.1563918,2.3201957820944488,5.25519490263164,1.5250243321940302,2.0966830253601074,0.9962238073349,0.5138750672340393,-1.3990265472188592,-8.948549654108286,-3.75986135982424,50,jumping
1783067225386441700,6.1763147,0.7183331248916686,4.484533770740032,1.0549603040754794,1.9378503561019895,0.4732020497322082,1.4899762868881226,-1.5205401725172996,-9.067035163757204,-3.412799734257161,50,jumping
1783067225406366000,6.196239,-2.3915444236457346,3.934278892314434,2.039195505325496,1.145484209060669,0.7114863395690918,1.5980428457260132,-1.788132978441566,-9.11518047824502,-3.144269209091365,50,jumping
1783067225426289000,6.216162,-3.0331629960387945,4.475336318805813,2.3117156846493483,0.657085657119751,1.3584169149398804,1.1436190605163574,-1.9686234011046588,-9.116945149829982,-3.029227994677424,50,jumping
1783067225446212900,6.2360859,-3.005457827511429,3.482839192906022,1.9077599132105707,0.6517882347106934,1.4855146408081057,0.9206792712211608,-2.0692022287935017,-9.111606711411476,-2.97781812543571,50,jumping
1783067225466136800,6.2560098,-2.6797891185849902,0.2988730564594268,2.765354355406761,1.0019766092300415,1.9237481355667116,0.5037869215011597,-2.106818550482392,-9.130484430360791,-2.892396680998802,50,jumping
1783067225486060000,6.275933,-2.745851490296423,0.4790186112076043,4.504965148872137,0.8249838948249817,3.97538423538208,0.5372825860977173,-2.030131908904016,-9.166529557210206,-2.832615581513941,50,jumping
1783067225505983700,6.2958567,-3.801859549859166,0.384814140856266,-1.98482327914685,-0.6850408315658569,3.993011713027954,0.5969012379646301,-1.8726975137881932,-9.1612080699265,-2.955611554324627,50,jumping
1783067225525906700,6.3157797,-4.007316071474552,-5.20912990154922,-8.916587997180223,-1.706282138824463,-1.1947578191757202,-0.4283734560012817,-1.878080375870317,-9.049537500989436,-3.2785765572503207,50,jumping
1783067225545830700,6.3357037,-4.720650219035148,-5.307423687040806,-0.1202700549781322,-1.853703856468201,-0.5143886208534241,-0.544917643070221,-1.8161187174759803,-8.967704436433316,-3.528792258046568,50,jumping
1783067225565755000,6.355628,-3.0092770935386417,-5.274157377254963,-1.5400889225959775,-2.579388380050659,0.7437154650688171,-0.0015875324606895,-1.7604213801734148,-8.803598746860027,-3.945625923497975,50,jumping
1783067225585677800,6.3755508,-2.975846240840852,-7.592917719718813,-8.21753371938467,-2.2322041988372803,-0.65484219789505,0.0937389954924583,-1.7571911660805344,-8.59472861740887,-4.383299255621433,50,jumping
1783067225605601800,6.3954748,-3.494987895861268,-6.879915580591559,-6.335487216362357,-1.20119047164917,-0.6256930828094482,-0.0230792518705129,-1.8385453610785305,-8.439383741918206,-4.644022321906686,50,jumping
1783067225625524700,6.4153977,-2.5639105765640733,-4.495911489322781,-5.018894329941272,-0.3372138738632202,-0.4066772162914276,-0.5448707938194275,-1.83289113470912,-8.378009528023004,-4.756032205800712,50,jumping
1783067225645449000,6.435322,-0.8350161151632666,-4.804896189951896,-3.929310456252098,0.3650772273540497,-0.9437133073806764,-0.7096495628356934,-1.780349923349917,-8.403914369130135,-4.730217381064594,50,jumping
1783067225665373000,6.455246,1.0424671715967355,-5.29665387122333,-3.285169964165985,0.8411640524864197,-1.370381236076355,-0.540582001209259,-1.7873630169823764,-8.486165951359272,-4.578285821148753,50,jumping
1783067225685295900,6.4751689,0.8535052731864153,-4.187380962201953,-0.2102864259898662,0.5048953890800476,-0.8972705006599426,-0.394926518201828,-1.810587240703404,-8.569373811399936,-4.411120744004846,50,jumping
1783067225705219800,6.4950928,0.7113371285244822,-3.9005169079661366,0.9607546646803616,-0.2524799108505249,-0.7636474370956421,-0.2518649995326996,-1.8276336525723336,-8.590333012798428,-4.363064569105208,50,jumping
1783067225725142800,6.5150158,0.726541858049482,-2.6616835530519483,1.56981302973032,-0.6077823042869568,-0.9227913618087769,-0.2208703458309173,-1.859747723583132,-8.558294783502816,-4.412179897668957,50,jumping
1783067225745067000,6.53494,0.7275070498198271,-1.754879089745879,1.9089412319496275,-0.5969507694244385,-0.8730010986328125,-0.0794839337468147,-1.9180236792020495,-8.509661393237113,-4.480762727768719,50,jumping
1783067225764990700,6.5548637,0.5355005230166018,-0.3412140685826539,2.481500296641886,-0.6321465969085693,-0.6124735474586487,-0.083636350929737,-1.9763610096193849,-8.46002028723359,-4.548893430186808,50,jumping
1783067225784913700,6.5747867,0.7160474981725216,0.5692120923519134,3.149048844583332,-0.9005600810050964,-0.1281216889619827,-0.0723525583744049,-1.99709473169893,-8.394210721239448,-4.66038835029602,50,jumping
1783067225804837600,6.5947106,0.5663688317500054,0.9391600879877804,2.105929492688179,-0.9268927574157716,-0.5586638450622559,-0.1765031516551971,-2.001992148351669,-8.308363160344959,-4.809731062762439,50,jumping
1783067225824760800,6.6146338,0.59766924829036,1.4974275924772025,1.8530226531118152,-0.7894680500030518,-1.290012240409851,-0.3262577652931213,-2.0578329857781528,-8.237554178628326,-4.906976508244872,50,jumping
1783067225844684800,6.6345578,0.4528741161257028,1.9237895492523909,3.043234308198094,-0.9409475326538086,-0.9872969388961792,-0.2893684506416321,-2.123129049292207,-8.16771725681424,-4.995107211640477,50,jumping
1783067225864608800,6.6544818,0.2566032098762691,1.911603436896205,2.561537417691946,-1.173986792564392,-0.5035399794578552,-0.2881340384483337,-2.151613823889941,-8.071435395666956,-5.137399128812551,50,jumping
1783067225884531700,6.6744047,-0.9841627205356956,2.480209964570403,1.583550463181734,-0.9088926911354064,-0.4633606672286987,-0.468131273984909,-2.139222982741892,-7.972957485780119,-5.293963901486992,50,jumping
1783067225904456000,6.694329,-0.6843292946115136,3.657522975116968,0.6915969475269317,-0.1628062129020691,-1.0160781145095823,-1.0395457744598389,-2.101025061772764,-7.945687786060571,-5.349965774694085,50,jumping
1783067225924380000,6.714253,0.1909963268473744,3.456611111193895,1.78466164906919,0.4774551391601562,-0.6696675419807434,-1.2336691617965698,-2.010739518430829,-8.014723328363894,-5.281244120645523,50,jumping
1783067225944302800,6.7341758,0.333227015351504,2.715377733838558,2.177815748247504,0.8584132194519043,-0.1753780841827392,-1.0737791061401367,-1.8641693394176664,-8.130164063489437,-5.157100439104438,50,jumping
1783067225964226800,6.7540998,0.1122830017469823,2.1580904725581407,1.5834692146390676,1.1210355758666992,-0.3858614861965179,-0.8293381929397583,-1.7342051350295542,-8.264950135076045,-4.985330498513579,50,jumping
1783067225984149500,6.7740225,-0.1326112117655575,1.8998551314353944,1.3822767802089453,1.2533044815063477,-0.8381469249725342,-0.8618319630622864,-1.657652933485806,-8.409538638752698,-4.764684883333742,50,jumping
1783067226004073700,6.7939467,-0.674589406363666,1.384276429593563,2.12102447822839,1.0899858474731443,-0.6482143402099609,-0.8444021344184875,-1.5873324659384789,-8.548325762674212,-4.536175110650063,50,jumping
1783067226023997400,6.8138704,-1.270670362549275,0.5693512085616588,1.8549027677699923,0.6111357808113098,-0.23124361038208,-0.9216920733451844,-1.473533506670594,-8.65187615351975,-4.375398273238539,50,jumping
1783067226043920600,6.8337936,-0.7728203557521104,-0.619379852578044,0.7137117487013339,0.2409165948629379,-0.2458951920270919,-0.8511478900909424,-1.336770582053065,-8.71157162054777,-4.300225835615397,50,jumping
1783067226063844600,6.8537176,0.0506400539129972,-1.5299550665944814,-1.0172940057650208,0.1438374817371368,-0.9255359172821044,-0.9944126605987548,-1.2278389365606008,-8.750147727179527,-4.254139499484002,50,jumping
1783067226083767600,6.8736406,-0.0163357793815433,-2.295122861766815,-1.180619650876522,-0.0063070487231016,-1.1006603240966797,-1.0926542282104492,-1.1346766687385736,-8.782249669361114,-4.2136663270592685,50,jumping
1783067226103691500,6.8935645,-0.2401431465279311,-2.4664953274726864,-0.9739888247847556,-0.3793516457080841,-0.5819845795631409,-1.074107646942139,-1.0145680148672311,-8.789543333500623,-4.22906000328511,50,jumping
1783067226123615500,6.9134885,0.7008872653763741,-2.0553011292129755,-1.7196984707713123,-0.3813755810260772,-0.4975850284099579,-0.9970417618751526,-0.8749158716142177,-8.773523926591873,-4.293040308025479,50,jumping
1783067226143538400,6.9334114,1.5319634838074443,-1.665864589253068,-1.907431119647622,-0.1748936474323272,-1.0158193111419678,-0.7297077775001526,-0.7827279287170619,-8.764624580821394,-4.32886565464437,50,jumping
1783067226163462700,6.9533357,1.5884522637486458,-1.6386305453687906,-1.3614385748416185,-0.2732954025268554,-1.4835963249206543,-0.3995200097560882,-0.7977672385472804,-8.756843425425886,-4.341849054858089,50,jumping
1783067226183385600,6.9732586,0.9780586315069348,-0.9616407998651264,-0.4521805809035897,-0.6068148612976074,-1.310405969619751,-0.2219414263963699,-0.8716661491032689,-8.723203606152534,-4.395030317686498,50,jumping
1783067226203309600,6.9931826,0.3903071122493595,-0.2752285614997148,-0.8727060866102576,-0.6130982041358948,-1.1845074892044067,-0.2693188190460205,-0.9415718983698635,-8.670256444340945,-4.484469473332166,50,jumping
1783067226223233500,7.0131065,0.3727571347724646,0.1419850431799888,-0.7365922735512256,-0.4035468995571136,-1.0488018989562988,-0.3951025903224945,-0.9843260944038628,-8.631225579679011,-4.550104267281293,50,jumping
1783067226243156700,7.0330297,1.033049281844869,0.1061047515034675,-0.7009454983696342,-0.2084834575653076,-0.9748298525810242,-0.449382334947586,-1.0014756743863225,-8.611954477497935,-4.58275829038769,50,jumping
1783067226263080700,7.0529537,2.004901313796639,0.3248275819271802,-0.6642436611771583,0.0668511241674423,-1.045459270477295,-0.4127899706363678,-1.0175923311244697,-8.613703366991878,-4.575915584886074,50,jumping
1783067226283003600,7.0728766,2.50929109762609,0.6850725141942501,-0.1733878971815109,0.3117486536502838,-1.1862071752548218,-0.3072502315044403,-1.0560107629764826,-8.63950825485587,-4.51819989349842,50,jumping
1783067226302927600,7.0928006,2.2868629829436538,0.9330828139007092,0.2608686122357845,0.4087174832820892,-1.4671120643615725,-0.2978998720645904,-1.1234307598419486,-8.678625628757477,-4.426032189671695,50,jumping
1783067226322851600,7.1127246,2.2220710695594548,0.9819903449326752,0.7297948684960603,0.3674843609333038,-1.6349116563796997,-0.335582822561264,-1.205732245627418,-8.721696124199033,-4.31840388186276,50,jumping
1783067226342774500,7.1326475,1.9481242184333505,0.6857020442694425,1.5580293606951832,0.0265310443937778,-1.3087284564971924,-0.2685595452785492,-1.2799923176459966,-8.747876275116205,-4.243425797767937,50,jumping
1783067226362698500,7.1525715,1.6510492974370716,0.5461415978878736,1.310970370364189,-0.4619726836681366,-1.1573036909103394,-0.2778457403182983,-1.334865040692687,-8.736255979949235,-4.25045175088197,50,jumping
1783067226382621400,7.1724944,1.290064798849076,0.5500204851478337,0.7992085964620113,-0.8466004133224487,-1.1609214544296265,-0.3428598642349243,-1.3829898969143628,-8.687464184251427,-4.334247932204604,50,jumping
1783067226402545400,7.1924184,0.8259948965787887,1.46125036368072,0.9953402403712271,-0.9740907549858092,-0.8967112898826599,-0.4651237428188324,-1.4038953222990036,-8.616921159994602,-4.466334389443695,50,jumping
1783067226422469600,7.2123426,1.0729834520220756,1.5601532209813591,0.247982242655754,-0.8770825862884521,-0.8295264840126038,-0.6143401861190796,-1.3873717652603983,-8.547779234707354,-4.6022862899392845,50,jumping
1783067226442392600,7.2322656,0.763743169196695,1.49069916100502,-0.2275964572310447,-0.6863752007484436,-0.8696555495262146,-0.7047648429870605,-1.3522680109143257,-8.49373960148394,-4.711491637806594,50,jumping
1783067226462316500,7.2521895,0.6515503299511969,1.278525313833356,-0.3135650141566992,-0.4816594123840332,-0.8557623028755188,-0.7761801481246948,-1.3089084693983195,-8.458586455038189,-4.786384089444577,50,jumping
1783067226482239500,7.2721125,0.8715623234026133,0.8364847264111042,-0.5815507649213075,-0.4433642625808716,-0.8715401291847229,-0.8203742504119873,-1.256430386403203,-8.436279346162081,-4.839520344087481,50,jumping
1783067226502163700,7.2920367,1.283202219603211,0.4308616062819957,-1.334836983641982,-0.3655146062374115,-1.0149080753326416,-0.9052252769470216,-1.20299639092274,-8.416272330921888,-4.887693131104111,50,jumping
