time,seconds_elapsed,acc_x,acc_y,acc_z,gyr_x,gyr_y,gyr_z,grav_x,grav_y,grav_z,fs_hz,activity
1783067247183682000,0.0,0.3840224059566855,3.9111569599241016,1.3461328691601753,-0.1275733411312103,-0.3263461589813232,-0.0505458898842334,-1.6403797271236775,-9.432036935162545,-2.12514594207257,50,jumping
1783067247203606000,0.019924,0.3106666623666882,3.48752355132997,1.1819874320983883,-0.226411297917366,-0.355763703584671,-0.2339761853218078,-1.6303208360545336,-9.429034830737113,-2.146102659253031,50,jumping
1783067247223529200,0.0398472,0.3855583833523094,1.8410510602891443,0.6081782212145627,-0.2636547684669494,-0.5752220749855042,-0.3734799921512604,-1.5884949338465928,-9.42812648372054,-2.181168858067691,50,jumping
1783067247243453000,0.059771,-0.4883453886099159,-0.5822054294377565,-0.3484524954035878,-0.3968681097030639,-1.3330117464065552,-0.4851389229297638,-1.5500181959360837,-9.428401793530584,-2.207507414416969,50,jumping
1783067247263376000,0.079694,-2.9612799553498625,-2.1941209863603115,0.8821165967732667,-0.6615654230117798,-1.6791390180587769,-0.9140292406082152,-1.497322086276114,-9.423443294340371,-2.264319288832694,50,jumping
1783067247283299800,0.0996178,-3.516290796130896,-3.071991616126895,1.2406640774726867,-0.2992765009403229,-1.557121515274048,-1.447974681854248,-1.3463324833855033,-9.433522205284238,-2.3165581562444566,50,jumping
1783067247303222800,0.1195408,-1.9951304458886383,-5.458522011002898,-0.0882289030730724,0.0863583534955978,-1.838605284690857,-1.4420723915100098,-1.1391786563329398,-9.467679326429964,-2.288165882235765,50,jumping
1783067247323147000,0.139465,-1.7995754328235982,-8.674465001946688,0.2125982100635766,-0.0725059881806373,-1.707053542137146,-0.8131809830665588,-1.0023886245127769,-9.494232986834644,-2.241684263176471,50,jumping
1783067247343070000,0.159388,-3.811620188634097,-12.419257095193862,-0.6124789871484041,-0.3158223927021026,-1.3435707092285156,-0.2625590860843658,-0.9773814628977328,-9.493823236989977,-2.2544281555458903,50,jumping
1783067247362994000,0.179312,-5.760708722054958,-15.764674607312678,-2.213503147700429,-0.1420564949512481,-0.7767118215560913,-0.068471111357212,-0.9949803940828889,-9.48607306125462,-2.2792164137132462,50,jumping
1783067247382916900,0.1992349,-5.3935009650379415,-19.30092916406393,-2.6144004083514214,-0.3843408524990082,-0.3431103527545929,0.188586801290512,-1.0281966541819274,-9.475727608329056,-2.30733001691103,50,jumping
1783067247402841000,0.219159,-5.534305858522654,-20.0042048589468,-3.755467801040411,-0.8729951977729797,-0.2877115309238434,0.3315066695213318,-1.097782450779155,-9.439537520051005,-2.420824294143915,50,jumping
1783067247422764000,0.239082,-4.9755871031343935,-16.63540413315296,-5.354195959609747,-1.2254009246826172,-0.0041616684757173,0.193819373846054,-1.1579087104398758,-9.37969124637544,-2.6174478132233023,50,jumping
1783067247442688000,0.259006,-3.357045990592241,-13.094285185235735,-7.835265171357989,-1.035384178161621,-0.0211208686232566,0.31388720870018,-1.194630786702782,-9.310803588110208,-2.8376372090682387,50,jumping
1783067247462612000,0.27893,-1.2161178113676607,-11.026804373407364,-8.858113011857867,-0.5506845712661743,-0.2051976323127746,1.1307084560394287,-1.329367466189712,-9.24789441973269,-2.9798671669200063,50,jumping
1783067247482535200,0.2988532,-0.5638100871779024,-8.027740630847216,-6.205935538297891,-0.2459307312965393,0.020204858854413,1.8430644273757932,-1.6167089286789298,-9.179535169255733,-3.0484011894419787,50,jumping
1783067247502459100,0.3187771,0.553348314396292,-4.080129963272809,-4.02791900678128,0.1254840344190597,-0.0987881124019622,1.7950379848480225,-1.9581461384929717,-9.108329297176002,-3.0617610217526554,50,jumping
1783067247522382000,0.3387,1.0814945291273297,-0.6911012729644775,-0.4521472631558775,0.6457056403160095,-0.2086975127458572,1.558221697807312,-2.2706644200757147,-9.061080054745078,-2.985177840548753,50,jumping
1783067247542306000,0.358624,1.4094564635574818,3.227601864555478,2.434418227471411,0.971685230731964,-0.2066302001476287,1.1707637310028076,-2.5333842131361366,-9.04221928693056,-2.8267680245295166,50,jumping
1783067247562229000,0.378547,2.0934885287880896,6.9576680978357786,3.49820130494982,1.244923114776611,-0.3918578624725342,0.4579402506351471,-2.697725465030968,-9.059329411685466,-2.611748432537913,50,jumping
1783067247582153000,0.398471,2.0680019130930303,9.144091515430809,5.123140886357426,1.4851776361465454,-0.1527424305677414,-0.1972770243883133,-2.7395754787668585,-9.120897686848044,-2.3397316726915536,50,jumping
1783067247602076200,0.4183942,2.8543162489295004,11.259462790203091,5.774228128841519,1.2095575332641602,0.3831635415554046,-0.9534478187561036,-2.62507143996954,-9.21316797426641,-2.0968841625757517,50,jumping
1783067247621999900,0.4383179,3.294703516186773,13.22996323722601,4.743469369086623,0.8497890830039978,0.3070857226848602,-1.152986764907837,-2.408100860040635,-9.30915932803452,-1.926391986835748,50,jumping
1783067247641923000,0.458241,4.02440339987576,13.7847072437644,3.3445810612946745,0.6392789483070374,-0.0728102326393127,-1.085073709487915,-2.192689199991524,-9.387755310365558,-1.7979269349642095,50,jumping
1783067247661847000,0.478165,4.442570944279432,13.304284026455878,2.54025029951334,0.5584983229637146,-0.0576788149774074,-0.566015362739563,-2.03385414429754,-9.445129056447744,-1.6802831368364393,50,jumping
1783067247681770000,0.498088,5.207023284658789,13.39077689951658,1.431437555349618,0.4820792078971863,-0.0654235482215881,0.1654862761497497,-2.00013965235278,-9.468775889495015,-1.5849654445461927,50,jumping
1783067247701694000,0.518012,4.508849589090049,13.319482764631507,0.6513099453240633,0.6943545937538147,-0.3727782964706421,0.4688813090324402,-2.072001211862266,-9.472150334364176,-1.4681819165095686,50,jumping
1783067247721617000,0.537935,2.969057311353087,12.506500494360925,0.9194505943894384,0.847801685333252,-0.6784639954566956,0.4995121359825134,-2.181215181427449,-9.472598662653564,-1.2971360524095594,50,jumping
1783067247741540900,0.5578589,2.1011784987688062,11.103729792177676,0.858999340558052,0.7418891787528992,-0.859373152256012,0.4774776995182037,-2.291667168354988,-9.470585569265484,-1.1075474734682589,50,jumping
1783067247761464000,0.577782,2.058525790347904,9.665648707160353,0.3049795566409826,0.5130542516708374,-1.133180022239685,0.491644412279129,-2.401944090976566,-9.461094102820754,-0.942735169995576,50,jumping
1783067247781388000,0.597706,2.2165642888367176,7.80635530321598,-0.6219962456215172,0.3131083548069,-1.5567365884780884,0.5435661673545837,-2.523172031201422,-9.442643084850909,-0.8003090319845825,50,jumping
1783067247801311000,0.617629,1.899644995816052,6.502841094076633,-0.5413327363014221,0.053310576826334,-1.7344081401824951,0.499041885137558,-2.645887725766003,-9.418679440939426,-0.6768671420373022,50,jumping
1783067247821235000,0.637553,2.140329190418124,5.7218993911892175,0.0896913768410682,-0.3308756053447723,-1.506085753440857,0.5974991917610168,-2.7670114749640224,-9.388169736385343,-0.6134229169350117,50,jumping
1783067247841158000,0.657476,2.5002298392921687,5.197259431013465,-0.0004115034103393,-0.6929031610488892,-1.3179224729537964,0.7406709790229797,-2.909787960782647,-9.3435683781147,-0.6334534591812641,50,jumping
1783067247861082000,0.6774,1.8346783103868365,4.472103328233957,-0.4188952010910958,-0.7461439967155457,-1.3639847040176392,0.6166734099388123,-3.058264704069495,-9.291929960814118,-0.6909671251907944,50,jumping
1783067247881006000,0.697324,1.298456633488834,3.1685084550738334,-0.0953776788491755,-0.8692575693130493,-1.2443381547927856,0.341948390007019,-3.1659342206716534,-9.250978357222676,-0.7527681861959398,50,jumping
1783067247900929000,0.717247,1.128177223716676,2.13062028183043,0.426679279096052,-1.2625837326049805,-0.8834812045097351,0.1335304677486419,-3.2268449087083337,-9.218654881244897,-0.8799318000800908,50,jumping
1783067247920853000,0.737171,1.1845409159734843,1.6822791329592466,-0.0093703973483294,-1.440599799156189,-0.585304856300354,-0.1432774364948272,-3.2408602823182937,-9.191692055517434,-1.0862759181849655,50,jumping
1783067247940776200,0.7570942,1.7906901155784725,1.2545476413965224,-0.3966162223309278,-1.47491192817688,-0.5059225559234619,-0.4038192629814148,-3.2031194574669,-9.174566733193396,-1.3182304244950414,50,jumping
1783067247960700200,0.7770182,3.538899810563028,0.3576350420296192,-1.7000339853584765,-1.4571210145950315,-0.6314605474472046,-0.4118878543376922,-3.133830817185342,-9.161862734442948,-1.552339624620974,50,jumping
1783067247980623000,0.796941,5.351686607137322,-6.021621173432469,-4.303709586077928,-1.095787763595581,-0.6072884202003479,0.3220183551311493,-3.1443823140770197,-9.123051650011538,-1.7473358347594736,50,jumping
1783067248000546000,0.816864,1.781627103678882,-9.487107080477475,-3.245960528066754,-0.8565892577171326,-0.1857094019651413,0.4104768633842468,-3.239845552317798,-9.060174630337952,-1.89394181573838,50,jumping
1783067248020469000,0.836787,-1.0829854983374476,-13.59136143118143,-2.9694395886689424,-0.3527270853519439,0.1807676404714584,0.5068920254707336,-3.3112723736718297,-9.008256811574102,-2.014240950680524,50,jumping
1783067248040393000,0.856711,-3.802438811051845,-19.04559012890458,-3.5137650770455595,0.5003178715705872,0.2844770848751068,1.3644464015960691,-3.459025186598301,-8.951605534547566,-2.0184866254262626,50,jumping
1783067248060316200,0.8766342,-11.855738246047496,-25.10196989650726,-2.241762296848744,1.271310329437256,0.2307838648557663,1.6480464935302734,-3.740540281021594,-8.869207821846008,-1.875067457789928,50,jumping
1783067248080240000,0.896558,-19.578862308347222,-25.929489226174358,1.3656110382206736,1.1720291376113892,0.4760951697826385,0.5138682126998901,-3.9305516884848473,-8.828183737540245,-1.668627185834199,50,jumping
1783067248100163000,0.916481,-17.189994994956255,-20.550138951563834,2.5798990038126703,0.651862382888794,1.062148928642273,-0.7323694229125977,-3.877333893038332,-8.868465479046106,-1.5770276372842489,50,jumping
1783067248120086800,0.9364048,-9.348998586469888,-15.926307769292592,-0.6326636970430612,1.5375735759735107,0.9894565343856812,-0.9300012588500975,-3.681144381462037,-8.967254354578255,-1.4859054969877004,50,jumping
1783067248140010000,0.956328,-4.632999700371921,-10.004845006179808,-1.117087893621251,2.892892599105835,0.3349422216415405,-0.7473512887954712,-3.5140193440675733,-9.08547039963603,-1.1297207268316298,50,jumping
1783067248159934000,0.976252,-1.3195131577819583,-4.190160363787412,0.8030559195399284,3.242290496826172,-0.4203625321388244,-0.66665118932724,-3.381352164331078,-9.188788150769472,-0.5504679001217707,50,jumping
1783067248179857000,0.996175,2.0896493890166283,-0.8007710234731436,1.320530810391903,2.705527305603028,-1.2596404552459717,-0.1409972161054611,-3.304707316067814,-9.2328803904742,0.0568829805902903,50,jumping
1783067248199780900,1.0160989,2.1084522891640662,2.471316464018821,1.6229343790650366,1.9898369312286377,-1.9446842670440676,0.387222409248352,-3.323360578611493,-9.20710531322658,0.5957421161526814,50,jumping
1783067248219703800,1.0360218,1.878968118490279,5.755862451067567,0.8945300150793045,1.2599248886108398,-2.316166400909424,0.3460147678852081,-3.3596319154322147,-9.154580760741233,1.0377406545314938,50,jumping
1783067248239628000,1.055946,2.423391222022474,8.636969091767073,0.2055294407211244,0.881890058517456,-2.02294659614563,-0.0136323422193527,-3.34186654163897,-9.117155577710273,1.3710522063612938,50,jumping
1783067248259552000,1.07587,3.557311665566265,10.72770335341096,-1.3738041354179382,1.0268818140029907,-1.8452941179275515,-0.4184991717338562,-3.238882844765484,-9.10548150652945,1.6643999235279856,50,jumping
1783067248279475000,1.095793,4.4120843283399935,9.643302435317636,-2.4369535911679265,1.3678457736968994,-1.62884783744812,-0.2926421761512756,-3.104251671479642,-9.086201636520029,1.9937264243096111,50,jumping
1783067248299399000,1.115717,3.906680106770992,9.668680622202157,-2.6431340431436894,1.3333797454833984,-1.5323716402053833,-0.2762399911880493,-2.994339928908646,-9.040053633329272,2.34131543475166,50,jumping
1783067248319321900,1.1356399,3.874449277512729,10.418499457073212,-2.960458702094853,0.8563171029090881,-1.4188368320465088,-0.5393638014793396,-2.8456907516643404,-9.00936097342372,2.627514741468429,50,jumping
1783067248339246000,1.155564,4.398048788724839,9.790526548194885,-4.455085850198567,0.4364172220230102,-1.4313174486160278,-0.612630307674408,-2.664796132114529,-9.006724779701232,2.8192469813749192,50,jumping
1783067248359169000,1.175487,4.9517771884799,9.93820717266798,-5.527842215466499,0.0342161059379577,-1.5188268423080444,-0.5084993839263916,-2.47198252671212,-9.023472500884532,2.9388123952150345,50,jumping
1783067248379093000,1.195411,5.10161236063838,8.923018907010555,-6.051553954881429,-0.515072226524353,-1.3246597051620483,0.0899864435195922,-2.343941253210604,-9.047966890671848,2.968271421672404,50,jumping
1783067248399016000,1.215334,4.607621513487398,8.367455985304712,-6.248755273848771,-1.0991079807281494,-0.9549753665924072,0.7894821763038635,-2.360064997276664,-9.073896281698346,2.8748759296163917,50,jumping
1783067248418940200,1.2352582,3.537996139721572,7.289735567888617,-6.584393588125705,-1.426298975944519,-0.326117604970932,1.25642192363739,-2.517168699133396,-9.096610217809676,2.661943373031914,50,jumping
1783067248438863000,1.255181,1.9120795299753544,6.493904923427104,-7.216488545370101,-0.994412362575531,-0.2293089777231216,0.9996747970581056,-2.718177009168267,-9.097448422199488,2.453224634750187,50,jumping
1783067248458787000,1.275105,1.0045192798659204,6.409082029405236,-5.624842454016209,-0.6482101678848267,0.3264336287975311,0.3907918334007263,-2.843416084730625,-9.096873252660036,2.309171991515905,50,jumping
1783067248478710000,1.295028,1.7418123951628803,5.099644275435805,-5.056867209982872,-0.4621756076812744,1.0414537191390991,0.0665881782770156,-2.9074890361905097,-9.111427263191342,2.1676639181979,50,jumping
1783067248498634000,1.314952,2.272974158322811,3.642890054130554,-4.8852094975948335,-0.3701659739017486,1.2952494621276855,0.0271385218948125,-2.9663951064065097,-9.125312580680848,2.024737210253626,50,jumping
1783067248518557200,1.3348752,1.540015272837877,2.215799149683117,-3.3935318469464777,-0.6318800449371338,1.423587441444397,-0.0252546686679124,-3.020379794572293,-9.142672880804538,1.859896484404057,50,jumping
1783067248538481000,1.354799,0.3538663371458649,2.2486679845839737,-1.3611246865868567,-1.4264110326766968,1.5387340784072876,-0.2591065466403961,-3.0482410304442045,-9.18437033432722,1.5893217400595545,50,jumping
1783067248558404000,1.374722,0.0301204129755496,2.948563973900676,0.1038029043018817,-2.3024449348449707,1.8601726293563845,-0.5090485215187073,-3.023620676189661,-9.2590815841794,1.139087617048621,50,jumping
1783067248578327800,1.3946458,0.4358379333898425,2.500428576734662,-0.9116939889132976,-2.382079124450684,1.8277359008789065,-0.8191326260566711,-2.932990264932811,-9.340064169386029,0.5754586220586672,50,jumping
1783067248598252000,1.41457,0.7418494634270668,-1.3016197736948727,-2.3226889140844342,-1.4093319177627563,1.5281254053115845,-0.962982714176178,-2.774526380638778,-9.405249466001989,0.1168814080536831,50,jumping
1783067248618175000,1.434493,-0.5698392843395471,-6.410674851554632,-1.1963257540524006,-0.1869032382965088,1.283583402633667,-0.8582789301872253,-2.6005323342576623,-9.454950777760148,-0.1073168033075053,50,jumping
1783067248638099000,1.454417,-4.843237903305888,-11.71454815263748,1.8705173932701349,0.4963148832321167,0.905909299850464,-0.7394343018531799,-2.448004123622924,-9.495385079479217,-0.1237974984519183,50,jumping
1783067248658022000,1.47434,-8.680997618585824,-17.135571330851317,5.241029599156976,0.935309886932373,0.820021390914917,-0.3517116010189056,-2.334873419005424,-9.524611173963546,-0.0227172149138059,50,jumping
1783067248677945900,1.4942639,-10.430777923887968,-23.425907153844832,6.540308947205543,0.4402359426021576,1.4380933046340942,0.5200960636138916,-2.3506674927257,-9.520400278270245,0.0819027596583124,50,jumping
1783067248697869000,1.514187,-10.519242973804474,-27.19497911734581,3.752020875456929,-0.6846814751625061,2.0701255798339844,0.9468761086463928,-2.5034178216785192,-9.481645307940244,-0.0408584454152733,50,jumping
1783067248717793000,1.534111,-10.223816258406638,-27.77132003866434,-0.3759603877931833,-0.8728890419006348,1.8290669918060305,0.2642034888267517,-2.629455354142189,-9.44280441289246,-0.2996536306441761,50,jumping
1783067248737716000,1.554034,-7.845289137244224,-21.520629997360704,-3.12196414604187,-0.7192227244377136,1.019758224487305,-1.0638408660888672,-2.5391119431331752,-9.457645423671602,-0.5256020832061767,50,jumping
1783067248757640000,1.573958,-3.377097721756994,-16.130833147537707,-4.4425937406331295,-0.6864140033721924,0.7030275464057922,-1.4255179166793823,-2.2762109482869506,-9.513460834395884,-0.6952133844584226,50,jumping
1783067248777563000,1.593881,0.1661843955434858,-10.283985772687195,-4.742729948896169,-0.582655131816864,1.143970966339111,-1.1160465478897097,-2.0172015540517867,-9.558559036272763,-0.8574572256825864,50,jumping
1783067248797487000,1.613805,1.0741308684915305,-6.032051382032036,-3.905386559829116,-0.3156492710113525,1.930285096168518,-0.5361655950546265,-1.832793519553542,-9.582034019884466,-0.9979385863013563,50,jumping
1783067248817410000,1.633728,0.544611611841619,0.5588362442880869,-2.4978356376320123,-0.4003059267997741,1.95673942565918,-0.3183273077011108,-1.7074454306587576,-9.589765490919351,-1.1364129179466516,50,jumping
1783067248837334000,1.653652,-0.7293437637276947,5.843155534595251,-0.1398036074876785,-0.4830295741558075,1.8007270097732544,-0.5899726748466492,-1.6002144516043364,-9.589632804450392,-1.283998046156019,50,jumping
1783067248857257000,1.673575,-1.7659505188584326,11.51814645961523,1.932120155224204,-0.3249139487743377,1.7603963613510132,-1.590002179145813,-1.3502527255691588,-9.60936918605566,-1.4167679556146264,50,jumping
1783067248877181000,1.693499,-0.6943835825707763,16.23713663648367,2.270332703903317,0.1123770326375961,1.5368748903274536,-2.7689754962921143,-0.8769610406409949,-9.654428809487818,-1.480994490201026,50,jumping
1783067248897105000,1.713423,1.1350972322382031,17.045995689344405,2.2478829716861246,0.8378134369850159,1.1641331911087036,-3.109819173812866,-0.2537317095605656,-9.702081372022628,-1.4055727539919316,50,jumping
1783067248917027800,1.7333458,2.430388679694384,17.136639836865662,1.7454399380102752,1.409050226211548,0.5118127465248108,-2.4498231410980225,0.3211476513054221,-9.729576697191597,-1.1842984124545006,50,jumping
1783067248936951800,1.7532698,1.7594840993233023,16.016734474670887,2.529304542607069,1.5217024087905884,0.2987257540225982,-1.4630146026611328,0.7045983948539942,-9.741083595111965,-0.8861342349167912,50,jumping
1783067248956875000,1.773193,1.351633220142126,16.24716703211069,3.7831928433120248,0.528044581413269,0.5257863402366638,-0.6954282522201538,0.918219737420231,-9.74167220865488,-0.6535222145460545,50,jumping
1783067248976799000,1.793117,1.0748382861085235,15.121917970800398,3.294807268822193,-1.1512880325317385,0.1556236892938614,-0.0144768264144659,0.9889635449461638,-9.730176416650414,-0.7183470803517847,50,jumping
1783067248996722000,1.81304,0.6890515738930553,13.3469143769145,1.5282693054646252,-1.5225508213043213,-0.23759625852108,0.5407347083091736,0.937060339229554,-9.710571552470324,-0.998552188155055,50,jumping
1783067249016646100,1.8329641,0.1764477231435477,12.181371883660557,0.0216590202309191,-0.8158552050590515,-0.6434932947158813,0.940208375453949,0.7803351152963935,-9.696339613500236,-1.2419535327613354,50,jumping
1783067249036569000,1.852887,-0.7066830921735614,11.015120949876309,0.2895230443120002,-0.0962246060371398,-0.7007315754890442,1.3005694150924685,0.545972269202955,-9.700553431802987,-1.331000474219024,50,jumping
1783067249056493000,1.872811,-0.8609771434370428,10.779688392192124,0.1102862749718129,0.1087952926754951,-0.7728598713874817,1.3009334802627563,0.2669157286466099,-9.712174896013735,-1.3314786131247878,50,jumping
1783067249076416000,1.892734,-1.3471075594112276,9.88665701817274,0.3158012487761676,0.2068952769041061,-0.8869737982749939,1.0738755464553833,0.015931369007338,-9.719512399294972,-1.3043074053436516,50,jumping
1783067249096340200,1.9126582,-1.4380683716662228,8.38083276875019,0.9181878809772432,0.2271433174610138,-0.8536617755889893,0.9942800998687744,-0.2039050178570672,-9.723681209412216,-1.2565185030780732,50,jumping
1783067249116263200,1.9325812,-1.2849804813221095,7.536798357611894,0.7209798400081694,0.0346162021160125,-0.7436503171920776,1.027512550354004,-0.4172968259837478,-9.720758015441891,-1.2260064604364336,50,jumping
1783067249136187100,1.9525051,-1.8167282276764511,4.78827238740921,1.3386675017155707,-0.0154321258887648,-0.1275658905506134,1.381031513214111,-0.6588760697294026,-9.707906717175243,-1.2218001678530126,50,jumping
1783067249156110000,1.972428,-1.993295923937857,1.8132453539967537,1.5252888283491133,0.0135527160018682,0.3192139863967895,1.6372894048690796,-0.9499260313477368,-9.683284901615975,-1.225564781083539,50,jumping
1783067249176034000,1.992352,-2.572781280761957,-0.046641924187541,2.514499187663197,-0.2727773785591125,0.3705029189586639,1.5653510093688965,-1.2558463029049336,-9.645235449206828,-1.2500612897627057,50,jumping
1783067249195957200,2.0122752,-2.7162439952790733,-0.7580307828992605,2.8484102397561077,-0.6693987846374512,0.1485945135354995,1.1725581884384155,-1.5138615715362131,-9.594047698283196,-1.3538299995340406,50,jumping
1783067249215881200,2.0321992,-1.698375550626963,-3.2894711684912443,1.0654594862580298,-0.4117680788040161,-0.3301807045936584,0.7522422075271606,-1.697949288038909,-9.54674234175086,-1.4652914557650685,50,jumping
1783067249235805000,2.052123,-0.1582388433665037,-7.971303873354196,-0.0875743846870958,0.3205823600292206,-0.6244286894798279,0.7843455076217651,-1.8455586008414624,-9.520285711979865,-1.4589303963005542,50,jumping
1783067249255728000,2.072046,1.1272273756459354,-14.925532644391058,-1.2109345635108648,1.043903112411499,-1.1372212171554563,1.7341384887695312,-2.094185132750124,-9.493378415831923,-1.28861196969226,50,jumping
1783067249275652000,2.09197,-1.3152473170310257,-26.11289349045753,-0.5495123894952237,1.2533018589019775,-0.7582480311393738,3.4716427326202397,-2.608848911704123,-9.398204223665594,-1.0188389701846987,50,jumping
1783067249295575000,2.111893,-11.474218470561503,-36.7260597795844,1.4191338079631328,1.08954918384552,-0.1862415373325348,3.8383514881134033,-3.3342177804514765,-9.190538793829084,-0.7664146534282714,50,jumping
1783067249315499000,2.131817,-21.29971111819744,-31.29403005418777,2.626870013824105,0.3329355716705322,-0.4667061269283294,0.8102508783340454,-3.799004744949937,-9.02013721898198,-0.6124483728144318,50,jumping
1783067249335422000,2.15174,-17.17358980360031,-20.95183408459425,0.5139852951705456,-0.1614640355110168,-0.9303062558174132,-2.1988229751586914,-3.6462379032537338,-9.0864184941411,-0.5588766493637114,50,jumping
1783067249355346200,2.1716642,-5.544575908124447,-15.941347517514227,-3.4538825630128382,0.5837423801422119,-0.4728981256484985,-2.3319849967956543,-3.204584853844344,-9.255831057950854,-0.4802393851742148,50,jumping
1783067249375269000,2.191587,0.4605830830678343,-11.125445949423312,-5.313125698074698,1.747759222984314,-0.0004821741022169,-1.2577261924743652,-2.877081038445234,-9.371764545029402,-0.2506995022578164,50,jumping
1783067249395193000,2.211511,-0.0568365704655647,-4.903319739302993,-2.0554256323754787,1.92058265209198,-0.1624884009361267,-1.1447242498397827,-2.6679142641350624,-9.436001747140288,0.1203118391600903,50,jumping
1783067249415116000,2.231434,-1.0800092590056358,0.3108440647602081,2.0681845761835573,0.8081751465797424,0.2201593369245529,-1.3999160528182983,-2.427047260311991,-9.493355619478224,0.3949997270449996,50,jumping
1783067249435040000,2.251358,0.0458460976347327,5.823315692615509,1.7922095802307128,-0.6560437083244324,1.033053636550903,-1.6136698722839355,-2.1445137826263903,-9.562012391597031,0.3733463693698868,50,jumping
1783067249454963200,2.2712812,1.9220292615816,9.659458035826685,-0.559984829801321,-1.0270532369613647,1.5975301265716553,-1.6254462003707886,-1.837783436795324,-9.631925301256777,0.1377070279340725,50,jumping
1783067249474887200,2.2912052,2.915989153510332,12.110318571794032,-1.4255986200630664,-0.4122061729431152,1.8561890125274656,-1.363102912902832,-1.5497981234446168,-9.683197807854413,-0.064941692551854,50,jumping
1783067249494810000,2.311128,2.711405323076248,14.56215175218582,-2.0715467460930346,0.2870163321495056,1.554313063621521,-1.2893037796020508,-1.29433736160174,-9.720029116645454,-0.1269287000165786,50,jumping
1783067249514734000,2.331052,2.32569978633821,15.036963559353351,-2.3360820641428237,0.7916942834854126,1.005932092666626,-1.5013185739517212,-1.02235647678636,-9.753111302036046,-0.0448016803154489,50,jumping
1783067249534657000,2.350975,2.6968521893277764,15.31690278276205,-2.1409470300555227,0.7452759742736816,0.6657211184501648,-1.440056324005127,-0.7297161772366613,-9.778966458782554,0.0986926668823696,50,jumping
1783067249554581200,2.3708992,3.642953474755585,14.757686014723776,-2.857015571016073,0.5001270174980164,0.5219322443008423,-0.8244267106056213,-0.5025091211820021,-9.791513221144676,0.2100763086368329,50,jumping
1783067249574505200,2.3908232,3.281994549000263,12.919596142327784,-3.509409804445505,0.5580978989601135,0.4409215748310089,0.0311516262590885,-0.4293031247936189,-9.792470667999982,0.3059686224772595,50,jumping
1783067249594428200,2.4107462,1.998180188848078,10.672298861575126,-3.1821137865781783,0.4793188869953155,0.5504127740859985,0.6140778660774231,-0.5028515414115041,-9.785248315531016,0.407982104345411,50,jumping
1783067249614352000,2.43067,0.5152288654908538,8.378225216600299,-2.6220611522376536,0.1285737454891204,0.6659559011459351,0.8260423541069031,-0.652745677215606,-9.773894562345742,0.4639872289555147,50,jumping
1783067249634275000,2.450593,-0.5737786696150898,7.198360768005252,-2.353791323834657,-0.4608238339424133,0.8025979399681091,0.6824221014976501,-0.8114167014542967,-9.763897484466431,0.4222693536993115,50,jumping
1783067249654199000,2.470517,-0.6879641439825296,6.632881432440876,-2.356940727776289,-0.8428648710250854,1.053946852684021,0.3417382836341858,-0.9189937905326484,-9.759707047039267,0.2718900647267699,50,jumping
1783067249674122000,2.49044,0.0959944225080311,6.294971081578731,-2.669714883816242,-0.5902668237686157,1.4051324129104614,-0.0565856881439685,-0.9504249938458204,-9.759978265196084,0.0993900288962293,50,jumping
1783067249694046000,2.510364,0.4606794561143964,6.092802495592832,-2.0410171677947044,0.0607009418308734,1.8289973735809328,-0.4935499429702759,-0.9004644466295838,-9.76521090515256,0.0155228898127912,50,jumping
1783067249713969000,2.530287,0.6494760078951716,6.386970150840282,-1.6201029550313948,0.53011554479599,1.7353057861328125,-1.025843381881714,-0.7525760246247053,-9.777607445389032,0.0489085676450049,50,jumping
1783067249733893000,2.550211,0.2943795078998431,6.214699274989962,-0.2955775220453739,0.5332412123680115,1.649741530418396,-1.421078324317932,-0.5159927625354379,-9.79208546807468,0.1386080044949427,50,jumping
1783067249753816000,2.570134,-0.1113298840069211,5.14890836482048,0.346557183176279,0.2442335039377212,1.7109531164169312,-1.7716670036315918,-0.2066498961184173,-9.802338566541671,0.2045586594602093,50,jumping
1783067249773740000,2.590058,-0.7797364187508821,2.816276148870587,0.8517758190453052,-0.0829555839300155,1.8510924577713013,-1.8730878829956052,0.1427291669450234,-9.803155143621565,0.2194799324013292,50,jumping
1783067249793663000,2.609981,-1.5313240168601274,2.0938491787940263,1.2650865710675716,-0.6251544952392578,1.81587028503418,-2.052882194519043,0.5131893955525011,-9.791806066611407,0.166047562622372,50,jumping
1783067249813587200,2.6299052,-1.466499662511051,2.2399340585082768,0.4302443511664867,-0.9049444794654846,1.5130391120910645,-2.6021711826324463,0.9628195613209156,-9.75922481648028,0.0301912200393038,50,jumping
1783067249833510100,2.6498281,1.9803714143045248,-1.672410649895668,-3.543116259214282,-0.3791622519493103,0.6020234227180481,-2.6207797527313232,1.484487154622376,-9.69331471272111,-0.0797599846091121,50,jumping
1783067249853434000,2.669752,3.967723189015686,-9.930493821811677,-4.004786845257878,0.5715299844741821,0.3778573274612427,-1.6568360328674316,1.909143914914876,-9.618910336861012,-0.0460530457831453,50,jumping
1783067249873357000,2.689675,3.2396617201834914,-16.519032839179037,-1.4746867683589455,0.9641534686088562,0.3254359662532806,0.3127785325050354,2.057359815308452,-9.58749170076847,0.1328867133718449,50,jumping
1783067249893281000,2.709599,-1.731090071748942,-25.88839032306671,3.7650562981188296,0.4175800383090973,0.8656683564186096,3.02841591835022,1.7346815203696488,-9.647546648758649,0.293415320776496,50,jumping
1783067249913205200,2.7295232,-12.062173841828107,-29.447862089276317,7.119817977166176,-0.7737994194030762,1.780019998550415,3.744948625564575,1.0103891217473897,-9.749557408946751,0.3092396252382546,50,jumping
1783067249933128200,2.7494462,-16.137903524315355,-19.511307944512367,3.7981227014184,-2.5431182384490967,1.525264859199524,1.157125473022461,0.5063101939653978,-9.793569569152591,0.001625109563113,50,jumping
1783067249953052200,2.7693702,-9.539266306781768,-13.912871851384638,-3.267785406383872,-2.6404428482055664,1.4904584884643557,-0.6682214140892029,0.4972643889289349,-9.77999697087407,-0.5241814027532935,50,jumping
1783067249972975000,2.789293,-2.014389273110032,-10.405160667550565,-8.411039690965413,-0.5764439105987549,1.6752017736434937,-0.4377077519893646,0.6520886746115983,-9.74863035722971,-0.8422506695266813,50,jumping
1783067249992899000,2.809217,0.921963746254146,-5.54761016125381,-8.55711346476376,1.3079928159713743,1.5265333652496338,0.3103677928447723,0.6884364376693963,-9.75507997176051,-0.7313412942204623,50,jumping
1783067250012822000,2.82914,1.8260856924779711,-1.4087953693002462,-5.208341381520032,1.8868138790130613,1.8876527547836304,0.7485669851303101,0.5972952273461968,-9.781104639855029,-0.3789769956680014,50,jumping
1783067250032746000,2.849064,1.559838748204708,1.414026840212941,-2.5357927355825898,1.7983617782592771,1.9226434230804443,0.6847763061523438,0.460568068161793,-9.795826992690564,0.0051219809437665,50,jumping
1783067250052669000,2.868987,1.362339469204098,3.3761692087352277,-0.5089163944084197,1.168925404548645,1.7053650617599487,0.4156883656978607,0.3463723281286656,-9.795321381255985,0.3194758091030642,50,jumping
1783067250072593000,2.888911,1.5387076973706484,3.416584221231937,0.456879844635725,0.3087636232376098,1.6919177770614624,0.5499332547187805,0.2476658336503431,-9.792193604624272,0.4711729757411405,50,jumping
1783067250092515800,2.9088338,0.3982672774735838,4.454695681837201,0.8326887681942433,-0.339599996805191,1.9848873615264893,0.7501313090324402,0.096883525968017,-9.794811678168177,0.4718522267095744,50,jumping
1783067250112439800,2.9287578,-0.5694049115102737,6.599352672326565,0.2969745293617248,-0.7734779715538025,2.16255521774292,0.5412401556968689,-0.0514416206534253,-9.799951379144192,0.35873741378095,50,jumping
1783067250132363000,2.948681,-0.5851955511644482,7.661063035184145,-0.7052677454829216,-0.8435319066047668,2.1011857986450195,0.2870374619960785,-0.140995803813776,-9.80372329889834,0.1936567234293557,50,jumping
1783067250152287000,2.968605,0.351933177126199,8.72714562177658,-0.9440905301272868,-0.8371869921684265,2.29249119758606,0.1448515653610229,-0.187481596724689,-9.804836813098191,0.0206769389745662,50,jumping
1783067250172210000,2.988528,1.301623426956683,9.212675806835293,-1.5607622927904128,-0.5706481337547302,2.4492998123168945,0.0849703922867775,-0.2059768922276794,-9.803593535038829,-0.1322373826176393,50,jumping
1783067250192134000,3.008452,1.5319460942812264,9.48877589047253,-1.8598188891232013,-0.0494494028389453,2.503936529159546,-7.12907640263e-05,-0.2090000759737566,-9.80226550130546,-0.2056286450455896,50,jumping
1783067250212058000,3.028376,0.6904541341673582,9.467501047253608,-1.9785043052583933,0.441291868686676,2.343963623046875,-0.3139351904392242,-0.1715108877958729,-9.803588274341822,-0.1750798688564449,50,jumping
1783067250231981000,3.048299,0.3737370857205241,8.35145820570588,-1.3590741837978362,0.668158769607544,2.410640954971313,-0.5083909630775452,-0.0805970747540704,-9.806084767332672,-0.0677204685162287,50,jumping
1783067250251905000,3.068223,0.8534071465741843,7.106237780103087,-1.1438052932202816,0.6372289657592773,2.5002329349517822,-0.4655313491821289,0.0170348812613403,-9.806448339948057,0.0605779580841306,50,jumping
1783067250271828000,3.088146,0.8845305991124361,6.088012338706851,-0.6954653133928775,0.4621788263320923,2.504141569137573,-0.3199387490749359,0.0890115596170537,-9.804711140891907,0.1735294062777422,50,jumping
1783067250291752000,3.10807,0.2365496520806103,5.640390736281871,-0.148573792186845,0.0414240397512912,2.454651355743408,-0.2977916300296783,0.1342524487670976,-9.803009013149142,0.231023801331222,50,jumping
1783067250311675100,3.1279931,-0.4777761368658393,5.044036369982361,0.257001397147309,-0.4091657102108001,2.459660053253174,-0.4113198220729828,0.193165396248456,-9.80266063810289,0.2022358242695219,50,jumping
1783067250331599000,3.147917,-0.6550155218437314,5.011789466372132,0.1296188980817794,-0.7547656297683716,2.448084115982056,-0.5821933150291443,0.2812207876518368,-9.80213807553351,0.0969324248773511,50,jumping
1783067250351522000,3.16784,-0.794396008548513,5.590799899160862,0.1005892029523849,-0.8891217708587646,2.421539068222046,-0.8323783874511719,0.4156632699651643,-9.797711491262913,-0.0495623782115057,50,jumping
1783067250371446000,3.187764,-0.7508308614578098,5.365972906643152,0.071207625645399,-0.779535710811615,2.477167844772339,-1.1402935981750488,0.6143614398941397,-9.785519533687827,-0.1912168377302587,50,jumping
1783067250391369000,3.207687,-0.4269509356442839,3.253352391883731,0.9076888449251652,-0.5027977228164673,2.6688151359558105,-1.4516054391860962,0.8776595442991704,-9.763336343452334,-0.2781630805816501,50,jumping
1783067250411293000,3.227611,0.8502683370918035,1.3775041589796542,0.6244464883178472,-0.5025516748428345,2.2115204334259038,-1.824080467224121,1.2085954530388117,-9.726683898359536,-0.3182880971558391,50,jumping
1783067250431216000,3.247534,2.0374933775827286,-0.8140069371432066,-0.0674175491800531,-0.8681133985519409,1.6789042949676514,-2.3582983016967773,1.6262335667409002,-9.662869305574894,-0.3933163770679384,50,jumping
1783067250451139800,3.2674578,4.989676418763398,-6.133475282242894,-2.0492039813816545,-1.2061926126480105,1.6946609020233154,-2.12078857421875,2.091174698887765,-9.566202244502303,-0.5339898627253249,50,jumping
1783067250471062800,3.2873808,6.750844379520416,-12.18893208978176,-3.613695523828268,-1.410114288330078,1.4151177406311035,-0.9398938417434692,2.400093786934763,-9.481884377393126,-0.7097834693416952,50,jumping
1783067250490987000,3.307305,4.994897368282079,-13.90255387098789,-5.357429534703493,-1.1494730710983276,0.1527089774608612,-0.2094234228134155,2.517957511423528,-9.432832469454407,-0.923010698023811,50,jumping
1783067250510910000,3.327228,1.3394833481431003,-20.534789406740664,-2.7310399978727102,-1.026294469833374,0.0320312418043613,0.9104454517364502,2.461910337769985,-9.427298216202855,-1.1115038829438388,50,jumping
1783067250530834000,3.347152,-2.9960473173484203,-22.592112397170062,-0.9769073425799608,-1.9410582780838013,0.3522849678993225,1.922224760055542,2.1826173033103347,-9.461011685234308,-1.3768921645611525,50,jumping
1783067250550756900,3.3670749,-7.378442609867453,-18.383594538915155,-0.9248878170073032,-2.362316608428955,0.714031457901001,1.644703388214111,1.8500816312238573,-9.465310259211062,-1.7763700599335133,50,jumping
1783067250570680800,3.3869988,-7.0754293848633765,-14.632032513141631,-2.327025920375436,-1.990392088890076,1.2629622220993042,1.3043735027313232,1.6223358286499976,-9.426102868938443,-2.1649453068889675,50,jumping
1783067250590605000,3.406923,-4.741687161844968,-9.969932682752608,-3.08580153029263,-1.021928071975708,1.6116079092025757,1.4975533485412598,1.4272143846966323,-9.398708666056391,-2.407843816539645,50,jumping
1783067250610528000,3.426846,-2.8693948678568004,-2.4065789111703637,-2.155273369310796,0.2720014154911041,1.87239682674408,1.401051044464111,1.2340056424967945,-9.418384257385132,-2.4375537490181625,50,jumping
1783067250630452000,3.44677,-2.03266113512069,2.241347432437539,-0.6337927010729909,1.9747310876846316,2.06235671043396,1.056563377380371,1.0899440122384578,-9.497572944912314,-2.185977865784615,50,jumping
1783067250650375000,3.466693,-1.4874816602632404,4.770020691403746,0.5847564290948212,3.7451131343841553,1.855859637260437,0.4397473633289337,1.0251014646455645,-9.622169046396015,-1.5916683031857013,50,jumping
1783067250670299100,3.4866171,-1.9566376336261628,5.167984236690402,4.011974710935354,4.2576751708984375,1.8883402347564695,0.1880522817373275,1.0131724688556043,-9.724748546382784,-0.7570575539529323,50,jumping
1783067250690222000,3.50654,-1.0457830181464551,6.862389276251196,6.157388657271862,3.054652452468872,2.242652654647827,0.2910692095756531,0.9871251505378632,-9.756829445776344,0.0160600677127018,50,jumping
1783067250710146000,3.526464,0.6033114188957959,9.132992029267548,5.519824913227557,1.0619022846221924,2.3825061321258545,0.6530340909957886,0.8863309265326708,-9.755634098511932,0.4608906511796638,50,jumping
1783067250730069000,3.546387,1.6691119006112216,10.722939500010012,3.253305045610666,-0.3660947382450104,2.156656503677368,1.0639917850494385,0.6908227482840419,-9.76690426506698,0.5483875501837581,50,jumping
1783067250749993000,3.566311,1.9141784019507464,11.866724919486046,0.358878831545636,-0.7887523770332336,1.502783179283142,1.088403344154358,0.4571286682976409,-9.785863232558963,0.4452737241245806,50,jumping
1783067250769916200,3.5862342,2.008927792833745,12.30896716696024,-1.289523093187809,-0.6213610172271729,1.133286952972412,0.8849930167198181,0.254640202707611,-9.79849767320454,0.3082005645141005,50,jumping
1783067250789840000,3.606158,2.6056667745366693,11.920098782277108,-2.5169746378660203,-0.0281708016991615,1.0969897508621216,0.8961220979690552,0.0795800523317884,-9.803325239491462,0.2426326069897972,50,jumping
1783067250809763000,3.626081,3.1072593288630244,11.05325749604702,-2.9636615897893903,0.6356909871101379,1.0938736200332642,1.1675589084625244,-0.1270767667177599,-9.80109061230719,0.3047506797885522,50,jumping
1783067250829686800,3.6460048,1.9095825985930857,10.500973157620429,-2.791399481767416,0.9090015292167664,0.7836556434631348,1.170141100883484,-0.3668188672972843,-9.788997438931464,0.4597461207870393,50,jumping
1783067250849609700,3.6659277,0.6931544061020016,9.481425527709725,-1.6694740119218825,0.6321622729301453,0.953253984451294,1.0749461650848389,-0.5933460513290018,-9.76977602111101,0.608094853780046,50,jumping
1783067250869534000,3.685852,1.0215726329322905,8.660959623685478,-2.1440309675455094,0.3709292709827423,1.1400654315948486,1.0971332788467407,-0.8161202760353684,-9.748676534458994,0.6838667186010629,50,jumping
1783067250889457000,3.705775,1.1989164281327276,7.415778361049294,-2.7174340818464757,0.5026170015335083,1.1452912092208862,1.046607494354248,-1.045238828267157,-9.7222935544461,0.7449116274766624,50,jumping
1783067250909380900,3.7256989,0.225640500857681,6.802593271458148,-2.338163546591997,0.6235077977180481,1.176089882850647,0.6506149172782898,-1.2300079511627555,-9.69374082917869,0.8299660652320832,50,jumping
1783067250929305000,3.745623,-0.0631634353995323,5.7001481626302,-1.6867290981054306,0.5766564011573792,1.3661574125289917,0.3505386710166931,-1.3437291690193116,-9.670931031477451,0.9153478352457284,50,jumping
1783067250949228000,3.765546,0.4298348935827613,4.224098289224505,-1.4134556161962448,0.4076257646083832,1.588910460472107,0.3794368803501129,-1.439589589884132,-9.651904259446264,0.9688826607521622,50,jumping
1783067250969152000,3.78547,-0.1673041933536529,2.266599947115779,-1.0807410804115236,0.1886591911315918,1.5970721244812012,0.3353184461593628,-1.543053617620468,-9.634457450082898,0.983177581955865,50,jumping
1783067250989075000,3.805393,-1.3104368480093775,0.9201561123102904,0.0384849212169647,-0.4620660841464996,1.6809691190719604,0.0323074571788311,-1.6124344662301242,-9.630261751958727,0.9102176327504216,50,jumping
1783067251008999700,3.8253177,-1.1584493201225996,0.649471623980999,0.024604864424467,-0.9749773740768432,1.468748688697815,-0.4089809954166412,-1.6029630196601152,-9.648527476489544,0.7119106175635009,50,jumping
1783067251028922600,3.8452406,0.2515636082738637,-1.7774837202638387,-1.477986978948116,-1.0117427110671997,0.97907692193985,-0.5736879706382751,-1.5168990395359694,-9.67682535021305,0.477958653825894,50,jumping
1783067251048846800,3.8651648,-0.0228197345733642,-4.989079037392139,-1.6511632792055606,-1.0265978574752808,0.6562373042106628,-0.4903943836688995,-1.416993142672628,-9.700245388767122,0.2602819531879388,50,jumping
1783067251068769800,3.8850878,-0.8682527604632079,-8.36466430875957,-0.0367886409763828,-1.163489818572998,0.7101001143455505,-0.2184355705976486,-1.345934570109099,-9.713802204954623,0.0296065428859903,50,jumping
1783067251088693500,3.9050115,-1.3491640535496174,-13.529605524492265,0.0349848041415214,-0.7706868052482605,0.8763697147369385,0.6929131150245667,-1.3746892476893962,-9.70791723856926,-0.1922541814213618,50,jumping
1783067251108616700,3.9249347,-4.825303018164634,-21.72688439135551,1.5726660810738802,0.4021320343017578,1.4764351844787598,2.247665405273437,-1.6465230521842835,-9.663792265638708,-0.2654316641013138,50,jumping
1783067251128540400,3.9448584,-11.441715546363591,-28.61267617050409,1.9205320087611677,0.1565299034118652,1.2197381258010864,3.3699309825897217,-2.20328950446099,-9.553294247612357,-0.2246890453517437,50,jumping
1783067251148463600,3.9647816,-17.24684910107851,-21.327564755284783,2.758703665345907,-2.2292399406433105,1.4526571035385132,2.118250608444214,-2.744436070540547,-9.403062769612667,-0.4699967350360006,50,jumping
1783067251168387600,3.9847056,-14.37587865446806,-14.620933611500265,-4.26498910253942,-3.19616174697876,1.3881675004959106,0.3276874423027038,-2.937491668005288,-9.290556334373354,-1.1077487681940197,50,jumping
1783067251188310500,4.0046285,-6.969674177449941,-12.775861040610074,-11.04699142138958,-1.1124857664108276,1.3032187223434448,0.2776460945606231,-2.927207297617197,-9.219820417892931,-1.6114524694554506,50,jumping
1783067251208234500,4.0245525,-3.042017333623767,-7.445266905862092,-9.422062069115045,1.1916155815124512,1.6252093315124512,0.916981041431427,-2.9943638943061237,-9.188001384305954,-1.668777846351266,50,jumping
1783067251228157400,4.0444754,-2.4384251250252125,-1.722899897161126,-3.3887241544038056,1.6889783143997192,1.4099738597869873,0.7353899478912354,-3.1081922257989643,-9.182539027246833,-1.4800344129972158,50,jumping
1783067251248081700,4.0643997,-2.6560283037692307,2.3541700940191745,0.977520506042242,1.2431403398513794,1.0488358736038208,0.0028560778591781,-3.147516520449519,-9.199491915613413,-1.2778430306576192,50,jumping
1783067251268005600,4.0843236,-1.6680217672869562,6.302630071899294,3.4986686302006245,0.549306333065033,1.300975680351257,-0.6642169952392578,-3.0527450638651845,-9.243906811401247,-1.1837746808413416,50,jumping
1783067251287928600,4.1042466,1.2175199332505464,8.998577129080891,3.0982658750683068,0.2613556385040283,1.6541815996170044,-0.9185939431190492,-2.864431107969582,-9.300395591342449,-1.211634747669473,50,jumping
1783067251307852800,4.1241708,4.23327440610975,10.971524969255924,0.8690058438528329,0.7032895684242249,1.3802893161773682,-0.7445815801620483,-2.6649226811036466,-9.35917920422256,-1.2142195765309034,50,jumping
1783067251327775700,4.1440937,5.012518365168571,12.243337049186229,0.5770242274075746,1.107998251914978,1.0284204483032229,-0.4020288288593292,-2.5340704418346283,-9.409351056101915,-1.101354390981793,50,jumping
1783067251347699700,4.1640177,4.66420264788717,13.715843550896643,0.5856028167910874,1.131568431854248,0.7151306867599487,-0.4815476238727569,-2.437145898869633,-9.453414069712162,-0.9293201003663242,50,jumping
1783067251367622700,4.1839407,5.403097645422816,13.76282975847721,0.2693546279650181,1.045535922050476,0.543262779712677,-0.5361666083335876,-2.325651271021366,-9.496961535015702,-0.7546293038927018,50,jumping
1783067251387546600,4.2038646,5.928735968986153,12.967166871798035,-0.4204336627047508,1.016314148902893,0.3540813624858856,-0.4115517437458038,-2.230292662198841,-9.531935817763207,-0.5816890774134547,50,jumping
1783067251407469800,4.2237878,5.1545478320121765,11.186570572471618,-0.595503886950016,1.1912554502487185,0.2290161103010177,-0.2476057261228561,-2.1629927115164698,-9.55731692725718,-0.3867177094552665,50,jumping
1783067251427393800,4.2437118,4.768275309041142,9.575079378440975,-0.9820651637345552,1.1717883348464966,-0.0526582300662994,-0.0329517312347888,-2.1360002213031053,-9.569842062309384,-0.1613154378002509,50,jumping
1783067251447316700,4.2636347,4.044276559603214,8.171708956798911,-0.6873170782506466,1.0065943002700806,-0.3095545172691345,0.1135429143905639,-2.145674935360253,-9.568876432147622,0.0555473115397384,50,jumping
1783067251467240400,4.2835584,3.740478906223178,6.873226312085985,-0.936042832750082,0.796931266784668,-0.4727139174938202,0.1735322028398513,-2.1721268889561296,-9.559969487592577,0.243370419745054,50,jumping
1783067251487163600,4.3034816,3.3884856694728134,5.282247160208225,-0.9718903912007808,0.6249228715896606,-0.467216283082962,0.1944790482521057,-2.205450628017634,-9.547067920443416,0.3998249187117442,50,jumping
1783067251507087600,4.3234056,3.1094486556008456,4.4727790355384345,-1.6362790138065817,0.4689669609069824,-0.4409714639186859,0.1065145656466484,-2.2298785284399987,-9.535467499020696,0.5223762530274689,50,jumping
1783067251527010600,4.3433286,2.170459686396271,2.7986007914483544,-1.304680914831161,0.4034701585769653,-0.1612532138824463,0.0989399850368499,-2.244081387446076,-9.526306871965527,0.6196400378841906,50,jumping
1783067251546934500,4.3632525,0.7993843914203346,1.26984516377151,-0.6487047312617301,0.3002607226371765,0.2805697321891784,0.0565981268882751,-2.2608947212114927,-9.5178692984879,0.6847679782897234,50,jumping
1783067251566857500,4.3831755,1.5395252973638474,-0.6179103645473718,-0.3678069650191813,-0.0576347187161445,0.4751382768154144,-0.0552288107573986,-2.2655668046757578,-9.515846268227696,0.6973091146286576,50,jumping
1783067251586781700,4.4030997,2.2898203714445238,-1.6487778453737496,-0.0180103249976411,-1.1715208292007446,0.3754686415195465,0.1999571621417999,-2.2799441434659062,-9.520770865148306,0.5719687706489116,50,jumping
1783067251606704600,4.4230226,1.2248195887394249,-1.8727859227240085,1.9489117155492304,-2.38926362991333,0.8710765838623047,0.5617654919624329,-2.357426903858036,-9.51703109409809,0.1976402218412608,50,jumping
1783067251626628600,4.4429466,0.1732335834026336,-3.2558974001914263,1.908967827695608,-2.82044529914856,1.23344886302948,0.7776201963424683,-2.491120065641403,-9.478113042160867,-0.3606675415933132,50,jumping
1783067251646552600,4.4628706,-1.5077537561804055,-2.6383956164449454,1.2279279300183057,-2.1290433406829834,1.137478947639465,-0.3085457682609558,-2.54278712451458,-9.427484094163775,-0.9094990361522882,50,jumping
1783067251666475500,4.4827935,-1.9834845778889956,-5.608840582764149,0.489690811869502,-0.5914593935012817,0.7888575196266174,-1.6321091651916504,-2.3221878326945005,-9.450089309203625,-1.213936521805823,50,jumping
1783067251686399700,4.5027177,-2.040722276501357,-11.732364379835127,1.449512579613924,0.5279895067214966,0.5209802985191345,-1.2847293615341189,-2.0051792539551854,-9.519617603459954,-1.2355306601069866,50,jumping
1783067251706322700,4.5226407,-3.365839537900686,-18.54834203352332,2.0265069964051245,0.8172796368598938,0.2947160005569458,0.2267046272754669,-1.8921264368794857,-9.557938858547804,-1.111772178491205,50,jumping
1783067251726246700,4.5425647,-8.456560502168536,-25.53161219012737,2.66382524125576,0.7088074088096619,0.2641495168209076,1.3204981088638306,-2.048896668998152,-9.540897122853991,-0.9714237966023384,50,jumping
1783067251746169600,4.5624876,-13.417251064944267,-26.99362769296169,4.4774651475280525,0.0033502210862934,0.5839871168136597,1.0629398822784424,-2.289909218771756,-9.49131329999566,-0.9174370626099408,50,jumping
1783067251766093800,4.5824118,-13.218840954709052,-19.622339046502116,2.9324270780920982,-0.499859869480133,0.2224325388669967,-0.4567162990570068,-2.347958526027948,-9.468857722559571,-0.9991092375159264,50,jumping
1783067251786016800,4.6023348,-9.194906925910711,-12.417307130169869,-0.9597627310335636,0.3127317130565643,0.0592243000864982,-1.89207923412323,-2.115002587590366,-9.519416527929902,-1.0381985543668268,50,jumping
1783067251805940700,4.6222587,-3.2202333816140887,-6.731140731140971,-2.7614409813553094,1.6311330795288086,0.2913388311862945,-2.1067323684692383,-1.7079316067405044,-9.61901204366982,-0.8532049750655889,50,jumping
1783067251825863700,4.6421817,0.8899247863061726,-1.3934545923054218,-1.5597668520122765,2.0184314250946045,0.3776849210262298,-1.3131271600723269,-1.3687651183374223,-9.697985042619704,-0.4959546945698559,50,jumping
1783067251845787600,4.6621056,1.1235491255246102,3.285392374745012,-0.3417284478455781,1.5236945152282717,-0.1482296139001846,-0.7556745409965515,-1.1757726492367684,-9.73477309679091,-0.1487831332217436,50,jumping
1783067251865710800,4.6820288,-0.3048790919411927,6.958529683101177,0.7003846496164798,0.6260485649108887,-0.5848145484924316,-0.579893946647644,-1.0511368002645671,-9.749869543635844,0.0744386434558778,50,jumping
1783067251885634600,4.7019526,-0.4593343981809913,9.600374563217162,-0.1817722791671752,-0.1506649106740951,-0.256539523601532,-0.4427181780338287,-0.9521970450196414,-9.759588973617554,0.1189246134522371,50,jumping
1783067251905557800,4.7218758,0.6882707257136702,13.00861999517083,-3.162103264206648,0.038580048829317,-0.0680012926459312,-0.5669800043106079,-0.8585584649227559,-9.768516960960628,0.0966280351032968,50,jumping
1783067251925481500,4.7417995,2.202063177536428,14.990976884204148,-3.862755624848604,0.7970127463340759,0.2469034641981125,-0.6346377730369568,-0.7338188633151352,-9.777602769213914,0.1743382201762869,50,jumping
1783067251945404400,4.7617224,3.641487786117196,14.149605554795263,-2.9048808995187283,1.0939141511917114,0.3118963241577148,-0.2583773732185364,-0.6457431780423969,-9.778391289243102,0.3694210126196965,50,jumping
1783067251965328600,4.7816466,3.341732686126232,13.058298510575291,-1.989088243114948,0.5187837481498718,0.0114185055717825,0.0710463225841522,-0.6294016265071928,-9.77195745680332,0.5320671875670552,50,jumping
1783067251985251600,4.8015696,2.477868662141264,10.71091237760782,-1.8811516000092028,-0.1854443103075027,0.0695473104715347,0.476808488368988,-0.6823672007583081,-9.76684932000935,0.5598515588104724,50,jumping
1783067252005175000,4.821493,2.0799090623773635,9.07247180185318,-2.8476678969562053,-0.4314160943031311,0.4647568166255951,0.8237550258636475,-0.8121794294551015,-9.7608047791481,0.4872848467063158,50,jumping
1783067252025098200,4.8414162,1.9230099431820211,7.555497212862968,-3.609076631855965,-0.2633571922779083,0.6846882700920105,0.9930084347724916,-0.9980996220819652,-9.747238610610363,0.4068316191360354,50,jumping
1783067252045022200,4.8613402,1.3749492137998345,6.282858034458756,-2.940894462186098,-0.1459647119045257,0.8627009987831116,0.92923903465271,-1.1958329290341585,-9.727066760197282,0.3529114475738257,50,jumping
1783067252064946200,4.8812642,0.6872521963208913,5.850186163884401,-2.3180267674922943,-0.1660397797822952,0.923650324344635,0.3823807835578918,-1.3350335291273892,-9.710686703282594,0.3010619630721397,50,jumping
1783067252084869000,4.901187,0.911475816117972,5.677149564358592,-1.9495698871970173,-0.126975268125534,1.0223376750946045,-0.20327790081501,-1.3544031232468785,-9.709584294998646,0.2448976475786417,50,jumping
1783067252104793300,4.9211113,1.5054415337152778,5.481794750040769,-1.8601847998261447,0.0305011235177516,1.1798288822174072,-0.5285844206809998,-1.2880180954523384,-9.719531688517332,0.2051931031725369,50,jumping
1783067252124716300,4.9410343,1.5262319544181226,4.687928683650493,-1.2559832271575928,-0.0193149000406265,1.3534663915634155,-0.6468833684921265,-1.171441049773246,-9.734756145656108,0.1806879910618066,50,jumping
1783067252144640300,4.9609583,1.4401877019077538,3.3321412664383647,-0.6985141795694828,-0.4100686609745025,1.3848201036453247,-0.5444421768188477,-1.0608565225072204,-9.748452078053354,0.1125338073034305,50,jumping
1783067252164563200,4.9808812,1.1356219136994332,1.981539727431536,-0.0589162993490695,-0.9766303896903992,1.332421898841858,-0.3883681297302246,-0.967878159884736,-9.758654907637831,-0.0474760643235873,50,jumping
1783067252184487200,5.0008052,0.8347636747721582,0.1874953329890966,0.9315864378631116,-1.6203993558883667,1.4761343002319336,-0.1386443078517913,-0.9178126179240644,-9.758166831859944,-0.3258537831697612,50,jumping
1783067252204410400,5.0207284,0.4450719179421663,0.3860556653499603,1.3141396480500698,-1.932720184326172,1.7324281930923462,-0.7372968792915344,-0.8308375873696059,-9.745438283190133,-0.7116988014437258,50,jumping
1783067252224334300,5.0406523,0.7586946536354721,-2.041760095116496,0.2816384285420179,-1.246125340461731,1.818585991859436,-1.8415368795394895,-0.5456107058815658,-9.73412077036202,-1.0581078813862057,50,jumping
1783067252244257300,5.0605753,1.504121098766476,-9.51479354430437,-0.3292980053395032,-0.1270723640918731,1.817273497581482,-1.9714899063110352,-0.1090497097810264,-9.73234323929548,-1.199998085889593,50,jumping
1783067252264181200,5.0804992,-0.5956681010683998,-15.586348669207096,0.0300029240757226,-0.1257591247558593,1.049159288406372,-1.45075261592865,0.2485089699435979,-9.73023896049261,-1.1962784077793358,50,jumping
1783067252284104200,5.1004222,-5.132697819253802,-15.464295822465418,2.547202602869272,-1.1675496101379397,0.866543173789978,-1.2906594276428225,0.536129980026558,-9.703252169367673,-1.315236503376067,50,jumping
1783067252304028200,5.1203462,-6.918039267280697,-15.904087754178049,1.1157084950268268,-1.1481479406356812,1.331318736076355,-1.223879337310791,0.8054929374285041,-9.649974168166516,-1.5490585571236908,50,jumping
1783067252323951400,5.1402694,-6.934215326055884,-15.967363417780398,-2.681763049006462,0.3899171054363251,1.55001962184906,-1.5680923461914062,1.1149584803771226,-9.60914472965002,-1.609843426823616,50,jumping
1783067252343875000,5.160193,-7.161402617964148,-16.130824964231252,-2.590247379347682,1.8252639770507808,1.4802206754684448,-2.093993186950684,1.51153575893715,-9.59591933737397,-1.3431263808205722,50,jumping
1783067252363798000,5.180116,-6.298126330739259,-14.266930788493156,-0.4071089747726917,1.9507429599761963,1.3116956949234009,-2.24757719039917,1.9700082795917984,-9.563157469978927,-0.9140417210832238,50,jumping
1783067252383722200,5.2000402,-3.567022035458684,-10.90821657242775,0.5859697869399562,1.0781141519546509,1.3541336059570312,-1.357242465019226,2.348822303250432,-9.504597144460677,-0.5621773348769172,50,jumping
1783067252403645200,5.2199632,-2.2203879387781025,-7.327620185124874,0.4212175430914386,0.1200793236494064,1.4523154497146606,0.1965536326169967,2.4687863610193133,-9.482968665498497,-0.3857532848699018,50,jumping
1783067252423569200,5.2398872,-2.800079047307372,-1.720609740397334,-0.4241530485540628,-0.2807154059410095,0.940370500087738,0.9837592840194702,2.350717469347268,-9.514331187489628,-0.3493239079432562,50,jumping
1783067252443493000,5.259811,-3.8238375729113816,2.838214424434304,-0.3447924750586971,-0.3166956901550293,0.3094401657581329,1.152140498161316,2.1507393791429696,-9.560383913612364,-0.3791545441919937,50,jumping
1783067252463416000,5.279734,-4.149721970415115,5.553210465478897,1.112113100883365,-0.3673813343048095,0.5045284628868103,1.5620508193969729,1.89962132267952,-9.611381694921851,-0.4279704514177516,50,jumping
1783067252483340300,5.2996583,-3.5686996132820843,8.674235284844041,1.2123860774934292,-0.6857236623764038,0.7922888994216919,2.015499353408813,1.5548763034917412,-9.669324180802702,-0.5068445931030438,50,jumping
1783067252503263200,5.3195812,-2.4284809463769195,11.361501607441902,0.4063935199797153,-0.5194435715675354,0.9582936763763428,1.9553751945495603,1.1761638405114412,-9.716834704518318,-0.6084041023923084,50,jumping
1783067252523187200,5.3395052,-1.184866933057457,12.204625333476066,0.250793281488493,-0.0121917966753244,1.161887288093567,1.7012345790863037,0.8341162437140941,-9.75011971900463,-0.6401500342104584,50,jumping
1783067252543110100,5.3594281,-0.1256016617970541,11.803451593971252,0.1677338169425725,0.3159032464027405,1.077436923980713,1.3954626321792605,0.5466818422444164,-9.77361691444814,-0.5898618990076705,50,jumping
1783067252563034400,5.3793524,0.3758553199835121,10.985040284389257,0.2876929062753915,0.2086526751518249,0.612022876739502,1.106428146362305,0.3132258818628266,-9.787640179103612,-0.5238212642040103,50,jumping
1783067252582957300,5.3992753,0.2927127071987837,10.282418084979057,0.1700456375489011,-0.2340928316116333,0.4130199253559112,1.0430744886398315,0.1137029698138125,-9.792055072936416,-0.522591503213346,50,jumping
1783067252602881300,5.4191993,1.174130434987694,9.095695441052316,-0.7457669291317462,-0.5799005031585693,0.5344739556312561,1.2695457935333252,-0.1034734348854981,-9.787320445629954,-0.6066580259099602,50,jumping
1783067252622804200,5.4391222,2.258155067114532,8.689412395709752,-2.008286864581704,-0.4034884572029114,0.219109445810318,1.4739313125610352,-0.3704767322177067,-9.773685303509234,-0.7128731789853423,50,jumping
1783067252642728400,5.4590464,2.191216497090459,8.511277596262097,-1.426831961250305,-0.1223581656813621,-0.3908181488513946,1.3145747184753418,-0.6480041087117046,-9.755963184335828,-0.7560819138538092,50,jumping
1783067252662651400,5.4789694,1.9685519433036445,7.620740377146006,-0.1431605897653848,-0.4061891436576843,-0.816551923751831,1.1577826738357544,-0.8929569936089217,-9.733774148881436,-0.7916254478566348,50,jumping
1783067252682575000,5.498893,1.8209461376324292,5.676922769865393,-0.2927998740255833,-0.6535799503326416,-0.9906891584396362,1.1858055591583252,-1.132912362479791,-9.70097721017301,-0.8820045877661555,50,jumping
1783067252702498300,5.5188163,1.8042071842774747,3.835455529990792,-0.5978636018186807,-0.5763891339302063,-1.1483625173568726,1.1026723384857178,-1.379236243469268,-9.660099256339668,-0.974977324365452,50,jumping
1783067252722422000,5.53874,1.4301831713743507,3.222220756039023,0.186422150799632,-0.6767768859863281,-1.23341703414917,0.6895175576210022,-1.5793717161923646,-9.62087433041036,-1.0558167747743428,50,jumping
1783067252742345200,5.5586632,1.3213918111354113,2.69370307764709,0.4332927789516747,-0.7614139318466187,-1.1755870580673218,0.151963010430336,-1.6845622754603624,-9.591247253909708,-1.1578379102259877,50,jumping
1783067252762269200,5.5785872,1.8164537946492432,1.9494933148294689,-0.158738025060296,-0.5649612545967102,-1.0865094661712646,-0.2449342757463455,-1.7003348680011927,-9.576970891276002,-1.2493519724495707,50,jumping
1783067252782192000,5.59851,2.1883651993125675,0.5625011965364217,-0.0377706354677677,-0.350845456123352,-0.8850855827331543,-0.4498426914215088,-1.6570023606225848,-9.57786754785478,-1.299690120806545,50,jumping
1783067252802116000,5.618434,2.368199788415432,-0.448280358594656,0.5097996800489724,-0.6172705292701721,-0.7613883018493652,-0.6443721652030945,-1.5752696877010166,-9.5835736505419,-1.357945910420269,50,jumping
1783067252822039000,5.638357,3.1003339135140178,-1.8298463601857424,0.332287104152888,-0.9241863489151,-0.4779277741909027,-0.5652843713760376,-1.46943352400586,-9.580620645955204,-1.490930631673336,50,jumping
1783067252841963300,5.6582813,4.331538088724017,-5.688280614703893,-0.8909615820080041,-0.92078697681427,-0.1700459718704223,0.0403608419001102,-1.4239295178070663,-9.559940846019982,-1.6584138348557054,50,jumping
1783067252861886200,5.6782042,3.743928169894218,-8.586458801713585,-0.7517308059722184,-1.283464431762695,-0.2145649790763855,0.6377344727516174,-1.4987655630826948,-9.512209373030066,-1.8552553805999457,50,jumping
1783067252881810200,5.6981282,1.7450882019631564,-9.95955975729823,-0.0938221930354833,-1.5007332563400269,0.0405589453876018,1.1543024778366089,-1.6708678043678402,-9.426140862861276,-2.1275477425172924,50,jumping
1783067252901733000,5.718051,0.5420837007991969,-13.883056558835506,-1.651063325962424,-0.7550353407859802,0.4787715673446655,1.743840575218201,-1.930421680743247,-9.32109760310948,-2.358177283833921,50,jumping
1783067252921657300,5.7379753,-2.667588977703452,-19.822072514295577,-0.8485556879550218,-0.0074460571631789,0.9389779567718506,2.5502164363861084,-2.288109037481993,-9.216302765160798,-2.448409343422949,50,jumping
1783067252941581300,5.7578993,-8.440807052719592,-22.824001583158967,1.2303370369866489,-0.1322269886732101,1.2004188299179075,2.80989408493042,-2.7401141156882045,-9.076790249574184,-2.504800215947628,50,jumping
1783067252961504300,5.7778223,-12.338663217043877,-22.272509856414796,2.2113903933301566,-0.5691103935241699,1.2852391004562378,2.1054437160491943,-3.123091104245186,-8.91301247678101,-2.640999369202554,50,jumping
1783067252981428200,5.7977462,-11.689703634238242,-18.710118987888094,-0.3342418914824724,-0.2717409431934356,1.2979803085327148,1.008374571800232,-3.3270281612083314,-8.784892877346277,-2.815480030056834,50,jumping
1783067253001352000,5.81767,-8.046476895499229,-13.878867874974013,-3.0462241376638413,1.1643177270889282,1.6385654211044312,0.1318854391574859,-3.3436388120085,-8.768184319129587,-2.8477023837476967,50,jumping
1783067253021275600,5.8375936,-3.5309006285026667,-6.150041217118502,-3.329383784423768,2.988959550857544,2.0088658332824707,-0.959720015525818,-3.170620040400326,-8.908590568685531,-2.598958509069681,50,jumping
1783067253041198800,5.8575168,-0.2823708344697952,-1.3067752567619084,-2.4402117161810395,4.479945182800293,1.4482369422912598,-1.796742558479309,-2.8308395117521283,-9.167258456006646,-2.029313724388927,50,jumping
1783067253061122600,5.8774406,0.3482980354942381,0.0438549238175153,-0.318912220403552,4.127999782562256,0.0828618556261062,-2.244610071182251,-2.414045301528275,-9.42523485393226,-1.22789198192209,50,jumping
1783067253081045500,5.8973635,-0.8578355574756861,-0.8933025921761989,4.649630809438229,1.5291310548782349,0.7364064455032349,-1.556004762649536,-2.0469293144479392,-9.566515548235175,-0.6798947462301701,50,jumping
1783067253100969700,5.9172877,-0.4603653486639261,5.378809591862559,3.5621003611475226,-1.1364641189575195,1.2301602363586426,-1.5046427249908447,-1.7550196672603486,-9.622083121678232,-0.7112044420555234,50,jumping
1783067253120892700,5.9372107,1.5638680037207902,8.77744606847167,0.3909871304027736,-1.35047709941864,1.0871001482009888,-1.7967939376831057,-1.414081200748682,-9.650433017849922,-1.0197647067274898,50,jumping
1783067253140816600,5.9571346,2.5948884831517933,12.544676788020134,1.08464510211274,-0.4864048063755035,1.1445235013961792,-2.2786529064178467,-1.005438221341744,-9.677921328756211,-1.2236583629403264,50,jumping
1783067253160739600,5.9770576,3.332496655747294,15.40006388105154,1.19643374447152,0.3879967033863067,0.7731186151504517,-2.631165742874145,-0.5003056928535923,-9.713687054142357,-1.25075248689726,50,jumping
1783067253180663800,5.9969818,4.808377602326869,14.931071573817729,0.5316835220117122,1.1200932264328003,0.174291506409645,-2.470548391342163,0.0171358254517428,-9.744930918189883,-1.0983611274499443,50,jumping
1783067253200586800,6.0169048,3.996630719070137,14.13733994746208,1.5684429104208946,1.184753179550171,-0.3226939141750335,-1.8479650020599363,0.4354853570925071,-9.75879402384758,-0.8640985633932053,50,jumping
1783067253220510700,6.0368287,2.212814580914378,13.574807771265506,2.218194520387053,0.685978889465332,-0.6192737817764282,-1.2985841035842896,0.7350460670225322,-9.755158297693727,-0.6833615455579012,50,jumping
1783067253240433700,6.0567517,0.6059027505632489,11.484561000877616,1.934695558670163,-0.004744432400912,-0.7398548722267151,-0.6396064758300781,0.9150140732467174,-9.743678872302176,-0.6276110898286104,50,jumping
1783067253260357600,6.0766756,-1.033865055207163,10.367215844559668,1.2371511009156704,-0.6073474287986755,-0.8080065250396729,-0.16658915579319,0.9777507346015424,-9.732302322763204,-0.7047407259341328,50,jumping
1783067253280280800,6.0965988,-1.584225585964322,9.822158534777165,0.2242594948280602,-0.9829809665679932,-0.6976611614227295,0.0180321000516414,0.9765472040306776,-9.718160400164129,-0.8798221291605383,50,jumping
1783067253300204800,6.1165228,-1.3599264167129992,8.87860576478839,-0.8646183494836092,-0.8279646635055542,-0.3712884485721588,0.075538270175457,0.9569522767227142,-9.700565122240782,-1.0740864448279142,50,jumping
1783067253320127700,6.1364457,-1.1343487519584596,7.260267481341957,-1.5111412066616117,-0.3386942744255066,0.0022742012515664,0.2541745901107788,0.9218633546195923,-9.69023369784057,-1.1916134116429835,50,jumping
1783067253340051700,6.1563697,-1.4677435250923037,6.475546844437718,-1.1115215647310015,0.0337341912090778,0.275690883398056,0.3565219938755035,0.8656015883672982,-9.692755325272678,-1.2130984635464843,50,jumping
1783067253359974700,6.1762927,-1.6159578180506824,5.303026328864694,-0.5770171400796622,0.0045494427904486,0.4648700654506683,0.4785627126693725,0.794447300344333,-9.700725281238554,-1.1979841887839138,50,jumping
1783067253379899000,6.196217,-1.26724374910146,3.624349604311585,0.0456312858402729,-0.3181111216545105,0.8495633006095886,0.795127272605896,0.6902410028733312,-9.70651964673102,-1.2154980720341204,50,jumping
1783067253399821800,6.2161398,-1.1133011416241525,1.8222364697039128,0.2055009452790021,-0.7800089716911316,1.1025440692901611,1.175430417060852,0.5231302497325465,-9.704995798164603,-1.3075816047087312,50,jumping
1783067253419745800,6.2360638,-1.960488463835418,1.5543950958460568,1.1759370460182428,-1.4013906717300415,0.9884971976280212,1.1595468521118164,0.3156719598406926,-9.68510393373668,-1.5064866588540375,50,jumping
1783067253439669500,6.2559875,-2.332401183672994,2.3470365888774394,0.4401720170713961,-1.712659478187561,0.6878764033317566,0.247158482670784,0.1958754041258245,-9.635285133078694,-1.8147426068171857,50,jumping
1783067253459592700,6.2759107,-1.205235182825476,0.6717693805068731,-2.118936273777485,-1.2534810304641724,0.4057603180408478,-0.9534256458282472,0.2887048232642933,-9.57341115296781,-2.106380451326072,50,jumping
1783067253479516700,6.2958347,0.6990125575456768,-3.113252431797981,-4.795990414440632,0.1386238634586334,-0.186735451221466,-1.31077241897583,0.5337019491620362,-9.535314938807486,-2.2278489223085343,50,jumping
1783067253499439600,6.3157576,3.370253847211599,-13.250199385046958,-4.363184103831649,1.8447505235672,-0.4002737700939178,0.4334562122821808,0.6291102423451841,-9.574621697801351,-2.025144475880265,50,jumping
1783067253519363600,6.3356816,1.9911774704791605,-16.20738681038618,-0.8052315100133418,1.5523450374603271,-0.8790073990821838,2.0819313526153564,0.3461619002483785,-9.655976623451709,-1.6771068448878823,50,jumping
1783067253539286500,6.3556045,-1.4337163139365612,-19.504020125591754,3.904599793365597,0.2703446447849273,-0.0263065733015537,2.7401227951049805,-0.1533403124689124,-9.68937795779407,-1.5042631375856697,50,jumping
1783067253559210800,6.3755288,-3.978317356005311,-17.575149327552317,2.828698992592096,-0.3069221079349518,-0.0157999247312545,1.455159068107605,-0.5880233950015157,-9.66921896686256,-1.526702348408848,50,jumping
1783067253579133700,6.3954517,-3.5120363535568115,-13.82698454300165,0.5681190364181995,0.1039045751094818,-0.2185974419116974,-0.5350672602653503,-0.6704840899366885,-9.659534608194232,-1.5537819323837756,50,jumping
1783067253599057700,6.4153757,-0.5979576733103021,-10.285822340464591,-1.675305202293396,0.6267255544662476,-0.2074232101440429,-1.23847496509552,-0.4822761516988277,-9.68301660606861,-1.4754643286027014,50,jumping
1783067253618980600,6.4352986,1.6713662554092703,-5.805055813303589,-1.3710001839131116,0.8112435936927795,0.3063586056232452,-0.4112774431705475,-0.3062222136458382,-9.711016958150267,-1.3314545015968382,50,jumping
1783067253638904800,6.4552228,1.853737231121957,-1.1660311535537242,-0.8606576291590928,0.80377197265625,0.6959183216094971,0.4465150237083435,-0.305137395817507,-9.731327340251209,-1.1741143606357276,50,jumping
1783067253658827800,6.4751458,1.8245074833758173,1.932775988784432,-0.8962855535097419,0.6649001240730286,0.5985742211341858,0.8414292931556702,-0.4207569398423657,-9.742662973257898,-1.036284099047631,50,jumping
1783067253678751700,6.4950697,1.8324682331219315,3.310464272159338,-0.8792739937584847,0.7006916999816895,0.4049781560897827,0.8854708671569824,-0.5832934438701719,-9.746526662948726,-0.9139828305028378,50,jumping
1783067253698674700,6.5149927,0.8457636460836976,3.9360453174650663,-0.9150432993412018,0.9299492239952089,0.2215184718370437,0.7245088219642639,-0.7354805129170418,-9.74946622353196,-0.7598505456723272,50,jumping
1783067253718598700,6.5349167,0.5474943276710807,4.483050254184008,-0.6527729305487125,0.8562877178192139,0.1981921344995498,0.5172683000564575,-0.8527549662757664,-9.752238026332854,-0.5805399439109489,50,jumping
1783067253738521900,6.5548399,1.052722681216523,5.348511484232545,-0.1467219720413908,0.4389510452747345,0.3394272625446319,0.5048718452453613,-0.9446841851714998,-9.75025123642981,-0.4588609354503452,50,jumping
1783067253758445800,6.5747638,1.7836825749039649,5.312364650574327,-0.2845960727712139,0.1378467381000518,0.4802779257297516,0.6061214804649353,-1.0483634630937129,-9.7416371373415,-0.4145103370703756,50,jumping
1783067253778368800,6.5946868,1.3262339904695748,4.92059528375268,-0.7822919484525919,0.0976787656545639,0.3911941945552826,0.6703252196311951,-1.170611028689891,-9.72815163282454,-0.4038854461489245,50,jumping
1783067253798292700,6.6146107,0.7506757439613342,5.112280469647049,-0.5702473171511665,0.288882315158844,0.4712705314159393,0.4912452101707458,-1.2835355432108044,-9.7148350551337,-0.3806999104704707,50,jumping
1783067253818215700,6.6345337,1.6489062940590082,4.605563119652867,-0.5860234898885711,0.4321979880332947,0.4523921608924866,0.431462824344635,-1.3616020948402583,-9.706408587571978,-0.31943346779868,50,jumping
1783067253838139600,6.6544576,2.7296237013339995,2.292671961483359,-0.3043015112489461,0.2773146629333496,0.4438541531562805,0.991381049156189,-1.4883796320162712,-9.689557990536091,-0.2599817829312756,50,jumping
1783067253858062800,6.6743808,2.460864043587446,0.8011772661864757,-0.06861004690025,-0.0421906299889087,0.3386061489582062,1.5790287256240845,-1.7405087652184068,-9.647753569507598,-0.2487714933373034,50,jumping
1783067253877986600,6.6943046,2.465754738238454,0.0568108515024185,1.1793225968033074,-0.5512615442276001,0.4481077492237091,1.748299241065979,-2.058740602142364,-9.582890344452858,-0.316512210057117,50,jumping
1783067253897909800,6.7142278,1.898697193571925,-0.89259181355834,1.4912036033958196,-1.0954461097717283,0.5580635070800781,1.9238651990890503,-2.4058190327137705,-9.493903901010752,-0.4982088667048141,50,jumping
1783067253917833700,6.7341517,0.7078215216189623,-1.0617840126156806,0.2338595362138003,-1.2774471044540403,0.0580817386507988,1.8751800060272217,-2.766236691199243,-9.378731461432576,-0.7468176072284579,50,jumping
1783067253937756700,6.7540747,0.1167825051233172,-1.205590426003933,0.6344751303791999,-1.020560383796692,-0.2224786579608917,1.378202199935913,-3.072275109243393,-9.263804521048067,-0.9557469925861806,50,jumping
1783067253957680600,6.7739986,0.4129062628746032,-1.3451380129039288,1.5425281324416398,-0.8585165739059448,-0.3237525522708893,1.179609775543213,-3.305101576082408,-9.166154878678917,-1.1082798063308,50,jumping
1783067253977603600,6.7939216,0.5391048311188816,-1.3385510357290509,1.249732496199757,-0.9081287384033204,-0.8673019409179688,1.205100655555725,-3.5354476242825386,-9.064254593127965,-1.228933015407622,50,jumping
1783067253997527600,6.8138456,0.1340922441035509,-1.1230091734290122,1.5605666240878402,-1.0424755811691284,-1.2605746984481812,1.0167417526245115,-3.7663954377681015,-8.958075607344508,-1.3181532676056027,50,jumping
1783067254017451500,6.8337695,-0.2395233341291546,-1.1033908652454614,3.0208599793046718,-1.5625648498535156,-0.5071325302124023,0.8847996592521667,-3.959157897505164,-8.850951449665427,-1.4683694019056857,50,jumping
1783067254037374500,6.8536925,0.943340296281874,-0.8565794199347495,2.7866759603768587,-2.304692029953003,0.3528901636600494,0.943506956100464,-4.117154164287448,-8.715139542162419,-1.807148206165433,50,jumping
1783067254057298400,6.8736164,1.254260933409631,-0.4770440962642431,1.4380533202275634,-2.683690309524536,0.3913172781467438,0.8080326914787292,-4.25898372464478,-8.53532833393514,-2.275873971417546,50,jumping
1783067254077221400,6.8935394,0.6951742214918136,0.0093780691981315,2.599625448545813,-2.660884380340576,1.149754762649536,0.2572348415851593,-4.316852853028476,-8.353470130050182,-2.784727164396644,50,jumping
1783067254097145600,6.9134636,0.6212909468963742,-0.0271785143047571,4.115689644692838,-2.5282254219055176,2.9777655601501465,-0.2284841984510421,-4.1919434478119015,-8.194808677357434,-3.382764369216561,50,jumping
1783067254117068500,6.9333865,0.4049202325567603,-0.0471644867569208,4.615930492149293,-2.4180922508239746,5.116469860076904,-0.5750040411949158,-3.8233912904486056,-8.043889801615476,-4.104618800102174,50,jumping
1783067254136992500,6.9533105,1.0386530201360582,-0.3212292651742696,-3.219043587307632,-3.2212393283843994,3.530070781707764,-0.8790279030799866,-3.2630157077640294,-7.85077896683216,-4.887573596377671,50,jumping
1783067254156915500,6.9732335,2.1128286045521496,-1.948250621291995,-2.938253592288494,-2.400407314300537,1.326202630996704,-0.6151381731033325,-2.929550061351061,-7.592792047512531,-5.471528792092204,50,jumping
1783067254176839400,6.9931574,2.402250818838179,-1.8485615820497276,-3.009945786580443,-1.1395491361618042,0.5379639267921448,-0.0267526656389236,-2.7720056299895046,-7.415802910968661,-5.787248938456178,50,jumping
1783067254196762600,7.0130806,-0.1955441994100809,-1.3897171593427655,-2.7280513374507427,-0.1584623306989669,0.2534784078598022,0.5181750655174255,-2.7686268012061714,-7.329216514405608,-5.898107606488466,50,jumping
1783067254216686600,7.0330046,-2.2143971739307045,-0.6364169120967388,-3.1194886958390478,0.4500288367271423,0.1875237673521042,0.4963904321193695,-2.8267440591320394,-7.318318103772401,-5.88405628478229,50,jumping
1783067254236609500,7.0529275,-3.3016213327512145,-1.1795394544243811,-2.8380899212718007,0.6728709936141968,0.3290572464466095,0.2627667486667633,-2.853122947491705,-7.366562786981463,-5.810663716313242,50,jumping
1783067254256533500,7.0728515,-3.8841239915698766,-0.7996195153504609,-1.92045309830606,0.5135002136230469,0.8157719373703003,0.0793833434581756,-2.815900009034574,-7.427904852172732,-5.750419383230805,50,jumping
1783067254276456400,7.0927744,-3.3612077864468097,0.4312053051531314,-1.2738725195914506,0.2868837416172027,1.1507446765899658,-0.1764444410800933,-2.692830094204843,-7.47374948850274,-5.749966963288188,50,jumping
1783067254296380400,7.1126984,-2.294190549352765,1.1390098756372928,-0.5204758262336254,0.3621377944946289,1.183047652244568,-0.4670946300029754,-2.508129360370338,-7.526440629726648,-5.76475244448781,50,jumping
1783067254316303600,7.1326216,-0.9370099242165684,1.927239397445321,-0.0300830035746097,0.5471977591514587,0.9766499400138856,-0.5807464122772217,-2.2983048528037964,-7.60389153367579,-5.750567267268896,50,jumping
1783067254336227300,7.1525453,-0.1732727463692426,1.622372653529048,-0.1865478230059147,0.7517730593681335,0.5548892021179199,-0.5648192763328552,-2.1254602687187494,-7.704093783137202,-5.683286459678411,50,jumping
1783067254356150300,7.1724683,-0.7184294248729943,1.5672300274997948,0.6719307085484266,0.870109498500824,0.5456444025039673,-0.504011869430542,-1.982529322990775,-7.818340924564003,-5.577949185416102,50,jumping
1783067254376074500,7.1923925,-1.0051087701916694,1.5654676940023895,0.5890782378166913,0.8365485668182373,0.5144356489181519,-0.4406984746456146,-1.8481810582995413,-7.931649908357858,-5.462924629876017,50,jumping
1783067254395997400,7.2123154,-1.1215667195357382,1.366894502159953,0.6974409973800182,0.7407220602035522,0.4329049587249756,-0.463800311088562,-1.727383764576912,-8.032201701909303,-5.354461917069554,50,jumping
1783067254415921400,7.2322394,-1.2057219434291124,1.596619203591347,1.0562059202224017,0.6853104829788208,0.2370425015687942,-0.6567092537879944,-1.6020779073886573,-8.125157633504271,-5.2521939672499895,50,jumping
1783067254435844400,7.2521624,-0.8019318839460611,1.4047089767694472,0.6841612445682287,0.3736976385116577,-0.1622825711965561,-0.8339711427688599,-1.4740562153704464,-8.207682771977781,-5.160570161041617,50,jumping
1783067254455768600,7.2720866,-0.5284525042012334,0.7624363243818283,0.4439443752169609,-0.1604482978582382,-0.3793260753154754,-0.8047245740890503,-1.3661091970011592,-8.240126659464835,-5.138524917972088,50,jumping
1783067254475691500,7.2920095,-0.3307300839692354,0.9431430201441048,-0.4211076895087957,-0.1197204440832138,-0.7750754952430725,-0.753047525882721,-1.2982247244291008,-8.240819317904114,-5.15498739247322,50,jumping
1783067254495615500,7.3119335,-0.3294790609948337,1.045125138759613,0.0016834230422973,0.262075662612915,-0.923056185245514,-0.7723613381385803,-1.263263447293639,-8.26753313730657,-5.12078526314199,50,jumping
1783067254515538400,7.3318564,-0.7012846671961247,1.0217851797044275,0.2820060928106307,0.3745148479938507,-0.9283420443534852,-0.9005709290504456,-1.221409049643576,-8.32380096797347,-5.039135153937339,50,jumping
1783067254535462400,7.3517804,-0.7216109775185584,0.9641051441520452,0.3018734073191881,0.1176075041294097,-0.9675777554512024,-1.1028703451156616,-1.1472128366414458,-8.37356014739871,-4.973708449780941,50,jumping
1783067254555385300,7.3717033,-0.2084275733154267,0.9954688351869584,0.3269984962254762,-0.1251964122056961,-0.8484705686569214,-1.0913537740707395,-1.0510719183348118,-8.396095219811796,-4.956935009634495,50,jumping
1783067254575309600,7.3916276,0.329629940707609,0.9945786083489656,-0.0316156199693679,-0.1928341537714004,-0.8109715580940247,-0.9363587498664856,-0.9627467883456498,-8.399395430400967,-4.969273097681999,50,jumping
1783067254595232500,7.4115505,0.373817457480356,1.1671323927938937,-0.2411754852503538,-0.1856762021780014,-0.9564732909202576,-0.9164117574691772,-0.8963518236789851,-8.397471768862008,-4.98491782605946,50,jumping
1783067254615156500,7.4314745,0.3649694035056978,1.2201970435053109,-0.422093777936697,-0.2238862961530685,-1.0436574220657349,-1.0138397216796875,-0.8354300297264009,-8.393524492540955,-5.002119720751047,50,jumping
1783067254635079400,7.4513974,0.5841350823260844,0.917952464786172,-0.7565536960840225,-0.0687591582536697,-1.0385597944259644,-0.9265947937965392,-0.7735762886859476,-8.392500410190225,-5.013770995578169,50,jumping
1783067254655003600,7.4713216,0.8316858016967773,0.7536679115146399,-1.0306535458147523,0.2660901844501495,-1.1770063638687134,-0.829399585723877,-0.7384615014892071,-8.416011634159087,-4.979540809196234,50,jumping
1783067254674926600,7.4912446,0.6354804349642247,0.4422697200030088,-0.5188403339862823,0.2813155055046081,-1.0968683958053589,-0.6451802253723145,-0.7263104604464024,-8.456859777376055,-4.9116585285812615,50,jumping
1783067254694850600,7.5111686,0.0449117393940687,0.5072440042167902,-0.7384948923021555,0.1960062533617019,-1.0652707815170288,-0.644912838935852,-0.7253140698201954,-8.48756705032885,-4.8585497464671725,50,jumping
1783067254714773500,7.5310915,-0.2157772784911096,0.490405097618699,-0.7722977931827306,0.3249275088310241,-1.0132451057434082,-0.8148677349090576,-0.702548695782572,-8.522354286071657,-4.80065606816411,50,jumping
1783067254734697500,7.5510155,0.1332157535299658,0.3632446986049413,-0.8560784846752881,0.492081344127655,-1.0992701053619385,-0.9174295663833618,-0.6509618625387549,-8.573409935048222,-4.716275657212734,50,jumping
1783067254754621400,7.5709394,0.3365890025978907,-0.0526724365234375,-0.8767173680782318,0.5236130356788635,-1.2194483280181885,-0.9470700025558472,-0.6011483956430107,-8.633491771045327,-4.612139575433731,50,jumping
1783067254774544400,7.5908624,0.0581578821972012,-0.2797241193532943,-0.1139385138690471,0.4278930127620697,-0.9202908277511596,-0.8775266408920288,-0.5419362186199054,-8.6879078363657,-4.51629785926938,50,jumping
1783067254794468400,7.6107864,0.5086595335705205,-0.2833306194126606,-0.273012639015913,0.3025955259799957,-0.8641238212585449,-0.8284032940864563,-0.4700529587352648,-8.729042979830503,-4.444462749375402,50,jumping
1783067254814391300,7.6307093,0.5235226465836167,-0.4823801965951919,-1.0093161587536337,0.2023743689060211,-1.2463624477386477,-0.8723771572113037,-0.4148857462540268,-8.757741835570334,-4.393199595127999,50,jumping
1783067254834315500,7.6506335,0.5241644516184926,-0.3825871124565601,-0.6598933570131659,0.2869364619255066,-1.3039482831954956,-0.7743847966194153,-0.3814101410990581,-8.784660822156072,-4.342192169207334,50,jumping
1783067254854238500,7.6705565,0.5755110828982666,-0.8459124799698591,-0.6998103568598628,0.3633076548576355,-1.33599054813385,-0.5412383675575256,-0.3775403869936242,-8.818281936728955,-4.273844024646282,50,jumping
1783067254874162400,7.6904804,-0.2047784396907314,-0.8444108432352543,-0.1645592785596847,0.2566591203212738,-1.3182326555252075,-0.4464444816112518,-0.4078379831669851,-8.85060950435996,-4.203661942656338,50,jumping
1783067254894085400,7.7104034,-0.9928921896319836,-0.4867950904279947,0.3786556182265281,-0.1231570318341255,-1.2686052322387695,-0.5161771774291992,-0.4294132341045886,-8.860766741237043,-4.180049596400559,50,jumping
1783067254914009600,7.7303276,-1.1306096384953708,-0.2694365340948104,0.1767600039631128,-0.4274304509162903,-1.3725613355636597,-0.6750674843788147,-0.4362458200709894,-8.841847521233559,-4.219219869533181,50,jumping
1783067254933932500,7.7502505,-0.8552779819473624,0.4308049076586961,0.4003998325228691,-0.5485624074935913,-1.3583987951278689,-0.7658416032791138,-0.4226270810957998,-8.805722314885259,-4.295466366128624,50,jumping
1783067254953856500,7.7701745,-0.4602636418551206,0.6751689598172903,0.4531003260970115,-0.4968078732490539,-1.346238374710083,-0.6786526441574097,-0.4112258720396086,-8.765625282296538,-4.3777953975081445,50,jumping
1783067254973779500,7.7900975,-0.4070675833163782,0.7283966921359301,0.5610507054671645,-0.3736276924610138,-1.350170016288757,-0.5741121172904968,-0.4216252836421131,-8.732361895120142,-4.4427994923383,50,jumping
1783067254993703400,7.8100214,-0.6578310176558793,0.8427268356710672,0.7475678410738706,-0.2404951602220535,-1.2841869592666626,-0.5347615480422974,-0.4439506953598931,-8.709774215736985,-4.4847669949740165,50,jumping
1783067255013626400,7.8299444,-0.8882179823882878,0.5507534755975008,0.8067892608493566,-0.1607150137424469,-1.204500675201416,-0.5429092049598694,-0.4621118270050734,-8.697174261882902,-4.50732720182836,50,jumping
1783067255033550300,7.8498683,-1.5043345953866838,0.4026970035493373,0.7818278380721807,-0.1840789169073104,-1.1964949369430542,-0.6225579380989075,-0.4692358701987191,-8.68768221091628,-4.524862566258013,50,jumping
1783067255053473300,7.8697913,-1.8021870766267176,0.4075438590586185,0.7698644285559654,-0.2321327626705169,-1.318561553955078,-0.7240760922431946,-0.4643735979245975,-8.67472219157815,-4.550159504599869,50,jumping
1783067255073397200,7.8897152,-1.6579320426881312,0.1380862821757793,0.6402186424672603,-0.2763412296772003,-1.4541140794754028,-0.7214531302452087,-0.4658745405394583,-8.658750715464354,-4.5803266793265935,50,jumping
1783067255093320400,7.9096384,-1.763911706507206,-0.1539911227941513,0.8512351362973452,-0.3562727570533752,-1.386663794517517,-0.5951721668243408,-0.482597529140301,-8.635123171639442,-4.623000284405053,50,jumping
1783067255113244400,7.9295624,-2.0186375782042743,-0.2557020232528448,0.6483952269211412,-0.3337699770927429,-1.4667677879333496,-0.5853320360183716,-0.5142780310394242,-8.607931213331222,-4.670055173307657,50,jumping
1783067255133167400,7.9494854,-2.2942004862248897,-0.2330266655862331,0.5290718051433563,-0.140053242444992,-1.705031394958496,-0.6895740032196045,-0.5535528605250641,-8.591102828127145,-4.696478777591884,50,jumping
