time,seconds_elapsed,acc_x,acc_y,acc_z,gyr_x,gyr_y,gyr_z,grav_x,grav_y,grav_z,fs_hz,activity
1783066174859320000,0.0,-0.194505211751163,-0.0216530288815498,-0.0411666345816105,0.0162147134542465,-0.0284725744277238,-0.0339597053825855,-1.103002669645473,-9.70209715411365,-0.9072364249825478,50,standing
1783066174879247000,0.019927,-0.1087967670664191,-0.0061216977506875,-0.0560796146184206,0.0297188870608806,-0.0062768962234258,-0.0150284171104431,-1.098180364055559,-9.703114222201703,-0.9021993075981736,50,standing
1783066174899174100,0.0398541,0.0725396779667586,0.1043453406155109,-0.1634230410713702,0.0416538119316101,-0.0220836196094751,0.0130651844665408,-1.0987547298774123,-9.703747843930124,-0.8946648204401135,50,standing
1783066174919100200,0.0597802,0.0783134390626102,0.2376496492117643,-0.008672624342516,0.0317287407815456,-0.0207970459014177,0.0466665551066398,-1.1049771115235985,-9.703725632098315,-0.8872079285629093,50,standing
1783066174939027000,0.079707,0.0480122626926749,0.1499099909603595,-0.0463963519286364,-0.0150864962488412,0.0027361181564629,0.0522819235920906,-1.1156764193881303,-9.702624392858148,-0.8858454080380499,50,standing
1783066174958954000,0.099634,-0.1399305948682129,0.1261883391112089,-0.0337561391294002,-0.0356766730546951,0.0238989070057868,0.0344461165368557,-1.1218135339036583,-9.701348966094852,-0.8920515692017972,50,standing
1783066174978880300,0.1195603,-0.1015736108798533,-0.1509720672339201,-0.0333668475508689,-0.0274917352944612,0.0131296990439295,0.021088670939207,-1.1285971296291797,-9.6998216103971,-0.9000729630939662,50,standing
1783066174998807300,0.1394873,-0.1515842808481305,0.0677355656206607,-0.164077632522583,0.0383314304053783,-8.03543953225e-05,-0.0055271470919251,-1.1299121577505022,-9.699757897511123,-0.8990976152557879,50,standing
1783066175018734300,0.1594143,-0.0991514982994645,0.0243541045337915,-0.1667968283534049,0.0585429519414901,-0.001108749420382,-0.0081223826855421,-1.1292235178992152,-9.700819389262795,-0.8884477725561708,50,standing
1783066175038660400,0.1793404,-0.1736109653476625,0.0089449384778738,0.0607983867686241,0.0055066449567675,0.0298452638089656,-0.0183787010610103,-1.1262907523829488,-9.70172189106047,-0.882308685279265,50,standing
1783066175058587100,0.1992671,-0.1127467468012124,0.0293412452965974,0.0852536866545677,-0.0070092780515551,-0.0202790834009647,-0.0190552826970815,-1.1222125431586056,-9.702065589931609,-0.8837200864471495,50,standing
1783066175078514200,0.2191942,-0.003879544847086,0.0557522823601961,0.0221090290207415,-0.0138518866151571,-0.0150573216378688,-0.0038189811166375,-1.1204974098037928,-9.702139824211596,-0.885068797642365,50,standing
1783066175098440200,0.2391202,-0.1201138415031135,0.0661450815588235,0.0812859520673751,-0.0226703248918056,-0.0047428575344383,-0.014981085434556,-1.1194839949775486,-9.70190893806517,-0.8888803187545389,50,standing
1783066175118367200,0.2590472,-0.1654619264878332,0.0873766701579093,0.0194874483454972,-0.010374448262155,-0.0227036252617836,-0.0219125878065824,-1.1161839305188506,-9.70204104001224,-0.8915755491878837,50,standing
1783066175138294300,0.2789743,-0.0854713479932397,0.1103898814767599,-0.0472445662558078,0.0119794216006994,-0.0469139665365219,-0.0269963052123785,-1.1126767261154948,-9.702609195289016,-0.889785962357372,50,standing
1783066175158219800,0.2988998,-0.2218226961351931,0.0706312870621681,-0.0094382749527692,-0.0106508862227201,-0.0004754265537485,-0.0423139929771423,-1.105912054286152,-9.70355202909708,-0.8879381425336003,50,standing
1783066175178146800,0.3188268,-0.0519308243758976,0.0468137736231088,0.0298608852565288,-0.0386449880897998,0.0077746864408254,0.0084098586812615,-1.1020742296889423,-9.703526894655823,-0.892970949069038,50,standing
1783066175198073900,0.3387539,0.076845631532371,0.0852028332501649,-0.1048988097798079,-0.0423704385757446,-0.0115820793434977,0.0173451639711856,-1.1062025616653264,-9.702261404764652,-0.9015632747169584,50,standing
1783066175217999600,0.3586796,-0.2059665169641375,0.1083066454619169,-0.0610911591701209,0.0083387736231088,-0.0230179708451032,-0.036601036787033,-1.1051580941136925,-9.7020205817461,-0.9054178312532604,50,standing
1783066175237926700,0.3786067,-0.1795871171478182,0.1117336973011493,-0.1186333936870098,0.046019610017538,-0.0087165180593729,-0.0350919440388679,-1.0969715727876872,-9.703653735905885,-0.8978547025226056,50,standing
1783066175257853700,0.3985337,0.0261122733127325,0.0293809927850961,-0.0110859690945595,0.0161305405199527,-0.0123447058722376,0.0016653591301292,-1.094524471896514,-9.704498954558373,-0.8916776213228702,50,standing
1783066175277779700,0.4184597,-0.0245453893221914,0.1064548801153898,-0.0719447077482938,-0.0007447546813637,-0.0431351922452449,-0.0149085605517029,-1.0948936705350876,-9.704659698078036,-0.8894770425386727,50,standing
1783066175297706800,0.4383868,-0.198804443315044,0.0654109220653772,0.0245090028345584,-0.0178566165268421,-0.0028936706949025,-0.0148182325065135,-1.092418585658446,-9.704766081061958,-0.8913597875453532,50,standing
1783066175317632800,0.4583128,-0.1250640112563967,0.0741869337171316,-0.0047947599958628,-0.0197573434561491,-0.0033137123100459,-0.0071034091524779,-1.090891156895459,-9.704563251966237,-0.8954249180924146,50,standing
1783066175337559800,0.4782398,-0.1135373857222497,0.1315472357958555,-0.0334182854771614,0.0200545899569988,-0.0179451704025268,-0.0046986192464828,-1.0899979343827813,-9.704613520848753,-0.895980944539979,50,standing
1783066175357486800,0.4981668,-0.0979257558967918,0.1716682337820529,-0.1292548140097409,0.0449630096554756,-0.0296636614948511,0.0087858811020851,-1.0901972563471645,-9.70523077596426,-0.8890295179668813,50,standing
1783066175377412900,0.5180929,-0.1021056719299405,0.1118301434129476,-0.0402694665461778,0.0116666983813047,-0.0151951909065246,0.0174620766192674,-1.0940971863951534,-9.70539619565904,-0.8823959251713007,50,standing
1783066175397340000,0.53802,-0.2027774385992437,0.025356559574604,0.0471691629320383,-0.0400648154318332,0.03818279504776,0.0094239395111799,-1.0966752932548522,-9.704814596378805,-0.8855885837327688,50,standing
1783066175417267000,0.557947,-0.1194225713033229,0.0061672904580831,0.0191845929414033,-0.04492699354887,0.0203072354197502,0.0085223242640495,-1.0978794814128428,-9.703731477317213,-0.895911605630815,50,standing
1783066175437192700,0.5778727,-0.0206514506235718,0.0191541978031396,-0.0975783306986093,-0.0099379429593682,-0.0114648658782243,-0.0009859517449513,-1.0995355780567972,-9.702951725116373,-0.9022999184284358,50,standing
1783066175457119700,0.5977997,-0.1188676408343017,0.0398825130552053,-0.1340395640682429,0.0178105812519788,-0.0001638367539271,-0.0205181501805782,-1.097386729459837,-9.70332874173522,-0.9008538843385876,50,standing
1783066175477046800,0.6177268,-0.0438637647110968,0.0654231970250606,0.0171977299731224,0.0094102174043655,-0.0085760746151208,0.0124524487182497,-1.096075427665561,-9.703732061839103,-0.8981148147635162,50,standing
1783066175496972800,0.6376528,0.1600900241911411,0.0967991630196571,-0.0504318910550326,-0.0035482202656567,-0.007853215560317,0.0526125580072402,-1.1037048996306955,-9.70293418945968,-0.8973729103550314,50,standing
1783066175516899800,0.6575798,-0.0840269944038242,0.1443541103988885,-0.0062133946221321,-0.0018567726947367,-0.005620205309242,0.0155599555000662,-1.1106792686879634,-9.70200713774264,-0.8987947598516941,50,standing
1783066175536827000,0.677507,-0.1566749550506472,0.0594523059219121,-0.0684060122281313,0.0096846614032983,-0.0150886224582791,-0.0207815468311309,-1.1098578693024814,-9.702249129804969,-0.8972054448336362,50,standing
1783066175556752600,0.6974326,-0.115946492690593,-0.0727162766426801,-0.0038275223989039,-0.0180337652564048,0.0176762212067842,-0.0087613360956311,-1.1068923705603926,-9.702511580133438,-0.898038169330731,50,standing
1783066175576679700,0.7173597,-0.0201378750782459,-0.0136713824778795,-0.0394843805830925,-0.0181318819522857,-0.0067144981585443,0.0137215759605169,-1.1069325564403083,-9.702148007518051,-0.9018857846695928,50,standing
1783066175596606700,0.7372867,-0.0149379683475941,0.0794534759432077,-0.0485913777548819,-0.0118735721334815,-0.0170236974954605,0.0037426217459142,-1.1103367388606071,-9.701452426469324,-0.905198635544628,50,standing
1783066175616532700,0.7572127,-0.2747363210033625,0.1261497606664895,-0.0738507605653256,0.0233000535517931,-0.0127428816631436,-0.0487168133258819,-1.1059694104965776,-9.702057406625151,-0.9040308338742704,50,standing
1783066175636459800,0.7771398,-0.1816410540029406,0.0715635994762182,-0.0552647911041975,0.0351031199097633,0.0082594845443964,-0.0145683391019701,-1.0989572667121887,-9.703436878284812,-0.8977769611112772,50,standing
1783066175656385500,0.7970655,0.0252872937306761,0.0404214422374963,-0.1079231991022825,0.0310386065393686,-0.019098637625575,0.0116510149091482,-1.0995354319263249,-9.70401789304316,-0.8907581683903932,50,standing
1783066175676312600,0.8169926,-0.1301825233139097,0.1082657289296388,-0.0463994206685572,0.0233802590519189,-0.0098513327538967,-0.0060160867869853,-1.1005867676101624,-9.704376789483428,-0.885543210221082,50,standing
1783066175696239600,0.8369196,-0.2387939969412982,0.0850268921613693,-0.0367383698105812,0.0288604442030191,0.0219467394053936,-0.0174223706126213,-1.097918717444688,-9.705078800272942,-0.8811390569780021,50,standing
1783066175716166000,0.856846,-0.1076988888271152,0.0235223298847675,-0.009906403921172,0.0220642853528261,0.0440353266894817,0.0155711872503161,-1.0971833158422262,-9.705524205952882,-0.8771448727753013,50,standing
1783066175736093000,0.876773,0.0058212534993886,0.1415238554090261,-0.1242477264374494,0.0285094175487756,-0.0027374124620109,0.0133664011955261,-1.100121195925027,-9.705611299714446,-0.8724882791411132,50,standing
1783066175756019700,0.8966997,-0.1483020443070679,0.1379728849291801,0.0477425058405846,0.0206636264920234,0.0049084196798503,-0.0144820967689156,-1.100274413725361,-9.705952075976132,-0.868504397136718,50,standing
1783066175775945700,0.9166257,-0.0798654908102005,0.0820861625343561,-0.0289192204922437,0.0285529047250747,-0.0174004286527633,-0.0038904007524251,-1.0982313635904342,-9.70662719875872,-0.863519302200526,50,standing
1783066175795872800,0.9365528,0.024931319899857,0.0221714997977018,-0.0161128573458641,0.0104052331298589,-0.0079234801232814,0.0086605511605739,-1.0993290956992656,-9.706866268211602,-0.859416616122052,50,standing
1783066175815799800,0.9564798,-0.0709551121890544,0.0709551121890544,0.024888357540965,-0.0259379483759403,0.0317392013967037,0.006499127484858,-1.100557468450442,-9.70656933109164,-0.8612132172152399,50,standing
1783066175835725800,0.9764058,-0.1382909379024058,0.0494213257730007,-0.0005639905583113,-0.0354293808341026,0.012265583500266,0.0031938338652253,-1.101157407104969,-9.705834002554417,-0.8686806304864585,50,standing
1783066175855652900,0.9963329,-0.1194282703917473,0.0842056389063596,-0.1283949092447757,-0.0078300507739186,0.0150936460122466,-0.0030355216003954,-1.1014649386841804,-9.70545464784801,-0.8725309492390603,50,standing
1783066175875580000,1.01626,-0.1240072687450796,0.1022018988460302,-0.0303179083090275,0.0107779316604137,0.0098568173125386,0.0056720366701483,-1.101673832194507,-9.705343588688969,-0.8734929992042482,50,standing
1783066175895505700,1.0361857,-0.0282688668247312,0.1149585045665502,-0.1077722463242709,0.0280046910047531,0.0161930173635482,0.0149646513164043,-1.1032907658718525,-9.70553005117178,-0.8693615254227072,50,standing
1783066175915432700,1.0561127,-0.0594093435630202,0.0692325261801481,-0.0390535879503935,0.0223259441554546,0.0144181149080395,0.0050497013144195,-1.1049207782264798,-9.705743401661517,-0.8649072494275868,50,standing
1783066175935358700,1.0760387,-0.0208436852600425,0.0459954429775476,-0.0316874430965632,-0.0074861757457256,-0.0055225598625838,0.0098801851272583,-1.106675220678374,-9.70570014704168,-0.8631452081911265,50,standing
1783066175955285800,1.0959658,-0.0766383454572409,0.0041156186252832,0.0638484950542449,-0.0354567468166351,0.0013645815197378,0.0100660296157002,-1.1093893750078976,-9.704971832767129,-0.8678514861859381,50,standing
1783066175975212800,1.1158928,-0.153288527482748,0.05246259316504,0.0304015680044889,-0.0222034715116024,0.0139173790812492,0.003813108196482,-1.1107001653455195,-9.70423767327368,-0.8743575801443308,50,standing
1783066175995138600,1.1358186,-0.0573362636160105,0.1322229431003332,-0.1009632969617843,0.0276189018040895,-0.021488968282938,0.0106754079461097,-1.1120819020275026,-9.70409154280126,-0.8742249667406081,50,standing
1783066176015065600,1.1557456,-0.0489350766260176,0.0934299788475036,-0.1231149230152368,0.0065259113907814,0.0158943720161914,0.0028663547709584,-1.1138988883215932,-9.704353993129727,-0.8689822437815368,50,standing
1783066176034992600,1.1756726,-0.1944199446205049,0.0220306300222873,0.0381664298523217,-0.0449015945196151,0.0210262835025787,0.0031917931046336,-1.1141609002586454,-9.703882868486644,-0.8738919353939593,50,standing
1783066176054918700,1.1955987,-0.0780725429788231,0.0061702130675315,-0.1089373445808887,-0.0427165776491165,-0.0062859025783836,-0.0035979794338345,-1.1151374902058393,-9.702986211907865,-0.8825614909965545,50,standing
1783066176074845700,1.2155257,-0.1553293125953525,0.0901630860060453,-0.0300210442543029,8.59471037983e-05,0.0175221525132656,-0.028504092246294,-1.1119516997765748,-9.702882751533387,-0.8877060873433947,50,standing
1783066176094772700,1.2354527,-0.1248710459675639,0.0939858591645955,-0.0928372736513614,0.0561124309897422,0.0133919194340705,-0.0263334289193153,-1.105150276133418,-9.704161685428025,-0.8822012063167989,50,standing
1783066176114698800,1.2553788,0.0854169143922626,0.1125865147382021,-0.0488386305142194,0.021180871874094,0.0361902974545955,0.0229099281132221,-1.1045986336000264,-9.704956050676106,-0.8741264017369598,50,standing
1783066176134625800,1.2753058,0.0562251605689525,0.1756143410593271,0.0391612861085683,-0.0460161678493022,0.0140250828117132,0.0297891795635223,-1.110421932926029,-9.703937813544274,-0.8780294735901057,50,standing
1783066176154552600,1.2952326,-0.1731570841003209,0.140220371595025,0.051729602715373,-0.0623557604849338,-0.0012853607768192,-0.0068956846371293,-1.111930949249491,-9.702661802259088,-0.8901493157770484,50,standing
1783066176174478300,1.3151583,-0.1602132121793925,-0.0164408471912145,-0.0406376422714442,-0.0357614159584045,0.0200013909488916,-0.0063406424596905,-1.110209897610545,-9.701922382068634,-0.9002836832351983,50,standing
1783066176194405400,1.3350854,-0.0523009728625416,-0.0241588742226362,-0.0767225166093558,0.0062467074021697,0.0343616604804992,0.0195888318121433,-1.1106823374278842,-9.70153601309955,-0.9038527738936244,50,standing
1783066176214331400,1.3550114,0.0222938840683549,0.0770522600203752,-0.1808346329908818,0.0326419323682785,0.027769811451435,0.0426614359021186,-1.1167433910325169,-9.701143798911572,-0.9005964755114167,50,standing
1783066176234258400,1.3749384,-0.1369691147141158,0.1903250034570693,-0.1542056423276663,0.0393511615693569,0.0084486287087202,0.0193889178335666,-1.1225305961318313,-9.701141460824012,-0.8934072215944528,50,standing
1783066176254185500,1.3948655,-0.2250108977172523,0.1628998209148645,0.0002337356906384,0.0347427390515804,-0.0059873429127037,-0.0058029913343489,-1.1245705775268375,-9.701550041624904,-0.8863876982212067,50,standing
1783066176274111200,1.4147912,-0.2621408241286874,0.0413537546515464,0.0325176103103905,0.029712663963437,0.029539892449975,-0.0239838119596242,-1.1209593282271175,-9.702555419275164,-0.8799150681409984,50,standing
1783066176294038300,1.4347183,-0.1198724339626729,-0.0541331567257642,0.0962391910493373,0.0123062571510672,0.0192460715770721,-0.0121715832501649,-1.1168825072422623,-9.703286071637272,-0.8770480613373219,50,standing
1783066176313965300,1.4546453,-0.005676145940274,-0.0082183777689933,0.0620282208245247,0.0005877863150089,0.0166588891297578,0.0032240618020296,-1.1158581326305863,-9.703412912887334,-0.8769543917044996,50,standing
1783066176333891300,1.4745713,0.0126399205382913,0.1497153451710939,0.0221411046594381,-0.0040110331028699,-0.0404854416847229,0.0110937468707561,-1.117713770434633,-9.70317851960957,-0.8771705186732113,50,standing
1783066176353818400,1.4944984,-0.1279581252627074,0.1093400801628828,-0.0251536574136465,-0.0068328455090522,-0.0254350341856479,-0.0130779463797807,-1.1186727516599,-9.703054600968956,-0.8773102924700826,50,standing
1783066176373745400,1.5144254,-0.2542018478229642,0.0645674569785594,2.39653974771e-05,-0.0046660797670483,-0.0123749244958162,-0.023583011701703,-1.1151317911174148,-9.703324065560102,-0.8788455392133444,50,standing
1783066176393671200,1.5343512,-0.0975086995285004,-0.0121533791303634,-0.1259001698195934,0.0058476915583014,0.0124521497637033,0.015535544604063,-1.114106758918613,-9.70351637326181,-0.8780180754132568,50,standing
1783066176413598200,1.5542782,-0.0252181009519845,0.0924380452007055,-0.1341787533432245,0.0037058740854263,0.0147808101028203,0.0344830937683582,-1.1195097870059312,-9.702913146671651,-0.8778205800797789,50,standing
1783066176433524500,1.5742045,-0.1361678813338279,0.2280950544029474,-0.0967996744763106,0.0326749868690967,-0.0094727100804448,0.0196275822818279,-1.1251272615615278,-9.702548989534378,-0.8746472838059067,50,standing
1783066176453451500,1.5941315,-0.2030127086598426,0.1817564970761537,-0.0497678741883486,0.0470386445522308,-0.0162046551704406,-0.0096579147502779,-1.1268163106270137,-9.703047002184393,-0.8669120864439755,50,standing
1783066176473378300,1.6140583,-0.1950620419163256,0.0627975246965885,0.0271462925355881,0.0599088668823242,-0.011202098801732,-0.0174474827945232,-1.1239938005521892,-9.704398416793346,-0.8553899909544735,50,standing
1783066176493304600,1.6339846,-0.0635351182561367,-0.0493079285264015,0.1181494095623493,-0.0009622331708669,0.0340244434773922,0.0148373991250991,-1.123240936358273,-9.70496891015768,-0.8498776572737843,50,standing
1783066176513231400,1.6539114,0.0522838755972683,0.0609679711818695,0.0690652798544615,-0.0293752774596214,-0.0267517119646072,0.0296191405504941,-1.12832832262516,-9.704064654794337,-0.8534658910240978,50,standing
1783066176533158400,1.6738384,-0.0833796364109963,0.1017103159368038,0.022303601744771,-0.0356216914951801,-0.0191211625933647,0.0186853557825088,-1.133772851766646,-9.702907885974644,-0.8593762110464275,50,standing
1783066176553084400,1.6937644,-0.1172071602761745,0.1147919158279895,0.041788565872237,-0.0164953991770744,-0.0302989836782217,0.0083733284845948,-1.1363074117455632,-9.702223995363711,-0.8637481425203383,50,standing
1783066176573011500,1.7136915,-0.114944914432615,-0.0139794255137443,-0.0194452897042036,-0.0098209679126739,-0.0273237358778715,-0.0073603210039436,-1.13707298929058,-9.701989602085948,-0.8653619343925267,50,standing
1783066176592938500,1.7336185,-0.1682304413530975,-0.0237520469874143,-0.0543405889313668,0.0032445115502923,-0.0227639116346836,-0.0127246771007776,-1.1348138852521776,-9.70224270006418,-0.8654819075103849,50,standing
1783066176612864500,1.7535445,-0.0212073309406638,0.0634171178996562,-0.1791121200472116,0.0231309123337268,-0.0414667353034019,0.0036818590015172,-1.1347432311687615,-9.702622639292478,-0.8613180658292025,50,standing
1783066176632791300,1.7734713,-0.1720732343863695,0.1183329494357109,-0.1406938343256711,0.0033418361563235,0.0065333619713783,-0.0196892879903316,-1.1336644960213451,-9.70307038305998,-0.8576877465028315,50,standing
1783066176652717300,1.7933973,-0.1595093016937375,0.1355529643058776,0.0063823945134878,-0.0031701263505965,-0.0071884389035403,-0.0018567615188658,-1.1306659717924892,-9.703380764183402,-0.8581191967226565,50,standing
1783066176672644400,1.8133244,0.0769932963747531,0.0548339984714984,-0.0906171864490956,0.0021327161230146,0.0061494447290897,0.0299899857491254,-1.1335841242615132,-9.703017191568016,-0.8583842043343931,50,standing
1783066176692571400,1.8332514,0.0185099085502326,0.0967009633421897,-0.05703874197416,0.0238079614937305,-0.0172300245612859,0.0180884506553411,-1.1389962124381214,-9.702536714574697,-0.8566481743220239,50,standing
1783066176712497400,1.8531774,-0.1261288640089333,0.1419552325636148,-0.0399783015798777,0.0582519732415676,-0.0443680696189403,-0.005285539664328,-1.1404040334094314,-9.70319897787571,-0.8472229780465363,50,standing
1783066176732424400,1.8731044,-0.1362011260163038,-0.0013023147702217,-0.0247047446023672,0.0203740987926721,-0.0132879167795181,-0.0126108303666114,-1.1394591537747532,-9.704192080566289,-0.8370585807763039,50,standing
1783066176752351200,1.8930312,-0.1797212649215012,-0.0429015686154365,0.170808402082324,-0.0530282743275165,-0.0054526161402463,-0.0029615731909871,-1.137688125514239,-9.704043612006306,-0.8411853783827274,50,standing
1783066176772277200,1.9129572,-0.0802403885371983,-0.0215291102409362,-0.0385264222711324,-0.0505813024938106,-0.0119857639074325,0.0020735771395266,-1.1376599953982978,-9.703119482898712,-0.8518177584908903,50,standing
1783066176792204300,1.9328843,-0.0466474040802568,0.1225964520990848,-0.1299217534858733,0.0120364790782332,-0.0298953764140605,0.0105720786377787,-1.1398293753266333,-9.702546651446818,-0.8554420134026557,50,standing
1783066176812130600,1.9528106,-0.068331777948141,0.2159703168451786,-0.2029985340040177,0.0523798465728759,-0.0014381506480276,0.0043970961123704,-1.1420869449950757,-9.70299381069243,-0.8473079529162496,50,standing
1783066176832057600,1.9727376,-0.1904139238495379,0.1847936728149652,-0.0573649782538413,0.0282677486538887,0.0143562499433755,-0.0106894895434379,-1.141061255209148,-9.703840198388695,-0.8389639029409736,50,standing
1783066176851984400,1.9926644,-0.1687058037798851,0.0535375289201736,-0.0394441216379404,-0.0077984435483813,0.021203689277172,-0.0080332141369581,-1.1386779402691871,-9.704265145802497,-0.8372826718557626,50,standing
1783066176871910400,2.0125904,-0.0186117614895105,0.029123803153634,-0.0442629200965166,-0.0178739130496978,0.0123338447883725,0.0151940388604998,-1.139134451865032,-9.70394307424128,-0.8403942280050367,50,standing
1783066176891837400,2.0325174,-0.0240837631598114,0.0267997441202402,-0.0488139344643801,-0.0222886353731155,0.0380240269005298,0.0322441309690475,-1.1438375880546867,-9.702964584597945,-0.8452707480002194,50,standing
1783066176911764500,2.0524445,-0.0934065249066799,0.1154348899066448,-0.0690693715076893,0.0014790910063311,0.0062310276553034,0.0200872831046581,-1.1487352969683706,-9.7021170278579,-0.8483588502086699,50,standing
1783066176931690500,2.0723705,-0.1486400440897792,0.1097083289533853,-0.103060634567216,0.027164801955223,0.0116456178948283,-0.0030066701583564,-1.1509625445637852,-9.70207844941318,-0.8457919223301112,50,standing
1783066176951617500,2.0922975,-0.198673802672699,0.0588455722004175,-0.0198234753668308,0.0421876832842826,0.0232290755957365,-0.00908724963665,-1.1491123866524546,-9.702839496913551,-0.8395452099602669,50,standing
1783066176971544300,2.1122243,-0.0945491190705448,-0.0306225172787904,-0.0249146610260009,0.0318170525133609,0.0114745842292904,0.0022769512142986,-1.1478916857510804,-9.703602882501482,-0.8323591709136963,50,standing
1783066176991470300,2.1321503,-0.0436252797801047,0.0061795654177665,0.0254629425585269,-0.0014296758454293,0.0259775817394256,0.0129775339737534,-1.1497344640735536,-9.703594114673136,-0.829915065697208,50,standing
1783066177011397400,2.1520774,-0.0483908867467194,0.0995189433723688,0.0061000704407691,-0.0084201488643884,0.0051059746183454,0.0170432943850755,-1.152450664229691,-9.703110715070366,-0.8318006602481007,50,standing
1783066177031323400,2.1720034,-0.0304113587461411,0.1189011047124862,-0.04204882424362,0.0049763051792979,-0.0230278130620718,0.0052943597547709,-1.1553170134462416,-9.702741881757976,-0.8321342030514031,50,standing
1783066177051250400,2.1919304,-0.1659090857334434,0.0578968931734561,0.0338807153571397,-0.0081862919032573,-5.21098263561e-05,-0.0159297492355108,-1.1540440709009765,-9.702938281112909,-0.8315981964785605,50,standing
1783066177071177500,2.2118575,-0.0864976953662931,-0.0134083476275205,0.0739631348986178,-0.0208421926945447,-0.0025222501717507,-0.0019133575260639,-1.1519033325452357,-9.70285995517969,-0.8354688273668288,50,standing
1783066177091103200,2.2317832,0.0283827755279839,0.0461339746654033,-0.0514531969267874,-0.0068319831043481,-0.0203682538121938,0.0167413745075464,-1.153957269400358,-9.702398767408727,-0.8379928659517317,50,standing
1783066177111030300,2.2517103,-0.1094234475973993,0.0858762024670839,-0.0748497084747999,-0.0104207005351781,-0.0439145974814891,-0.0247560404241085,-1.1550143772378565,-9.702186001440882,-0.8389875760775058,50,standing
1783066177130957300,2.2716373,-0.3300587605789303,0.0685673402696847,0.0546615645140409,-0.0305269584059715,-0.0194515231996774,-0.0467268973588943,-1.1473130090802908,-9.702834820738437,-0.8420545624326914,50,standing
1783066177150883300,2.2915633,-0.111865287791565,-0.0584714781910181,0.0012181436181068,-0.035567257553339,-0.018458429723978,-0.0142211513593792,-1.1414995004959403,-9.702987965473532,-0.8481672000940889,50,standing
1783066177170811000,2.311491,-0.0375367536466568,0.0453033690601587,-0.0457400069117546,-0.0140174012631177,-0.0053345938213169,-0.0038627884350717,-1.1398117666047063,-9.702764678111672,-0.8529835143346339,50,standing
1783066177190737000,2.331417,-0.0526773318942636,0.1977028387486934,-0.1286860011458397,0.0243470314890146,-0.018005646765232,-0.0037208418361842,-1.1393359657865016,-9.702982704776526,-0.851140809077397,50,standing
1783066177210664000,2.351344,-0.1754025980047881,0.1709580396860837,-0.0776712687015533,0.0059940675273537,0.0071390038356184,-0.0238121766597032,-1.1375176643181593,-9.703471949598192,-0.8479873134825379,50,standing
1783066177230591000,2.371271,-0.2100437032751738,0.0947410614460706,-0.0041741438794881,0.004211698193103,-0.0066139176487922,-0.028137944638729,-1.1322058947108686,-9.704169868734478,-0.847114037779346,50,standing
1783066177250517200,2.3911972,0.0114792061958461,0.0212993931382894,-0.0493657961934804,0.0088052367791533,-0.0226247385144233,0.0020496072247624,-1.1301699319038538,-9.704498370036482,-0.8460656977701931,50,standing
1783066177270444000,2.411124,0.0720486065141856,0.1178559795737266,-0.0551917989332228,0.02541995793581,-0.0188290812075138,0.015398615039885,-1.1328295065019278,-9.70453987109065,-0.8420352732103318,50,standing
1783066177290370800,2.4310508,-0.1354443893648683,0.1297510000288486,-0.0030541268736124,0.0223029814660549,0.0162269417196512,-0.0017710977699607,-1.1340808217372744,-9.70476198940873,-0.837759349456802,50,standing
1783066177310297000,2.450977,-0.1413137197896838,0.0905991393357515,-0.0196012839835137,0.0362279862165451,-0.0196779947727918,-0.0036269188858568,-1.1335986642435192,-9.705263509190084,-0.832584723297879,50,standing
1783066177330224000,2.470904,-0.0676855159338563,0.0375239672303199,-0.0743190356642007,0.0339135490357875,-0.027100920677185,-0.0086964238435029,-1.1325575576927511,-9.706058458960056,-0.8247036146592348,50,standing
1783066177350150100,2.4908301,-0.086530209396407,0.0096095398664474,0.0633715251922607,0.0100013446062803,-0.0218970756977796,-0.0024631740525364,-1.1313701014738529,-9.70657517631054,-0.8202385250091552,50,standing
1783066177370077200,2.5107572,0.0077644965216517,0.0218640412837266,0.0425433297622948,-0.0209486801177263,-0.0216522477567195,0.0122470753267407,-1.1325905101142824,-9.706409172093869,-0.8205095970354974,50,standing
1783066177390004200,2.5306842,-0.0414938937745988,0.0189554603606462,0.0854652835786342,-0.0433619357645511,-0.0115781780332326,0.0115194432437419,-1.1358546264767646,-9.705446464541554,-0.8273683768890797,50,standing
1783066177409930000,2.55061,-0.1941683810122311,0.0205699098199605,-0.0558966592669486,-0.0041064643301069,-0.0374801084399223,-0.036297470331192,-1.133865425420925,-9.70526526275575,-0.8322022998515516,50,standing
1783066177429857000,2.570537,-0.2406019231460988,0.044922260788083,-0.0099006317675113,0.0262866411358118,-0.02793332003057,-0.0401597209274768,-1.126187876530364,-9.70642378514111,-0.8291174125134945,50,standing
1783066177449784000,2.590464,-0.0529728077095001,0.0105453594118356,-0.1381406427115201,0.0245179776102304,-0.0249938406050205,-0.0265940241515636,-1.1203359356317668,-9.707660633459689,-0.8225328464914112,50,standing
1783066177469710000,2.61039,-0.0949633258946239,0.090064886328578,-0.0421457818120718,-0.0074060866609215,-0.0135538103058934,-0.0211791526526212,-1.1157545261256396,-9.708321727716925,-0.8209639166742563,50,standing
1783066177489637000,2.630317,0.0077115972906351,0.1549713660031557,-0.0497937392819672,-0.0272555705159902,-0.0214451849460601,0.0100169368088245,-1.115179429651424,-9.708136434277892,-0.8239403752017765,50,standing
1783066177509563000,2.650243,0.0001450344938784,0.181981538003683,-0.0485731114458292,-0.0209950488060712,-0.0111330868676304,0.0197706818580627,-1.1189852516751737,-9.707311673891544,-0.8284529572553933,50,standing
1783066177529490000,2.67017,-0.0715772626753896,0.2044312702208757,-0.0549987605791538,0.021277030929923,-0.0191068202257156,0.0161609835922718,-1.1228300174698234,-9.70686743725538,-0.8284610674966126,50,standing
1783066177549417000,2.690097,-0.0969028425898402,0.0912140563637018,-0.0858153391253203,0.0523985102772712,-0.0172509718686342,-0.0036365576088428,-1.1245886977054178,-9.70737480225563,-0.8200903487101197,50,standing
1783066177569343000,2.710023,-0.1726633092340082,-0.0145090023458003,-0.0439514429945498,0.0164532661437988,0.0152211599051952,-0.0205716919153928,-1.1220012384954838,-9.708345108592509,-0.8121254342455416,50,standing
1783066177589270000,2.72995,-0.1604360611498355,-0.0987263316899538,0.0421124640643596,-0.0445858314633369,0.0203635562211275,-0.0078864842653274,-1.1183668275158851,-9.708372581121324,-0.816785900337249,50,standing
1783066177609196000,2.749876,0.0058303135886788,0.0324620076656341,-0.0595505055993795,-0.0395672656595706,-0.0111786928027868,0.0208198297768831,-1.1198820543844252,-9.70743091635704,-0.825854976651445,50,standing
1783066177629123000,2.769803,-0.069154857834056,0.1697451567649841,-0.0631296061951667,0.010106548666954,-0.0094066262245178,0.0139880236238241,-1.123905976138264,-9.706749363833666,-0.8284111639402806,50,standing
1783066177649050000,2.78973,-0.1559833195246756,0.1778659193783998,-0.080745269319415,0.0135548738762736,0.0122970612719655,-0.005630780942738,-1.1247652233161032,-9.706938164404034,-0.8250105617165565,50,standing
1783066177668976000,2.809656,-0.1584914298880845,0.0724807143211364,0.026291283141449,-0.0010430037509649,0.0157713647931814,-0.0059512518346309,-1.1231545001838357,-9.707195938557383,-0.8241591325189918,50,standing
1783066177688903200,2.8295832,-0.0168862528711557,0.0025946926683187,-0.0162514620989561,-0.0066205002367496,0.0002065869048237,0.0098843583837151,-1.12365170911625,-9.7070422093004,-0.825310859837383,50,standing
1783066177708830200,2.8495102,-0.0302982537604868,0.0327554376542568,-0.0316138664036989,-0.0002205870114266,-0.0052416259422898,0.0119839534163475,-1.1261010019645097,-9.706676883119345,-0.8262585159510374,50,standing
1783066177728756000,2.869436,-0.1361913352746516,0.0493821628063917,-0.0589566313594579,-0.0170719102025032,0.0048788306303322,-0.0143384700641036,-1.1264509844459594,-9.706544781172274,-0.8273474071662873,50,standing
1783066177748683000,2.889363,-0.2204892555743455,0.0793745654881,0.0434445163857191,-0.0008721123449504,-0.0105229122564196,-0.0270527526736259,-1.121610339481756,-9.70690952283144,-0.8296403404090553,50,standing
1783066177768609000,2.909289,-0.0328925080373883,0.0192997437536716,-0.0526461330384016,0.0132512366399168,0.0078712236136198,0.0054950267076492,-1.119017619574815,-9.707287123972176,-0.8287197914980351,50,standing
1783066177788536000,2.929216,0.0839578016251325,0.1390022279769182,-0.085845734263584,0.0231890156865119,-0.019296696409583,0.0279290061444044,-1.1233406704057007,-9.70712930306196,-0.8246990846145897,50,standing
1783066177808463000,2.949143,-0.1290400752805173,0.1621662459433078,-0.0262993933826684,-0.0010241332929581,0.008763057179749,0.0041447137482464,-1.1261199989259243,-9.707100076967476,-0.8212484327040612,50,standing
1783066177828388900,2.9690689,-0.1846017304394394,0.0575993715316057,0.0751064597148448,-0.0277817212045192,0.0004084960091859,-0.0099961906671524,-1.1260737486314027,-9.706830027854442,-0.8244915062785149,50,standing
1783066177848316000,2.988996,-0.1473538767367601,0.0331827231556177,0.0182406631547957,-0.0208860896527767,0.0066383811645209,-0.0113725075498223,-1.123518072799221,-9.706654671287536,-0.8300251019429415,50,standing
1783066177868242000,3.008922,-0.0141376848153769,0.0326274273604154,-0.0768891053479164,-0.006136042997241,0.0136532122269272,0.0181538313627243,-1.1237066541738807,-9.706398650699851,-0.832758326299116,50,standing
1783066177888169000,3.028849,0.0569129967026412,0.1170078383117914,-0.0819477039117366,0.0209630988538265,-0.024799209088087,0.0328674428164958,-1.1299646916553376,-9.70578665628135,-0.8314397910464555,50,standing
1783066177908096000,3.048776,-0.1387459881935268,0.1262520519971847,-0.1220739625949412,0.0095145273953676,0.0123711079359054,0.0058171791024506,-1.1340718347132206,-9.70560370092988,-0.8279753298062831,50,standing
1783066177928022300,3.0687023,-0.2539992379229515,0.0728828653812408,0.0244237357039004,0.0111598288640379,0.004888157825917,-0.0175427384674549,-1.13194439423047,-9.705952660498022,-0.8267800556071102,50,standing
1783066177947949000,3.088629,-0.0725165162868797,0.0026730186015367,-0.0451607457190752,0.0298250056803226,0.0057317437604069,0.0022074426524341,-1.1301210512608288,-9.706521984818576,-0.8225874262228607,50,standing
1783066177967875800,3.1085558,0.0096523560948669,0.0635544805437326,-0.0062642480265349,0.0166854187846183,0.0163226947188377,0.0250163432210683,-1.1323832971043883,-9.70664941059053,-0.8179397465474904,50,standing
1783066177987802000,3.128482,-0.0828307703565806,0.0947089127421379,0.0335440307486802,-0.0149573870003223,0.0157894771546125,0.0096386754885315,-1.1359675122667103,-9.706230892917514,-0.8179443496573716,50,standing
1783066178007729200,3.1484092,-0.1893706253416836,0.085303371015191,0.0218541774768382,-0.0212301760911941,0.009459245018661,-0.0113105103373527,-1.1352216623354705,-9.705952660498022,-0.8222660122487694,50,standing
1783066178027655200,3.1683352,-0.1044395217049866,0.0150391636997461,-0.0191909496169537,0.0038020191714167,-0.0205498822033405,-0.008531492203474,-1.1330635344535112,-9.706018711471556,-0.8244660795763135,50,standing
1783066178047582200,3.1882622,-0.0713075788885354,-0.000499766215682,-0.0086590342085808,0.016891648992896,-0.0088015617802739,-0.0093844579532742,-1.1317788284052164,-9.706340783032774,-0.8224283632036298,50,standing
1783066178067509000,3.208189,-0.0720134621355682,0.0901718538343906,-0.0305956292718648,0.0034392164088785,-0.0016061896458268,-0.007803660351783,-1.1300253358013927,-9.706782097059488,-0.8196452352911233,50,standing
1783066178087435000,3.228115,-0.0606615355812013,0.0970598597824573,0.0822029938470572,-0.0368494987487793,0.0043854950927197,0.003469587303698,-1.1298553860619664,-9.706488667070865,-0.8233583375301211,50,standing
1783066178107362000,3.248042,-0.0328422391548752,0.1047562595039606,-0.0003489595681428,-0.0166207514703273,-0.0401527248322963,0.007498157210648,-1.1316375202383846,-9.705804191938045,-0.8289428596641868,50,standing
1783066178127288000,3.267968,-0.0984610318172723,0.0882838481307029,-0.0669750295769423,0.0206840764731168,-0.025160202756524,-0.0068750232458114,-1.132757098852843,-9.705791332456467,-0.8275579811770468,50,standing
1783066178147215000,3.287895,-0.1791237374197691,0.090771573293209,-0.0509031618285924,0.044390644878149,-0.0064081354066729,-0.017220064997673,-1.1305045706856995,-9.706634797543286,-0.8207360992677509,50,standing
1783066178167142100,3.3078221,-0.1150925792749971,0.0217114810705184,-0.0356336234390735,0.0068031745031476,-0.0185163579881191,-0.0221068784594535,-1.1266001836583015,-9.707603934836389,-0.8146074603196233,50,standing
1783066178187068000,3.327748,-0.1207632453225553,-0.0498176316142082,0.1120411558151245,-0.0465844124555587,-0.0162409972399473,-0.0076426640152931,-1.1239224888816477,-9.707601596748828,-0.8183310839526354,50,standing
1783066178206995000,3.347675,-0.0195757842160761,0.0097860654771327,-0.0251484697818756,-0.0323058627545833,-0.035737507045269,0.0031868654768913,-1.1242540589235723,-9.706901924046871,-0.8261395657464862,50,standing
1783066178226921000,3.367601,0.0141311820093542,0.1627799939274787,-0.0026811288427561,-0.0053234947845339,-0.0229382570832967,0.0095758298411965,-1.126537201424688,-9.70636650199592,-0.8293035827353596,50,standing
1783066178246848000,3.387528,-0.0185505328215658,0.1515600962549448,-0.0420020624924451,0.0014036687789484,0.0062080090865492,0.0100041050463914,-1.1291702533420174,-9.70607190296352,-0.8291881396621466,50,standing
1783066178266775000,3.407455,-0.075376874154061,0.1023819315880537,-0.0304150850731879,0.009141138754785,-0.024838225916028,-0.0074105849489569,-1.1296547489233315,-9.70612450993359,-0.8279062100928276,50,standing
1783066178286701000,3.427381,-0.0272589591298252,0.0088525840193033,-0.0205856188457459,0.0095858601853251,-0.014712942764163,-0.003104880452156,-1.1291401504646985,-9.706416186356543,-0.8251663368001579,50,standing
1783066178306628000,3.447308,-0.0555802137289196,-0.0079500822216272,-0.0557231293309479,0.0020944664720445,-0.022827161476016,-0.0161221306771039,-1.1279038136027753,-9.706673960509896,-0.8238463402427733,50,standing
1783066178326554000,3.467234,-0.2205678007032722,0.0081324530512094,0.0222871620666235,-0.0074017392471432,0.0017429457511752,-0.0396391823887825,-1.121981145555526,-9.707343822595476,-0.8240456622071564,50,standing
1783066178346481200,3.4871612,-0.0803701523967087,0.0227671276032924,-0.0036040889065712,-0.0136250602081418,0.0042621386237442,-0.0088560981675982,-1.116580893947184,-9.707761171224712,-0.8264354799531399,50,standing
1783066178366408200,3.5070882,0.0736862176533788,0.0901905585348606,-0.0670762249290943,-0.0036082996521145,-0.0142109747976064,0.0179126746952533,-1.1183063295003026,-9.707399352174995,-0.8283554151650517,50,standing
1783066178386334000,3.527014,-0.0454117978706955,0.1708598400086164,-0.0910924027454107,0.0139419455081224,-0.0013642732519656,0.0066477530635893,-1.1208636127676814,-9.7072631585747,-0.826485383509472,50,standing
1783066178406261000,3.546941,-0.1689193734653294,0.0965747066140174,-0.0087286653786897,0.0160310808569192,0.0081662312150001,-0.0038248915225267,-1.120657568801567,-9.707498720896243,-0.8240045995444059,50,standing
1783066178426188000,3.566868,-0.0931380101636052,0.0066343234479427,-0.0999701942712068,0.0191553644835948,-0.0019499886548146,-0.011797989718616,-1.1192260016284885,-9.707939450401067,-0.8207500547278672,50,standing
1783066178446114000,3.586794,-0.0890292596705257,0.0251934779673814,0.0174315387289971,0.022922609001398,-0.0110420910641551,-0.0193578787147998,-1.116451495413855,-9.708543261513114,-0.8173940953634679,50,standing
1783066178466041000,3.606721,-0.0136595459096133,0.0229062438130378,-0.0658276861727237,0.0241383910179138,-0.0092578828334808,-0.0174376107752323,-1.112662916785851,-9.709397247993946,-0.8123957756195217,50,standing
1783066178485967000,3.626647,0.0122012368600815,0.0632429303765296,0.0351561421204358,0.0038059293292462,0.0022581035736948,0.0014451732859015,-1.1112896556712686,-9.70978010983169,-0.8096803061157465,50,standing
1783066178505894000,3.646574,-0.0230666950717568,0.0700789138764143,0.0034282208830118,-0.0059211156331002,-0.007104923017323,-0.0054425881244242,-1.1114854705043136,-9.709733348080515,-0.8099746128872036,50,standing
1783066178525820000,3.6665,-0.0911990049250423,0.0588227758467197,0.0168359839886426,-0.0063133053481578,-0.0077823819592595,-0.0154816471040248,-1.109642838312313,-9.709849667936563,-0.811112530875951,50,standing
1783066178545747000,3.686427,-0.0355370311968028,0.0458849683403968,-0.0302840060394257,0.003691001329571,-0.0102911386638879,-0.0107823796570301,-1.107394694059342,-9.71007938503921,-0.8114278804354369,50,standing
1783066178565674000,3.706354,-0.0603813304003328,0.0700379973441362,-0.041005306540057,0.0094211315736174,0.0010847678640857,-0.0091235376894474,-1.104846690076962,-9.710440035045146,-0.8105823695220052,50,standing
1783066178585600300,3.7262803,-0.0381295319080352,0.0932628055870533,-0.1021527990072965,0.0223230123519897,-0.0201368909329175,-0.0001565730199217,-1.1042040813244878,-9.71077087443471,-0.8074939019873738,50,standing
1783066178605527000,3.746207,-0.0843171364568173,0.1336883394777774,-0.0724449854206293,0.024330124258995,-0.0395293794572353,-0.0005374372121877,-1.1054515971675514,-9.711092945995926,-0.8018875333476811,50,standing
1783066178625453000,3.766133,-0.1332226216621697,0.0769394472956657,-0.0340513226836919,-0.0139017906039953,0.0340380854904651,0.0058860029093921,-1.1059261558767408,-9.711057290160657,-0.8016742559231818,50,standing
1783066178645380000,3.78606,-0.0972239643029868,0.1254214463919401,-0.0966957026451826,0.0073020323179662,0.0067497408017516,0.0035373610444366,-1.106012153659761,-9.710907068035006,-0.8033744109045714,50,standing
1783066178665307100,3.8059871,-0.0698143446560949,0.108213121959567,-0.1235557255852967,0.0189946480095386,0.0451671257615089,0.0059598283842206,-1.1064868584994223,-9.711057874682544,-0.8009055365730077,50,standing
1783066178685233200,3.8259132,-0.0765190299265086,0.0998544589370489,-0.087320044599846,0.027924919500947,0.0320060923695564,0.0131979258731007,-1.1075635478202253,-9.711228555074332,-0.7973373226974159,50,standing
1783066178705160200,3.8458402,-0.0394221290018409,0.0802624542385339,-0.0994634137928485,0.005667551420629,0.0334292873740196,0.0106716519221663,-1.109645249465108,-9.711237907424568,-0.7943217742685228,50,standing
1783066178725086000,3.865766,-0.0928461145449429,0.0514969630032777,0.0131388099711388,-0.0106287654489278,0.0291458610445261,-0.0016781736630946,-1.1102402196835726,-9.711054367551206,-0.795743112308532,50,standing
1783066178745013000,3.885693,-0.0664248483482748,-0.0080015201479196,-0.0257307266492396,-0.0117493029683828,0.0519410297274589,-0.001838409807533,-1.1089784561194478,-9.710962013092637,-0.7986229785937815,50,standing
1783066178764940000,3.90562,-0.0517557600699365,0.041302316725254,-0.0432989704351872,0.0023087963927537,0.0443853698670864,-0.0063240760937333,-1.107636247730255,-9.710883687159418,-0.8014055950496345,50,standing
1783066178784866000,3.925546,-0.0159681151129305,0.1262555591285228,-0.0867278508603572,0.0213104747235775,0.0038121636025607,0.0055041825398802,-1.1069123904351144,-9.71114263035655,-0.7992758895445614,50,standing
1783066178804793000,3.945473,-0.0340641091000288,0.0912660788118839,-0.0420043275147676,0.0010058087063953,0.0272268895059824,-0.000966542516835,-1.1072218217104672,-9.711317986923456,-0.7967144415587186,50,standing
1783066178824718800,3.9653988,-0.1585777199320495,0.0418932683557271,0.059711833640933,-0.0153281800448894,0.0663486644625663,-0.0013115170877426,-1.1060098886374383,-9.711175948104264,-0.8001186239790171,50,standing
1783066178844646000,3.985326,-0.0597927168574184,0.0715121615499258,-0.056723684675619,0.006762109696865,0.0228035897016525,0.0186879709362983,-1.106781603662297,-9.710866151502728,-0.8027946382552384,50,standing
1783066178864573000,4.005253,0.0152499569062143,0.1032213050216436,-0.126258408672735,0.0085639581084251,0.010800514370203,0.0234083570539951,-1.1108961993742734,-9.710553432291746,-0.8008961111575364,50,standing
1783066178884499200,4.0251792,-0.1525661314923316,0.0698269849419593,0.0897988558035343,-0.0156235732138156,0.0091512687504291,0.0155962314456701,-1.1151635744951665,-9.70993150100112,-0.8025227625112981,50,standing
1783066178904426000,4.045106,-0.2218419122923165,0.0092506434261798,-0.0160165573645383,0.0004992028698325,0.0298382230103015,-0.0067283124662935,-1.1163672511965037,-9.709658529278636,-0.8041477333646267,50,standing
1783066178924352000,4.065032,-0.1849948214102536,0.1277221245497465,0.0156751235157251,0.0113628171384334,0.0382294207811355,0.0012371281627565,-1.114906969385594,-9.709915718910098,-0.8030684136953204,50,standing
1783066178944279000,4.084959,-0.0595396919444203,0.0691693978160619,-0.0315010536789894,-0.01428550388664,0.0322842858731746,0.010988482274115,-1.115863831719011,-9.70972165764272,-0.804075398780778,50,standing
1783066178964206000,4.104886,-0.0760615684825927,0.1327986971616745,0.0662620590019971,-0.0142841199412941,0.0058083171024918,0.0114536583423614,-1.1180464364551006,-9.709155255931616,-0.8078663885615766,50,standing
1783066178984132000,4.124812,-0.0328213424973189,0.1100000053763389,-0.020112229180336,0.0050573237240314,-0.0001526449341326,0.022123459726572,-1.12178226198256,-9.708653736150264,-0.8087308233711868,50,standing
1783066179004059100,4.1447391,-0.1320068161316216,0.0399666842073202,-0.0063940849512815,-0.0075570484623312,0.0276596061885356,0.0145035525783896,-1.1253981874573975,-9.708201900729536,-0.8091308555394411,50,standing
1783066179023985200,4.1646652,-0.1958887750640511,-0.0026800328642129,-0.0097398882478475,-0.0157943777740001,0.0415869206190109,-0.0022938102483749,-1.1258603981416673,-9.707902625522015,-0.8120700507964939,50,standing
1783066179043912000,4.184592,-0.1495046980950981,0.0108270989626646,-0.0578605797510594,0.0099760135635733,0.0137210944667458,-0.0086410595104098,-1.124060655243322,-9.707941788488624,-0.81407744509615,50,standing
1783066179063839000,4.204519,-0.0899401639703661,0.0773164639145135,-0.141499232424423,0.0420744642615318,0.0010342786554247,-0.0068580652587115,-1.1221244264837351,-9.708590607786178,-0.8089990458533167,50,standing
1783066179083765000,4.224445,-0.0922269597332924,0.060896074989438,-0.0664174687594175,0.0208515897393226,0.0291851609945297,0.0011862387182191,-1.121034731550887,-9.709229490211603,-0.8028278098724781,50,standing
1783066179103692000,4.244372,-0.0823145644627511,0.0578887098670005,0.0598024345338344,-0.0133575126528739,0.0525713451206684,0.0240551959723234,-1.1231658252954482,-9.708915601956845,-0.8036508166931569,50,standing
1783066179123618000,4.264298,-0.0485341676749289,0.1175420913189649,-0.0108493107944726,-0.0083537260070443,0.01091337390244,0.0134415430948138,-1.1276172517463563,-9.708115391489862,-0.8070698313564062,50,standing
1783066179143545000,4.284225,-0.1801446779653429,0.1211550211191177,0.0008739332903176,0.0157389976084232,-0.0005885527934879,-0.0158855076879262,-1.1266402964729816,-9.708286071881652,-0.8063733004596084,50,standing
1783066179163470600,4.3041506,-0.1056721322398632,0.0291834243863821,-0.0074006316453218,0.042132593691349,-0.0240862593054771,-0.0241948142647743,-1.1231516506396233,-9.70924001160562,-0.7997451144915073,50,standing
1783066179183397600,4.3240776,-0.134748004598543,0.0083422964096069,0.0927198578167706,0.0037868272047489,0.0144907478243112,-0.0222548712044954,-1.118466926889494,-9.71024538925588,-0.7940713066387921,50,standing
1783066179203324700,4.3440047,-0.1058929353836923,0.0513221909582614,0.1595107629984617,-0.0270489919930696,-0.0035678213462233,-0.0117480251938104,-1.1147007792890071,-9.710429513651132,-0.7971168848797678,50,standing
1783066179223250400,4.3639304,0.0063766954250633,0.1314046124547719,0.0547878212422132,-0.0213722959160804,-0.0453280545771122,0.0077353450469672,-1.1150418478116393,-9.710006904324889,-0.8017788853414356,50,standing
1783066179243177500,4.3838575,-0.0719133627619594,0.1345990245819091,-0.0111374800860881,-0.0142337139695882,-0.0516539625823497,-0.000910910021048,-1.1172568935126066,-9.709610013961791,-0.8034895617168396,50,standing
1783066179263103500,4.4037835,-0.1743164832685142,0.108584293359518,0.0508907407384365,-0.0216879062354564,-0.0443022586405277,-0.0146752502769231,-1.1169067649006843,-9.70948375723362,-0.8055133956946432,50,standing
1783066179283030500,4.4237105,-0.1806480974428355,0.0284510184586048,0.0273182150363922,-0.0560692436993122,-0.0089458711445331,-0.0124774482101202,-1.115363115655258,-9.70910615609288,-0.8121675928868353,50,standing
1783066179302957600,4.4436376,-0.1917745446782559,0.0349222602993249,0.0318131153028458,-0.0599879883229732,0.000447365338914,-0.0088754706084728,-1.1135142729181795,-9.708246324393151,-0.8248926344253122,50,standing
1783066179322883600,4.4635636,-0.0430955568175762,0.1103612399041652,-0.2297889257740229,0.0037263492122292,-0.0443496666848659,-0.0075762206688523,-1.112405727154389,-9.707966922929884,-0.8296453819103539,50,standing
1783066179342810400,4.4834904,-0.0763579941459,0.13345979141891,-0.0733645114183425,0.0281490888446569,-0.0417974032461643,-0.0203862190246582,-1.1113158860910684,-9.708470780798793,-0.8252094452895223,50,standing
1783066179362736400,4.5034164,-0.1407806358262896,0.0694043756157159,-0.0936895065665245,0.0284668244421482,-0.0380844213068485,-0.0362622253596782,-1.1064489376418292,-9.709657360234855,-0.8177532840646803,50,standing
1783066179382663400,4.5233434,-0.1316197165101766,0.0101946462780237,0.1025157871007919,-0.0123815638944506,0.0040323520079255,-0.0180367119610309,-1.101094644067064,-9.710452310004827,-0.8155387498203664,50,standing
1783066179402589400,4.5432694,0.0070696461252868,-0.0137894558995962,0.0056721273522824,-0.0332275032997131,-0.0149093242362141,-0.001350742066279,-1.0995742295667528,-9.710261755868792,-0.8198509139310568,50,standing
1783066179422516500,4.5631965,-0.0605940233029425,0.1157826804310083,0.0195556912761181,-0.0342943184077739,-0.032405287027359,-0.0141173377633094,-1.098648566089198,-9.70979881453216,-0.8265517267439514,50,standing
1783066179442443500,4.5831235,-0.0735146604787558,0.1549596755653619,-0.0308417860526591,-0.0250607039779424,-0.0393601804971694,-0.0107415039092302,-1.096352564106509,-9.709621119877696,-0.8316695812143385,50,standing
1783066179462369500,4.6030495,-0.0278656197860836,0.070532502862811,-0.020319149929285,-0.0431115366518497,-0.0014708579983562,-0.0004564834816846,-1.0963616241957992,-9.709139473840594,-0.8372538110874593,50,standing
1783066179482296600,4.6229766,-0.1470367005463689,0.0597054039001464,0.0404296986091882,-0.0395482964813709,0.00196936680004,0.0013391878455877,-1.0964519328277558,-9.708337509807944,-0.8463774671331048,50,standing
1783066179502222600,4.6429026,-0.1252710781358182,0.0636287148237228,-0.1390321116585284,0.0129326311871409,-0.0201724283397197,-0.0202278345823287,-1.0953230749282985,-9.708222358995677,-0.8491746966361999,50,standing
1783066179522149600,4.6628296,-0.1869845339227467,0.064338908919692,-0.1420008983362466,0.0408042818307876,-0.0181905552744865,-0.0364776849746704,-1.0898735042855143,-9.709381465902924,-0.8429142480019479,50,standing
1783066179542076700,4.6827567,-0.0736428899683058,0.0427156906545162,-0.0467694230247288,0.0187676884233951,-0.008346764370799,-0.0189244598150253,-1.0850011490087956,-9.710503163409232,-0.8362418575659394,50,standing
1783066179562002400,4.7026824,-0.0464643025983124,-0.0139665660321712,0.0392295290391892,-0.0303711406886577,0.007673691958189,-0.0069873663596808,-1.0831504065755757,-9.710533558547496,-0.83829447924681,50,standing
1783066179581929500,4.7226095,-0.0542272647500038,0.085644731798768,0.0322299524754285,-0.0465403832495212,0.0021440112031996,-0.0085288221016526,-1.081522366982326,-9.710036130419374,-0.8461092446509748,50,standing
1783066179601855500,4.7425355,-0.0237145645212382,0.0974555811017751,0.0390237773340195,-0.017533665522933,-0.0290812328457832,-0.0091384314000606,-1.0803120413444935,-9.70957786525786,-0.8529025580529123,50,standing
1783066179621782500,4.7624625,-0.0293167684424668,0.0944184053629636,-0.1041634812425821,0.0306418556720018,-0.0259678307920694,-0.0258365925401449,-1.0775522212423383,-9.710130238443613,-0.8500756640639155,50,standing
1783066179641708500,4.7823885,-0.0904763897389173,0.0997159272491931,0.0143318922132253,0.010486327111721,0.0207563638687133,-0.0260309725999832,-1.072806122693792,-9.711088854342698,-0.845119502961263,50,standing
1783066179661635300,4.8023153,-0.1009466380879283,0.0482820926100015,0.0128823509920388,-0.0282586272805929,0.0123257022351026,-0.0205883402377367,-1.0680225416790694,-9.711429046082497,-0.8472612642303109,50,standing
1783066179681562400,4.8222424,-0.021661066057533,0.0447311221301555,-0.0076420391857624,-0.0477964989840984,-0.0038616308011114,0.0082573369145393,-1.0668027906257658,-9.710870827677846,-0.8551683840930462,50,standing
1783066179701488400,4.8421684,-0.0635696050476282,0.039980128210783,-0.0598976385366171,-0.0101923197507858,-0.0198688264936208,-0.0046140975318849,-1.0679900276489556,-9.710160049059986,-0.8617204360850155,50,standing
1783066179721415400,4.8620954,-0.1789120674304664,0.0944517231106758,-0.0840647691309452,0.0185286588966846,0.0084831872954964,-0.0223478693515062,-1.0656240291699766,-9.710613053524494,-0.8595497409824281,50,standing
1783066179741341700,4.8820217,-0.197296522970125,0.0456108275741338,-0.0315473039735108,0.0135848140344023,0.0207490660250186,-0.0304522737860679,-1.0602581182226538,-9.711453011479971,-0.8567016580749303,50,standing
1783066179761268700,4.9019487,-0.0618307254910469,0.041526188609004,-0.0576982287961989,-0.0030685358215123,0.0152420233935117,-0.0098402295261621,-1.0561120313938706,-9.712007138231396,-0.8555399938844144,50,standing
1783066179781194500,4.9218745,-0.0316580708716064,0.0619984832733869,0.0226613291412591,-0.0067900866270065,0.0005838243523612,-0.0045523829758167,-1.0551596260398626,-9.711977912136913,-0.8570408999666571,50,standing
1783066179801121500,4.9418015,-0.0904481134925037,0.1167933187782764,-0.053256958413124,0.0192292630672454,-0.0018369890749454,-0.0142436260357499,-1.0535313672509043,-9.712304659873247,-0.8553424985509366,50,standing
1783066179821048600,4.9617286,-0.1047701418988406,0.083356328600645,0.0089303984958678,-0.0006588301621377,0.0376930087804794,-0.0064607905223965,-1.0510308556720611,-9.712685183623432,-0.8540835114657879,50,standing
1783066179840974600,4.9816546,-0.0656141895525157,0.0898743321925401,-0.007094342175126,-0.0020800686907023,0.057103082537651,0.016628473997116,-1.0515803062483668,-9.712470079568028,-0.8558654264464974,50,standing
1783066179860901600,5.0015816,-0.0005517886638641,0.1268529404997825,-0.1294657533466816,0.0180521383881568,-0.020687311887741,0.0034365893807262,-1.0525975204668938,-9.712488199746607,-0.8544014183085411,50,standing
1783066179880827400,5.0215074,-0.1437958189290016,0.0085094696700572,0.037597105531767,-0.0035077892243862,0.0227883029729127,-0.008766695857048,-1.0525563847389072,-9.712657126572728,-0.8525234225422144,50,standing
1783066179900754400,5.0414344,-0.1411194393265992,0.0411404041618108,0.0174842187643051,-0.0262256581336259,0.022781329229474,0.0046220803633332,-1.051342332774028,-9.712518594884871,-0.8556041451618075,50,standing
1783066179920680400,5.0613604,-0.0776673231787979,-0.0302624517947435,-0.0074952511262148,-0.0142380772158503,0.0132944537326693,-0.0097564440220594,-1.05119883265011,-9.712042794066669,-0.8611506733730435,50,standing
1783066179940607500,5.0812875,-0.0777287710424512,0.0895762260288,-0.1412444539457559,0.0234614871442317,-0.0018656983738765,-0.016514727845788,-1.0493414412803947,-9.712321611008049,-0.8602798818878828,50,standing
1783066179960534500,5.1012145,-0.1254743456229567,0.1170984392046928,-0.0278068753361701,0.0274811945855617,0.0074413609690964,-0.0061092530377209,-1.0467864230353383,-9.713058693110945,-0.8550549137812107,50,standing
1783066179980460300,5.1211403,-0.0700236034926027,0.0559960279881954,-0.0447287109773606,-0.0029803130310028,-0.0097288936376571,0.0028856440912932,-1.0471708192430436,-9.71330711491406,-0.8517498078212141,50,standing
1783066180000387300,5.1410673,-0.173536950263381,0.0997632735222577,0.1011743824291974,-0.0370963774621486,0.0073126731440424,-0.0043865949846804,-1.047356258812547,-9.712931267338991,-0.8557965989939867,50,standing
1783066180020313600,5.1609936,-0.1304000385221093,0.0862730928301811,-0.0097960754144936,-0.0346802547574043,0.0189555343240499,-0.0001897320034913,-1.0467992094516754,-9.712311674135924,-0.8634893454536795,50,standing
1783066180040240600,5.1809206,-0.0521632448922842,0.0919470468133688,-0.074411317057535,0.0021251160651445,0.009674048051238,0.0061760917305946,-1.0472242299307135,-9.711848732799291,-0.8681560220904648,50,standing
1783066180060166700,5.2008467,-0.011490604372695,0.119069447016716,-0.1742290241807699,0.0620538592338562,-0.0286026094108819,0.0110415024682879,-1.0492902956150472,-9.71218658645153,-0.8618618903823196,50,standing
1783066180080093700,5.2207737,-0.0759267631217837,0.1322439858883619,-0.1450222919840365,0.0511795692145824,-0.0090203341096639,-0.0032926532439887,-1.0502462081003934,-9.713241648462414,-0.848720742323622,50,standing
1783066180100020500,5.2407005,-0.1761490324579179,0.0258984113663434,0.1169399607073515,-0.0180841870605945,0.0286996681243181,6.15305034443e-05,-1.0493833076607435,-9.713587685421109,-0.8458246555559337,50,standing
1783066180119946500,5.2606265,-0.0604237813025712,-0.0097170918941497,0.0545901797782629,-0.0535205230116844,0.0158127378672361,0.0150006720796227,-1.0506357188746331,-9.71268810623288,-0.85455280947797,50,standing
1783066180139873500,5.2805535,-0.0314548764497041,0.0273871886193752,-0.1429027425467968,-0.0013766789343208,-0.0381167009472847,-0.0010641745757311,-1.0528192003935577,-9.711932903951404,-0.8604173175971954,50,standing
1783066180159799800,5.3004798,-0.1567830916002392,0.088901103246212,-0.0974082348287105,0.0475117675960063,-0.0157434828579425,-0.019254894927144,-1.0507922246105967,-9.712693951451778,-0.8542870712138712,50,standing
1783066180179726800,5.3204068,-0.1023915031339973,0.0271948809176683,-0.0547889902859926,0.0353753790259361,-0.0076099764555692,-0.0193409044295549,-1.0472740604218096,-9.713835522702336,-0.8455806907322257,50,standing
1783066180199652900,5.3403329,-0.0715903413526713,0.0611316373109817,0.0398549674611538,-0.0154112474992871,0.0117502454668283,0.0167460795491933,-1.0466516176745295,-9.71410498729348,-0.8432594081778079,50,standing
1783066180219580000,5.36026,-0.0274665374659001,0.0482224713772535,-0.0054565849054604,-0.0423327274620533,0.0137725975364446,0.020137196406722,-1.0512713133644311,-9.713017192056776,-0.8500215227238833,50,standing
1783066180239507000,5.380187,-0.1418112940482795,0.1826964082747697,-0.055896074745059,-0.0122651224955916,-0.0152531880885362,-0.0068253516219556,-1.0522967839546502,-9.712367203715443,-0.8561456316273659,50,standing
1783066180259432700,5.4001127,-0.0644904462195932,0.1153828674584627,-0.0456033018548041,-0.0119577292352914,0.0017959899269044,0.0011860011145472,-1.0516563671592625,-9.71224211603105,-0.8583576085884124,50,standing
1783066180279359700,5.4200397,-0.0054554158616811,0.0505284102320671,-0.0400789854753762,-0.0006029091309756,-0.021549068391323,0.0161527134478092,-1.053529832880944,-9.711881466025114,-0.8601408387433737,50,standing
1783066180299286000,5.439966,-0.0598773264009505,0.0581686958521604,-0.1060783749531954,0.0129668023437261,-0.0228839982300996,0.007543958723545,-1.0564192707121371,-9.71173884268403,-0.8581858322180808,50,standing
1783066180319212800,5.4598928,-0.1559868997212499,0.0104319621652364,-0.054860886478424,0.0163223333656787,-0.0112634561955928,-0.0216508042067289,-1.0560773984719067,-9.71203636432588,-0.8552351657189429,50,standing
1783066180339139000,5.479819,-0.1979683578170835,-0.0060895490467548,-0.0635135640114545,0.0268040671944618,-0.0033625541254878,-0.0291823931038379,-1.0506079540848732,-9.713022452753782,-0.8507719026997685,50,standing
1783066180359065900,5.4997459,0.0005618716664612,0.0281108267188072,-0.0279091666668653,0.0247346963733434,-0.0192792043089866,-0.0017122062854468,-1.0472769830312578,-9.713853642880917,-0.8453753774184734,50,standing
1783066180378991900,5.5196719,0.0343237829495221,0.0535275920480489,-0.019922332631424,-0.0127727296203374,0.0024495832622051,0.0085427593439817,-1.0488665903102603,-9.713833184614778,-0.8436360594704747,50,standing
1783066180398919000,5.539599,-0.1030154802512377,0.0932236426204442,0.0624234306871891,-0.0427200272679328,0.0210709907114505,0.0038861639332026,-1.0499423297829926,-9.713125913128255,-0.8504151251513511,50,standing
1783066180418846000,5.559526,-0.0591033463537693,0.1163812308460474,-0.0753841076124459,-0.0109340632334351,-0.0409104079008102,-0.008316483348608,-1.050160502578318,-9.712641929003595,-0.8556613552417606,50,standing
1783066180438772000,5.579452,-0.0838342483107,0.0553618217378854,-0.073588894758746,0.003706085961312,-0.0250965002924203,-0.0281557664275169,-1.0475756006516517,-9.712972183871267,-0.8550617088481783,50,standing
1783066180458699000,5.599379,-0.1132300002735108,-0.0148544547826051,-0.0550689762711524,0.0107885915786027,-0.0155604183673858,-0.0252050589770078,-1.041672952479124,-9.713834353658555,-0.8524832366622984,50,standing
1783066180478624800,5.6193048,-0.0037009734097868,0.0030628947019577,-0.0197042329013347,0.0083058718591928,0.0011018093209713,0.0027364771813154,-1.039272905600071,-9.714244103503226,-0.8507377812344581,50,standing
1783066180498551800,5.6392318,0.0487891653493046,0.1020756421178579,-0.0557552049696445,0.0160289984196424,-0.0112390620633959,0.0155332339927554,-1.0417845961600545,-9.714196757230162,-0.8482057785388082,50,standing
1783066180518477800,5.6591578,-0.1328092185556888,0.1361474230676889,-0.1025596993077546,0.0237117521464824,-0.0110237225890159,-0.0241704750806093,-1.0413972773429006,-9.714601246377825,-0.8440477090112865,50,standing
1783066180538404900,5.6790849,-0.2250228073507547,0.064965516385436,-0.0396370138615369,0.0173740815371274,-0.0241051651537418,-0.0460819490253925,-1.0346266872294247,-9.71569313326776,-0.8397829642388969,50,standing
1783066180558332000,5.699012,-0.0787043380763381,-0.0168424137294292,-0.0001128127247095,-0.0023766232188791,-0.0070445882156491,-0.0251402575522661,-1.0275666857153176,-9.716635382553935,-0.8375582739267498,50,standing
1783066180578258000,5.718938,-0.0125827104583382,0.0238800572812557,0.0393073435157537,-0.0149091444909572,0.0179727748036384,0.0080524431541562,-1.025603130557388,-9.716656425341965,-0.839718520700559,50,standing
1783066180598184700,5.7388647,-0.0089093557078391,0.122640875762701,-0.06339139893651,0.0198246147483587,-0.001376039115712,0.0080749336630105,-1.0282289490163323,-9.716356565612552,-0.8399713264178484,50,standing
1783066180618111000,5.758791,-0.1317457540426403,0.2085679316341877,-0.1540367155015468,0.0623476579785347,-0.0296218544244766,-0.0163136292248964,-1.028095604960248,-9.717139824944734,-0.8310278492446989,50,standing
1783066180638038000,5.778718,-0.1756146333202719,0.0932096140950918,-0.0226981540203094,0.0467411205172538,-0.0340828597545623,-0.0296164993196725,-1.0241795274950565,-9.718648475942016,-0.8181157607015221,50,standing
1783066180657965000,5.798645,-0.1566673562660813,-0.0773614721000194,0.125037415510416,-0.0264155250042676,0.00937364064157,-0.0272725671529769,-1.0190352964743972,-9.719412446051836,-0.8154652461927384,50,standing
1783066180677890800,5.8185708,-0.1045097373969852,-0.0148947867929935,0.1714542987704277,-0.0522721074521541,0.0136492401361465,-0.0119933523237705,-1.0149292493950577,-9.71903133777976,-0.8250712789278477,50,standing
1783066180697817900,5.8384979,0.0576068972509354,0.1129027410805225,-0.099648634166643,0.0153405163437128,-0.0434014797210693,0.0090566361322999,-1.01558654426001,-9.718588854709267,-0.8294507361210882,50,standing
1783066180717743900,5.8584239,-0.0102659579485654,0.2447667877405882,-0.1650017616301775,0.0663809180259704,-0.0698921009898185,-0.0048138205893337,-1.0178939444195478,-9.719221307393909,-0.819164758297801,50,standing
1783066180737671000,5.878351,-0.2092936886254698,0.1866027680635452,-0.003718728262186,0.0522216185927391,-0.0595978610217571,-0.0326901488006114,-1.0154900250829757,-9.72061363853514,-0.8055214328706264,50,standing
1783066180757597000,5.898277,-0.1737586301900446,0.0744493840456008,0.1325017600417137,0.0040627298876643,-0.0477541983127594,-0.0331949368119239,-1.00927611900419,-9.7218855581671,-0.7979402570266276,50,standing
1783066180777524000,5.918204,-0.0374685837812721,-0.0252384861528873,0.1609486868470907,-0.0473533682525157,-0.0041482402011752,0.0128732975572347,-1.0073012387346476,-9.721706109946966,-0.8025948048342019,50,standing
1783066180797450800,5.9381308,0.0405436073124408,0.0621469518333673,0.0429517644327133,-0.0273567344993352,-0.043519027531147,0.0332436449825763,-1.0125895544011143,-9.72050725555122,-0.8104430341165513,50,standing
1783066180817376800,5.9580568,-0.0986662720657885,0.1336702192991972,-0.1209632248740643,0.0217483937740325,-0.0645117089152336,0.0041547487489879,-1.0173306114483625,-9.720052497521042,-0.80993245424591,50,standing
1783066180837303800,5.9779838,-0.2352141656931489,0.0855780963033437,-0.0504898317873477,0.0168007742613554,-0.0459534786641597,-0.0163388084620237,-1.0168035918995737,-9.720593180269002,-0.8040904502194375,50,standing
1783066180857229800,5.9979098,-0.1870694357272237,-0.0661976885288953,0.0642635055959224,-0.0265503693372011,-0.0196976326406002,-0.0086010061204433,-1.0149695083402095,-9.720700147774815,-0.8051192087452859,50,standing
1783066180877156900,6.0178369,-0.0702940909970551,-0.0208364518016576,-0.049883755652979,-0.0208202973008155,-0.0336925499141216,-0.0078399712219834,-1.0142794802494346,-9.720423084399105,-0.80933565739654,50,standing
1783066180897083000,6.037763,-0.0606279986377805,0.0964314987510442,-0.0602280395347624,-0.001693837577477,-0.0350695066154003,-0.0153092630207538,-1.013321083546057,-9.720375153604149,-0.8111116540931165,50,standing
1783066180917010000,6.05769,-0.053499900323525,0.146499890255928,-0.1093458523165434,0.0076445844024419,-0.0190291311591863,-0.0100973285734653,-1.0117700547117738,-9.72076210709512,-0.8083815715420991,50,standing
1783066180936937000,6.077617,-0.0832689425781369,0.1331353817701339,0.0160072050143033,-0.0107856998220086,-0.0229664556682109,0.0117041273042559,-1.0123771537594497,-9.720714760822055,-0.8081888985142112,50,standing
1783066180956863000,6.097543,-0.0238752349756658,0.1055249057888984,-0.0153091397475451,-0.0146651752293109,-0.0283757634460926,0.0154792964458465,-1.0156567599520088,-9.720189275643229,-0.8103914500597864,50,standing
1783066180976790000,6.11747,-0.0999179526273161,0.1001379520535469,-0.0306575885921716,-0.0165356360375881,0.0025697965174913,0.0053016757592558,-1.0178750935886054,-9.71974094735384,-0.8129992944706231,50,standing
1783066180996715800,6.1373958,-0.1063243856035172,0.0639829350888729,0.0106353027176111,-0.0061923721805214,0.0076999608427286,0.0161195155233144,-1.0196984365582469,-9.719350486731528,-0.8153863357376306,50,standing
1783066181016642800,6.1573228,-0.0228937496576458,0.0750350749790668,-0.1078021300058811,0.0100743575021624,-0.0219146143645048,0.0177879780530929,-1.0235221595648676,-9.719028415170312,-0.8144138374436646,50,standing
1783066181036568800,6.1772488,-0.1189056347571313,0.0962783540159463,-0.0470008206278085,0.0038986555300652,-0.0325295478105545,-0.0055295168422162,-1.0250738459862767,-9.719023738995194,-0.8125176484335214,50,standing
1783066181056495900,6.1971759,-0.137347300376743,0.037887539845705,0.0358043768960982,-0.034902200102806,0.0257808975875377,0.006766989827156,-1.0247378920301795,-9.718840783643724,-0.8151170172769576,50,standing
1783066181076423000,6.217103,-0.012161562436819,-0.0390057302206754,0.0335433731615543,-0.0577856488525867,0.0197891574352979,0.0231401324272155,-1.0275206546165048,-9.717665310123564,-0.8255753559924661,50,standing
1783066181096348700,6.2370287,0.0336741599343717,0.0486351438313722,-0.027059271839261,-0.0602445937693119,0.0149190407246351,0.0359275676310062,-1.0337025581218302,-9.71597253473103,-0.837696294157952,50,standing
1783066181116275700,6.2569557,-0.0318882994309067,0.1189648175984621,-0.056725438241288,-0.0416332818567752,0.0121356081217527,0.0307235121726989,-1.0399655640393497,-9.714475574171544,-0.8472351799409836,50,standing
1783066181136202000,6.276882,-0.1252385641057044,0.063635729086399,0.0756674545984715,-0.0447431355714798,-0.0238104127347469,0.0038272957317531,-1.0434311212580651,-9.713466689389945,-0.8545311821680516,50,standing
1783066181156128800,6.2968088,-0.0912152984727174,0.0115168347924947,0.0252197814524173,-0.0476645864546299,0.0783363580703735,0.0256262887269258,-1.0457314340896904,-9.71237304893434,-0.8640878958687186,50,standing
1783066181176056300,6.3167363,-0.1108984155207872,0.0487672457784414,0.0672942515939474,-0.0509499460458755,0.0203326568007469,0.0238751787692308,-1.0483439546756446,-9.711016958150267,-0.8760859383068978,50,standing
1783066181195982300,6.3366623,-0.0742103876579552,-0.0728945558190345,-0.1281897420614957,-0.0277516320347785,0.0348072610795497,0.0324308350682258,-1.0582468514654784,-9.709065239560603,-0.8857543687537311,50,standing
1783066181215909000,6.356589,-0.1497894333206117,0.2935235121250152,-0.2294564789492637,0.0281761270016431,-0.0306692756712436,0.0095173325389623,-1.0619761741869151,-9.708573072129488,-0.8866905536253005,50,standing
1783066181235835400,6.3765154,-0.214278491300717,0.0699830522865057,-0.0168715667586773,0.0291187427937984,0.0371745899319648,-0.0028500359039753,-1.061980631166324,-9.709187989157437,-0.8799065925735979,50,standing
1783066181255762400,6.3964424,-0.1644238156117498,0.01413666190207,0.0799590143125504,-0.0017777276225388,0.0352814048528671,-0.0019280071137472,-1.0605098279614,-9.709457453748584,-0.8787250546388328,50,standing
1783066181275688400,6.4163684,-0.0188858291905373,0.0447124174296855,-0.0511194349277764,0.0114078260958194,-0.005017920397222,-0.0016438795719295,-1.060300496059656,-9.709507138109206,-0.8784294326931238,50,standing
1783066181295615200,6.4362952,-0.0036292233478277,0.0887199014604091,-0.0356330389171838,0.0258056782186031,-0.0053991777822375,0.0022636419162154,-1.060593195395917,-9.70981868827641,-0.8746119932968169,50,standing
1783066181315542300,6.4562223,-0.031407018719986,0.0892547389894723,-0.0095726419221609,0.0157590005546808,-0.0041313990950584,0.01614854298532,-1.0625932101067157,-9.710053666076064,-0.8695481340359896,50,standing
1783066181335468300,6.4761483,-0.1052934351205825,0.0233434661865234,0.0832727419704198,-0.0135017856955528,0.0280723888427019,0.0137100424617528,-1.0659200895071028,-9.70968483276367,-0.8696179844018072,50,standing
1783066181355395300,6.4960753,-0.0618136282257735,0.071030515512824,-0.009617723172903,0.0198060050606727,-0.0227801408618688,0.0130596458911895,-1.0685486844450234,-9.709337626761195,-0.8702515330649911,50,standing
1783066181375321300,6.5160013,-0.0380874463319778,0.0931646059095859,-0.1156926640599965,0.0316288210451602,-0.0090963402763009,-0.0051229163073003,-1.070278284716606,-9.709774264612792,-0.8632364666711538,50,standing
1783066181395248400,6.5359284,-0.1357750826239585,0.0766121150374412,0.1033504843592643,-0.0002124372404068,0.0214194487780332,-0.0010645744623616,-1.0691070489801466,-9.710131407487392,-0.8606666161831468,50,standing
1783066181415175200,6.5558552,0.0688730452179908,0.0597504120856523,0.040779681090638,-0.0349360667169094,0.0076493537053465,0.0319708138704299,-1.0723428890962152,-9.709431734785436,-0.8645346167229115,50,standing
1783066181435101200,6.5757812,0.0228669347159564,0.0898445215761661,0.0247510679621249,-0.0378103703260421,-0.0081405844539403,0.0290669687092304,-1.0793080519337206,-9.707950556316971,-0.8724481663264334,50,standing
1783066181455028200,6.5957082,-0.1317153589043766,0.0884872617483139,-0.0815927529942244,0.0094396285712718,-0.0114420522004365,0.0018689462449401,-1.082444231067598,-9.707341484507918,-0.8753394307885318,50,standing
1783066181474954200,6.6156342,-0.0865560014247894,0.0776636699169874,-0.1106809003125876,0.0297772921621799,0.0104711828753352,0.0088043622672557,-1.0830113634310663,-9.707740712958572,-0.8701938115283846,50,standing
1783066181494881300,6.6355613,-0.0551058742154389,-0.016740122398734,-0.0249825386304408,0.0091792196035385,0.0316842719912529,0.021366873756051,-1.085881219778955,-9.707760002180931,-0.866408666966483,50,standing
1783066181514807300,6.6554873,-0.0180551505200564,0.024056582891941,0.0381962404686957,-0.0166101921349763,0.0111093483865261,0.0305233187973499,-1.0900109399948268,-9.707105337664483,-0.8685348653402178,50,standing
1783066181534734300,6.6754143,-0.0415687856417149,0.0432201330453157,-0.081368369653821,-0.0069284504279494,-0.0204598866403102,-0.0076111392118036,-1.093582076479867,-9.70651730864346,-0.8706258462700992,50,standing
1783066181554661400,6.6953414,-0.1442234697565436,0.1226654256820678,-0.0117968207776546,-0.0358550772070884,0.0393148139119148,-0.0119020352140069,-1.090586182599515,-9.706505033683776,-0.8745067793566733,50,standing
1783066181574587400,6.7152674,0.0029491321291774,0.0535720157116651,0.0436526792436838,-0.0486564040184021,0.0451155044138431,0.0322485826909542,-1.0914133541386577,-9.705497317945955,-0.8846160854388028,50,standing
1783066181594514400,6.7351944,0.0882858208920806,0.1111176112294197,-0.0802402424067258,-0.0111086443066596,0.0366787128150463,0.0493363067507743,-1.099536820165813,-9.703935475456714,-0.8916559940129518,50,standing
1783066181614440200,6.7551202,-0.1287644001442938,0.2053776111602783,-0.1111462528020143,0.0616266429424285,0.018509566783905,0.0083085000514984,-1.1043993116356432,-9.70377414741516,-0.8873854770869016,50,standing
1783066181634367200,6.7750472,-0.1492919321272522,0.1063566804379224,-0.1660661029260605,0.0636438876390457,0.0267137475311756,0.0031322652939707,-1.1051198809951543,-9.704860189086196,-0.874513939749822,50,standing
1783066181654294300,6.7949743,-0.075392802375555,0.0367757792115211,0.02827332380414,-0.0061929821968078,0.0404521487653255,0.0140070803463459,-1.1062952814500775,-9.705160633337496,-0.8696854966800659,50,standing
1783066181674220300,6.8149003,-0.0715560737568885,-0.017148703199625,0.1215612638324499,-0.0522575117647647,0.0442141778767108,0.0276897512376308,-1.1095336057841778,-9.704058809575438,-0.8778298593647778,50,standing
1783066181694147300,6.8348273,0.01164689091295,0.0332633871763944,-0.0472949082035571,0.0096805235370993,-0.0015629468252882,0.0200591143220663,-1.1144760306224226,-9.702996148779988,-0.8833016418393701,50,standing
1783066181714073000,6.854753,-0.1066103629380464,0.0823322462499141,-0.1226508857000619,0.0669020935893058,0.0060918279923498,-0.0169053059071302,-1.1153306016251443,-9.703732061839103,-0.8740854121394455,50,standing
1783066181734000000,6.87468,-0.1659897497542202,0.0218733936339616,-0.0125479314059019,0.0480378866195678,0.0341339036822319,-0.0216743983328342,-1.1102695188432932,-9.705371645739676,-0.8622331348475069,50,standing
1783066181753926400,6.8946064,0.1053079020373523,0.0821492908984422,0.0317974062770605,0.0106473471969366,0.0088588520884513,0.0360503196716308,-1.1107230347644537,-9.705792501500248,-0.8568990072779357,50,standing
1783066181773853200,6.9145332,0.1856152913961559,0.1829933453947305,0.0854383955717086,-0.0361310765147209,-0.0025749462656676,0.0499547459185123,-1.11995234314166,-9.704434072628615,-0.8602624192964285,50,standing
1783066181793780200,6.9344602,-0.0593570288538932,0.2146948900818824,0.0915840587198734,-0.0534612797200679,0.0076940953731536,0.0336608551442623,-1.1280172108493745,-9.70276643167734,-0.8685022051796316,50,standing
1783066181813706500,6.9543865,-0.1296520696990191,0.051388241931796,0.0763390702497214,-0.051457904279232,0.0267824623733758,0.0340703651309013,-1.1338881487093866,-9.70106956463158,-0.8797430725749582,50,standing
1783066181833633300,6.9743133,-0.0570058626178652,-0.0465717815607786,-0.1123713376175612,-0.0139062944799661,0.0124607263132929,0.0399662405252456,-1.1409925008218735,-9.699624041998383,-0.8864595213484019,50,standing
1783066181853559300,6.9942393,-0.1634364120095968,-0.0219154792100191,-0.1041659654606133,-0.003140514018014,0.0085840709507465,0.003259232500568,-1.145444073403254,-9.698993342879414,-0.887632364520058,50,standing
1783066181873486300,7.0141663,-0.2553183576975018,-0.0083200845777988,-0.0319500395555049,-0.015631515532732,0.0461387895047664,-0.0132175106555223,-1.1428954848989843,-9.699121353173256,-0.889518762788549,50,standing
1783066181893413400,7.0340934,-0.051925417548418,0.0096218148261308,0.0207838448315858,-0.0208126213401556,0.0175496526062488,0.0132775027304887,-1.1429307754080742,-9.698656658270954,-0.8945179593153297,50,standing
1783066181913339400,7.0540194,0.0113413320951163,0.101560678333044,-0.111019996073842,0.011077762581408,0.0085250008851289,0.0053192307241261,-1.1451455288480967,-9.698269120258091,-0.8958916588213294,50,standing
1783066181933266400,7.0739464,-0.1131247863333672,0.1313479138314724,-0.0344195714741945,0.0123974112793803,0.0262193065136671,0.0045450464822351,-1.145327242090553,-9.698427525690198,-0.8939319761209189,50,standing
1783066181953192200,7.0938722,-0.0426631567496806,0.0485971499085426,0.0511368244539946,0.0033944703172892,0.0125885549932718,0.018553789705038,-1.1480032563667744,-9.698128835004567,-0.8937456597685813,50,standing
1783066181973119200,7.1137992,-0.0531941223099827,0.0729763888835906,-0.0460088869810104,0.015894815325737,0.0181681457906961,-0.0097766509279608,-1.1492938806992024,-9.698115975522994,-0.8922185232665389,50,standing
1783066181993045200,7.1337252,-0.2297526854168623,0.0854664526224136,0.1555425169546157,0.0338709838688373,0.0014011496677994,-0.0333168096840381,-1.1443690645828843,-9.699082774728536,-0.8880186604239046,50,standing
1783066182012972300,7.1536523,0.0006895166341215,-0.0155161335617303,-0.1498591375559568,0.0463778413832187,0.0153125431388616,-0.0004812818369828,-1.1415265346333383,-9.700154203352332,-0.8799467053882777,50,standing
1783066182032899300,7.1735793,0.0884750598538667,0.2012982328921556,0.0073076195996254,0.0466291718184948,-0.0559890121221542,0.015191463753581,-1.14371951463297,-9.700743401417135,-0.8705672479506581,50,standing
1783066182052825000,7.193505,-0.0044060529392212,0.1629775623261928,0.0845341402083635,-0.008460808545351,-0.0292975325137376,0.0103557053953409,-1.1472052378568798,-9.700878425973654,-0.8644451848737895,50,standing
1783066182072752000,7.213432,-0.1544408393230289,0.0550309823483228,0.2136012496262788,-0.0683502182364463,-0.011169291101396,0.0086140306666493,-1.1498002958513796,-9.699773095080255,-0.8733536637987941,50,standing
1783066182092678400,7.2333584,-0.1666425145745277,0.0005050269126892,0.0413520010858774,-0.0340899340808391,-0.0358015075325965,-0.0086953230202198,-1.149869050238654,-9.69881740179062,-0.8838117102533578,50,standing
1783066182112605400,7.2532854,-0.1270811962977051,0.0321299992322921,-0.048653775466606,0.0321410186588764,-0.045593999326229,-0.0083149597048759,-1.148579156558588,-9.69901789279878,-0.8832895860753953,50,standing
1783066182132532500,7.2732125,-0.0591910246372222,0.0932546222805976,-0.1000514428138732,0.0409020669758319,-0.0570560880005359,0.001576414797455,-1.1486834206506609,-9.69983914605379,-0.8740895037926733,50,standing
1783066182152458200,7.2931382,-0.1270615417491644,0.0581833088994026,-0.0408475586950779,-0.017155434936285,-0.0394872575998306,-0.0209884494543075,-1.147551420946047,-9.70038158236742,-0.8695474764488637,50,standing
1783066182172384800,7.3130648,-0.207697797736153,0.0075870941281318,0.1406090786516666,-0.0349990166723728,-0.05270666629076,-0.0310271102935075,-1.1430809244684874,-9.700362877666947,-0.8756287691239267,50,standing
1783066182192310800,7.3329908,0.0228432615794241,0.0167582425773143,-0.0801976453740149,0.0156500246375799,-0.0571570768952369,-0.0104250591248273,-1.139888192841783,-9.700706576538083,-0.8759870079770684,50,standing
1783066182212237800,7.3529178,0.0804214441925287,0.0651256753832101,-0.0116559510022401,-0.0045092832297086,0.0015810729237273,0.0205205027014017,-1.1412021249845623,-9.700739894285798,-0.8738992419175803,50,standing
1783066182232164900,7.3728449,0.0264558260533958,0.1114373447030782,-0.0389846143674105,-0.0295933317393064,-0.0425166152417659,0.0112513694912195,-1.1457453213721511,-9.69991513389945,-0.8770967227846383,50,standing
1783066182252090600,7.3927706,-0.1277571958631277,0.1173416003108024,0.0458908135592937,-0.0307821426540613,-0.0404699184000492,-0.00851771235466,-1.1459582334704697,-9.699385557067394,-0.8826640745881944,50,standing
1783066182272017700,7.4126977,-0.0275069425415247,0.0626215836077928,-1.87047004699e-05,-0.0081795789301395,-0.035912562161684,0.0028115033637732,-1.146101076007262,-9.69913362813294,-0.8852373591423034,50,standing
1783066182291943700,7.4326237,-0.019420155262947,0.0497416437685489,-0.0057183776468038,-0.0231248997151851,-0.011630923487246,0.000587124552112,-1.147004966044426,-9.698823247009516,-0.8874681869342923,50,standing
1783066182311870700,7.4525507,-0.0105906598582863,0.0698790073901414,0.0169184746403247,-0.0309254433959722,-0.0184078160673379,0.0154152223840355,-1.1485023649953303,-9.69816039918661,-0.8927472233157604,50,standing
1783066182331796700,7.4724767,0.0841927063595503,0.1285135671883821,-0.0326941359210759,-0.0045565655454993,-0.0698689818382263,0.0235975384712219,-1.1536528065610676,-9.697240361732243,-0.8961065436810255,50,standing
1783066182351723800,7.4924038,-0.0341091172855347,0.0960983212739229,-0.0851000304628163,0.0313358232378959,-0.0768188163638114,-0.0007266976172104,-1.1576046859920024,-9.697297060355544,-0.8903876545775681,50,standing
1783066182371650800,7.5123308,-0.1705995085719972,0.0205360075503587,0.0669225687373429,-0.025211801752448,-0.0121773481369018,-0.0132525898516178,-1.1571349495884031,-9.697599258172511,-0.8876852637510746,50,standing
1783066182391576800,7.5322568,-0.143091689247638,-0.0711269616246223,0.1293411771189421,-0.072252906858921,-0.0137451998889446,-0.0178329516202211,-1.1539671332072463,-9.697067343252897,-0.8975801964301615,50,standing
1783066182411503900,7.5521839,0.024195552971214,0.0061900868117809,-0.0262988088607788,-0.0442190021276474,-0.065903753042221,-0.0144277773797512,-1.1518643887743354,-9.696272393482923,-0.9087866500992328,50,standing
1783066182431430000,7.57211,-0.0008610007435083,0.098431148135662,-0.062829600335285,-0.0098149282857775,-0.0255390107631683,-0.0212879218161106,-1.149402894031629,-9.69618588424325,-0.9128077953740954,50,standing
1783066182451356700,7.5920367,-0.0863832021411508,0.1138672021985054,-0.0536520952105522,0.0013101353542879,0.0004360743332654,-0.0193199403584003,-1.145134203736484,-9.696659346973895,-0.9131564626812936,50,standing
1783066182471283700,7.6119637,-0.0291630391854792,0.065758128067851,-0.0782831900548189,0.0057838587090373,0.0014237351715564,0.0006712586618959,-1.1435470076102765,-9.696882049813864,-0.9127668788418172,50,standing
1783066182491209700,7.6318897,-0.012791603968665,0.163639241105318,-0.1228354484867304,0.0263917874544858,-0.0182496774941682,0.0121351238340139,-1.1449540979292243,-9.697050392118095,-0.9092149585139006,50,standing
1783066182511136800,7.6518168,-0.0377481313750147,0.1441097802489996,-0.036481837766245,0.0329111330211162,-0.022617308422923,0.0008962177671492,-1.147232345059514,-9.697424486127495,-0.9023447074182332,50,standing
1783066182531062800,7.6717428,-0.1805932985156774,0.0074801266223192,-0.0006628478229045,-0.0318951457738876,0.0395125374197959,-0.0256654396653175,-1.1447466657236218,-9.697712070897222,-0.9023999447368084,50,standing
1783066182550989800,7.6916698,-0.1952223470445722,-0.0508078116953372,0.146382401356101,-0.0616542547941207,0.0510194636881351,-0.0260455086827278,-1.1383478315319866,-9.697333885234594,-0.9144723675854504,50,standing
1783066182570915600,7.7115956,-0.002712985285744,-0.0247135854959487,-0.0152852474153041,0.0007847445085644,0.0138649083673954,-0.0221219304949045,-1.1339343259386718,-9.697091893172264,-0.922493323086202,50,standing
1783066182590842600,7.7315226,-0.0760015819236636,0.1135240878492593,-0.1255704994738102,0.0577562674880027,-0.0126272654160857,-0.0471201986074447,-1.1269351147010922,-9.698560796681043,-0.9156082397475838,50,standing
1783066182610769700,7.7514497,-0.1598385336481034,0.0645230333149433,-0.0015898995399475,0.0059972768649458,0.0120508158579468,-0.030979560688138,-1.1189647203437982,-9.70013725221753,-0.9086555710654706,50,standing
1783066182630696000,7.771376,-0.053202890138328,0.0298842661321163,0.066025327636674,-0.0565019845962524,0.0167089980095624,0.0081476997584104,-1.116513966190815,-9.69991513389945,-0.9140215550780296,50,standing
1783066182650622700,7.7913027,0.0760110073391348,0.1310387017518282,-0.0469487981796264,-0.035499058663845,0.002951271366328,0.0349458307027816,-1.1224266243007033,-9.698268535736204,-0.9241993232864886,50,standing
1783066182670548700,7.8112287,-0.1102352754369378,0.2181055753082036,-0.1256413727529347,0.0208537653088569,-0.0174429528415203,0.0156692340970039,-1.12726778072156,-9.697648942533135,-0.9248148248363286,50,standing
1783066182690475800,7.8311558,-0.1368598821859806,0.1211164426743984,-0.0223801010470837,0.0439188703894615,0.0212852694094181,0.0163563303649425,-1.1302710541907697,-9.697921914255618,-0.9182420953825116,50,standing
1783066182710402800,7.8510828,-0.1031459747631102,0.0680441931784153,-0.0382533774834126,0.0047357114963233,0.0794590935111045,0.0133358780294656,-1.133010123765841,-9.697971014094351,-0.9143397541817276,50,standing
1783066182730328800,7.8710088,-0.1550469885226339,0.1015367129355669,0.0465104067623615,1.7725396901e-06,0.0046560121700167,0.0052955187857151,-1.1328837209071962,-9.697796242049336,-0.9163535051569344,50,standing
1783066182750255900,7.8909359,0.0234576671507209,0.018901684346795,0.0370066653579473,0.0058610900305211,0.0293723288923501,0.0416367389261722,-1.1378089754149316,-9.697312257924676,-0.9153791071668268,50,standing
1783066182770181600,7.9108616,-0.1091048831675201,0.0204191031724214,-0.0359727192003279,0.0032302131876349,0.0294551607221364,0.0303816720843315,-1.1448580902088432,-9.696436644133923,-0.9158725167069584,50,standing
1783066182790108700,7.9307887,-0.1986705878023058,0.0770411541044712,0.0053408495713025,0.014553528279066,-0.0044402824714779,-0.0042717829346656,-1.146571469997987,-9.696344289675354,-0.9146887137498706,50,standing
1783066182810034700,7.9507147,-0.1295673140250146,0.004891863694787,-0.021861045609042,0.0036277396138757,-0.0017483592964708,-0.0017936567310243,-1.146242530304566,-9.696619599485397,-0.912176511733234,50,standing
1783066182829961700,7.9706417,-0.1180015985894948,0.0291799172550439,0.0372510685730725,-0.0113952010869979,0.0285955369472503,0.0152379302307963,-1.1471843411993234,-9.696367086029053,-0.913678586859256,50,standing
1783066182849888800,7.9905688,-0.0519227871999144,0.0762993958264589,0.0314502002745866,-0.0161277595907449,0.0308076702058315,0.0110210580751299,-1.1493676765877754,-9.695752753522992,-0.9174545252013953,50,standing
1783066182869814800,8.0104948,-0.1446865572236478,0.0735492203354835,-0.0923747707061469,-0.0131876524537801,-0.0109981037676334,-0.0053966892883181,-1.1496782769069074,-9.695395610648394,-0.9208216635469346,50,standing
1783066182889741600,8.0304216,-0.1232242286086082,0.0163818104803562,-0.1568143635213375,-0.003988416865468,-0.0320705212652683,-0.0081885028630495,-1.1494432991072534,-9.695390934473275,-0.9211747147683054,50,standing
1783066182909667800,8.0503478,-0.1504692322783172,-0.0059153615236282,-0.0616710779499262,-0.0004412319976836,-0.0927577316761016,-0.0187068376690149,-1.1471882136568423,-9.695688456115128,-0.9208490630105136,50,standing
1783066182929595000,8.070275,-0.1035485642146319,0.0140332015275955,-0.1435586491722613,0.0326426848769187,-0.0611726455390453,0.0060602934099733,-1.1475715138860043,-9.69618588424325,-0.9151276896890252,50,standing
