time,seconds_elapsed,acc_x,acc_y,acc_z,gyr_x,gyr_y,gyr_z,grav_x,grav_y,grav_z,fs_hz,activity
1783066281142144500,0.0,-0.006228592191264,-0.0173322430729866,0.0308968041755259,-0.0186501815915107,-0.0055819787085056,-0.0161655265837907,-0.8332382918357849,-9.726319156700372,-0.9353064812995492,50,standing
1783066281162069500,0.019925,0.0499308096650987,0.0519996518284082,0.00453179821074,-0.0116475168615579,-0.0093396920710802,0.0102266557514667,-0.8329844632051885,-9.726070734897256,-0.9381203696765004,50,standing
1783066281181995500,0.039851,-0.0705094873134046,0.15080430945158,-0.0263707050532102,-0.007643015589565,-0.0208667404949665,0.0119258826598525,-0.8364439560092986,-9.725665661227705,-0.9392406789433212,50,standing
1783066281201921500,0.059777,-0.1474989842958748,0.1120674593001604,-0.0076297642260789,-0.0145106175914406,-0.0112483063712716,0.0014908437151461,-0.8383136954039335,-9.725385675242542,-0.9404741662610322,50,standing
1783066281221846500,0.079702,-0.1054210800882428,-0.0010416180074214,-0.071134487343952,-0.0380718559026718,-0.0075217271223664,0.0004017163300886,-0.8383431406941264,-9.724953129044174,-0.9449050613805652,50,standing
1783066281241772500,0.099628,-0.057428983400762,0.0649871436953544,-0.0952027606736868,-0.0395436771214008,-0.0063362484797835,0.0132016418501734,-0.8396483050085604,-9.724093881866334,-0.9525601061783732,50,standing
1783066281261698600,0.1195541,-0.0474679266829043,0.1446697522193193,-0.0663132777325809,-0.0140263307839632,-0.0029337937012314,0.0163646787405014,-0.8430253071609884,-9.723270875045657,-0.9579560469377786,50,standing
1783066281281627100,0.1394826,-0.0446540383059531,0.2340326277583837,0.010028057539463,0.0141763957217335,0.0270826872438192,0.0224920902401208,-0.8464377459529787,-9.7230019949764,-0.9576825637586416,50,standing
1783066281301553000,0.1594085,-0.1135107169110327,0.106805008727312,-0.0963788917809724,0.0057397056370973,0.0305692255496978,0.022444263100624,-0.8506043641131371,-9.72281670153737,-0.9558726647924632,50,standing
1783066281321479200,0.1793347,-0.1643797572743147,0.0134358201563358,-0.0725420160543173,-0.0160518754273653,0.0110485209152102,-0.0012762459227815,-0.8524076141428202,-9.72252151798308,-0.9572638268899172,50,standing
1783066281341404200,0.1992597,-0.07638364004381,0.006223404559493,-0.0074637600094079,-0.0196691695600748,0.0310603808611631,0.016731547191739,-0.8531653006423264,-9.722043379077316,-0.9614397974003106,50,standing
1783066281361330000,0.2191855,0.0982730349645018,0.0917559081554412,-0.047964112702012,0.0052026873454451,-0.0136446990072727,0.0684734582901001,-0.8611256119970232,-9.721085347700118,-0.9640349284600466,50,standing
1783066281381256200,0.2391117,0.086685838349536,0.0987964743167161,-0.0352414092510938,0.0553777702152729,-0.0523512959480285,0.0866609066724777,-0.8775205011546612,-9.720195120862126,-0.958202276783809,50,standing
1783066281401181000,0.2590365,-0.2046945973321795,0.0187882871001958,0.0495849919021129,-0.0004684990271925,0.0438710749149322,0.0559633672237396,-0.8916999792851508,-9.719494863638282,-0.9521989447157828,50,standing
1783066281421107000,0.2789625,-0.3612615619637072,0.1334048463612794,0.0604179360836744,-0.0426686108112335,0.0351459644734859,-0.0191940087825059,-0.8935993831656873,-9.718740830400586,-0.9580943594299256,50,standing
1783066281441033200,0.2988887,-0.1854372314155101,-0.100620767134428,-0.0482118769180029,-0.0421074442565441,0.0184236131608486,-0.0209540762007236,-0.8898585892021655,-9.717999656644462,-0.9690244073104112,50,standing
1783066281460958000,0.3188135,-0.0786095724649727,-0.0148205525130033,-0.1051484736919403,-0.016477346420288,-0.024794990196824,-0.0179674364626407,-0.8868521739277988,-9.717758833625911,-0.9741874891620128,50,standing
1783066281480884000,0.3387395,-0.1643301459789276,0.0791325734257698,0.093500121474266,-0.0017117327079176,0.0169923864305019,-0.0270824786275625,-0.8825344568591564,-9.718038819611072,-0.9753147396262736,50,standing
1783066281500809200,0.3586647,-0.0976789415288716,0.1983218474298715,0.0228859316773712,0.0001181098632514,0.0105589693412184,-0.0147492177784442,-0.8773594653740525,-9.71841466718614,-0.9762267399046568,50,standing
1783066281520735000,0.3785905,0.01891797789447,0.1511854177236556,-0.0866523744713515,0.0172890685498714,-0.0238979756832122,0.0159266535192728,-0.8775384021375328,-9.7185643047899,-0.974577803653851,50,standing
1783066281540661000,0.3985165,-0.0742966777019202,0.0894990691393613,-0.0490257505841553,0.0259499251842498,-0.026988461613655,0.0223799925297498,-0.8824863068684935,-9.718680040124058,-0.968958794728294,50,standing
1783066281560586000,0.4184415,-0.2786968221321702,0.0117547352015972,0.0362216524600982,-0.0077159306965768,0.0169061254709959,-0.0070000169798731,-0.8845859094962477,-9.718746091097591,-0.9663689974308012,50,standing
1783066281580512000,0.4383675,-0.2230534069739282,0.0485235001504421,0.0384415204666554,-0.0324964597821235,0.0331484079360961,-0.018984006717801,-0.8809729796960949,-9.718555536961556,-0.971582348164916,50,standing
1783066281600438000,0.4582935,-0.0841135036434978,-0.0386626158714294,-0.1292808982990682,-0.0269354786723852,0.0176072809845209,-0.0116291735321283,-0.8767095500979571,-9.718306530636548,-0.9778875857889652,50,standing
1783066281620363000,0.4782185,-0.0693612671263515,0.1231938334703445,-0.0761037271238863,0.0079517783597111,0.0078715784475207,0.0069578015245497,-0.8761988240968436,-9.718107793194054,-0.9803376823548228,50,standing
1783066281640289000,0.4981445,-0.1163656679507344,0.0946177273273468,-0.0677577774524688,0.0251066517084836,0.0174123235046863,0.0155880860984325,-0.878874180785939,-9.718260937929152,-0.976413567713648,50,standing
1783066281660215000,0.5180705,-0.1945573072645813,0.1123293251067399,0.0125584527999162,0.023561917245388,0.0125582050532102,-0.0034262561239302,-0.8801399629380553,-9.718614573672411,-0.971735200639069,50,standing
1783066281680140000,0.5379955,-0.1296733316827565,0.0724392132669687,0.0076040452629327,0.0291804186999797,0.0159801375120878,0.0032363850623369,-0.8797818702153861,-9.71912661484778,-0.9669304307058452,50,standing
1783066281700066000,0.5579215,-0.0522010196194052,0.0616232202202081,-0.0445142645090818,0.0287007130682468,-0.0016770915826782,0.0285114217549562,-0.8828844393406062,-9.71938380447924,-0.9614993455678223,50,standing
1783066281719992000,0.5778475,-0.0860933523491025,0.1266705696702003,0.006260813960433,0.0178955234587192,-0.0074288011528551,0.0403333157300949,-0.8899927369758486,-9.719189158689977,-0.9569083645157516,50,standing
1783066281739917000,0.5977725,-0.2468229165527969,0.0263829800128936,0.0237887257359921,-0.0181492939591407,-0.0137841682881116,0.00614551641047,-0.8956601881530135,-9.718711019784212,-0.9564800561010836,50,standing
1783066281759843000,0.6176985,-0.3029131986957043,-0.0309404971867799,0.1206622691661119,-0.0481752455234527,0.0048277229070663,-0.0397105738520622,-0.8922423425335436,-9.718398300573227,-0.9628229953870177,50,standing
1783066281779769000,0.6376245,-0.1180281212702393,-0.0299824658095836,0.008129530441761,-0.0418804697692394,-0.0129613829776644,-0.0204414241015911,-0.8857407786197959,-9.718009593516587,-0.9726933781467376,50,standing
1783066281799694000,0.6575495,0.0542099482890218,0.0622550883829593,-0.1544096404671669,0.0041740243323147,-0.0543388724327087,0.024496691301465,-0.8872424153544008,-9.717621470981836,-0.97520470338054,50,standing
1783066281819620000,0.6774755,-0.1421125420171767,0.0788210232585668,-0.103700759101659,0.0108153447508811,-0.025354828685522,0.0237699560821056,-0.8942776477534323,-9.71727952567637,-0.9721934658005832,50,standing
1783066281839546000,0.6974015,-0.3019986411340534,0.1409516084790229,-0.0241198573864996,-0.0229106359183788,0.0042522139847278,-0.0174782406538724,-0.895102335074544,-9.717160283210871,-0.9726161481920628,50,standing
1783066281859471000,0.7173265,-0.1307687987692654,0.1355827749222516,0.0013736264407634,-0.0570093654096126,0.0201267767697572,-0.0226572789251804,-0.8899092964760958,-9.716728906056284,-0.981649568670988,50,standing
1783066281879397000,0.7372525,0.0784784203659743,0.1250450142949819,-0.1201893178921192,-0.027337035164237,-0.0101952673867344,0.0181460808962583,-0.8895143058091401,-9.71576736754775,-0.9914683673739432,50,standing
1783066281899323000,0.7571785,-0.0006372019249945,0.0621744243621826,-0.1954945150494575,0.0293735601007938,-0.0419134721159935,0.0253346879035234,-0.8956920445960015,-9.715296242904662,-0.990532913154736,50,standing
1783066281919248100,0.7771036,-0.2631631529137492,-0.0123901104956865,-0.0273123698174953,0.0320472940802574,-0.0111918468028306,-0.02408242598176,-0.8972765373084693,-9.715849785134196,-0.9836392811834812,50,standing
1783066281939174100,0.7970296,-0.2904617134016007,0.0235480488479137,0.008618190741539,0.0062400642782449,0.0093885399401187,-0.0653309449553489,-0.8882338375445454,-9.71707202040553,-0.979765946881473,50,standing
1783066281959100000,0.8169555,-0.0603914134029298,-0.0139998837798833,-0.0106868137091398,-0.0186587274074554,0.0216990280896425,-0.0304735358804464,-0.8773875954899937,-9.717831314340232,-0.9820090496331452,50,standing
1783066281979025200,0.8368807,0.0396533074092119,0.033506548282504,-0.1411485192906111,-0.0232608187943696,-0.0133772296831011,0.0071063754148781,-0.8758280910883098,-9.717453128677606,-0.9871189399927854,50,standing
1783066281998951200,0.8568067,-0.1698973516520112,0.1395925950855016,0.0023206249672919,-0.0197216272354125,0.0044694039970636,-0.009975928813219,-0.8766678298480808,-9.71684756399989,-0.9923226461157202,50,standing
1783066282018877000,0.8767325,-0.170944961008802,0.2852244703352451,-0.0345909825183451,0.0083555486053228,-0.0028585502877831,-0.0372661389410495,-0.871879645723477,-9.71718307956457,-0.99326942544654,50,standing
1783066282038802200,0.8966577,-0.0448652699038386,0.0980617303013801,-0.0177870011031627,0.0087015479803085,0.0284177996218204,-0.0007157309446483,-0.8673255626156926,-9.717814363205433,-0.991070015706122,50,standing
1783066282058728000,0.9165835,0.0406294589649885,0.1435387023627758,-0.0686450816810131,-0.012469776906073,0.0147362295538187,0.0431076847016811,-0.8712676513049751,-9.71735259091258,-0.992135745241493,50,standing
1783066282078654000,0.9365095,-0.1083688239779323,0.0131359604269266,-0.1378740276645869,-0.0122334044426679,0.0014332141727209,0.0325130857527256,-0.8796882005825638,-9.716236154103278,-0.995630601619929,50,standing
1783066282098579200,0.9564347,-0.2613626062978059,0.0025473463952541,-0.0225788384895771,0.0088769001886248,0.0278862249106168,-0.022054299712181,-0.8808211501352489,-9.71597253473103,-0.9972008466113358,50,standing
1783066282118505000,0.9763605,-0.1689843284603208,0.0464133761286735,-0.0282235663782805,0.0559890754520893,0.0380833894014358,-0.0522773265838623,-0.8720445539616047,-9.717341484996677,-0.991556630179286,50,standing
1783066282138431000,0.9962865,0.1096045032527297,0.1372188516914844,-0.0586965191185474,0.0957732796669006,0.0147251244634389,-0.0044029625132679,-0.8652744022395461,-9.719412446051836,-0.97709497410655,50,standing
1783066282158356200,1.0162117,0.1969839498896151,0.1629869146764278,-0.0513251135677099,0.0676928684115409,-0.0169717203825712,0.0509548187255859,-0.8703533129390328,-9.720639942020178,-0.9602249417178332,50,standing
1783066282178282000,1.0361375,-0.0968135568711906,0.0890887347728014,0.0989301836989819,-0.0277492795139551,-0.0147186275571584,0.0331030301749706,-0.8804697063490748,-9.720214994606376,-0.9553064092118292,50,standing
1783066282198208000,1.0560635,-0.299384293917194,-0.0039782559812068,0.2131212110243737,-0.0981082320213317,0.0089079197496175,-0.0157909467816352,-0.8820046608313917,-9.718726217353344,-0.968940820680186,50,standing
1783066282218133200,1.0759887,-0.1160668311346322,0.0290367093920707,0.0871237183101475,-0.0793617293238639,0.0057186125777661,-0.0332190804183483,-0.8761800463311373,-9.717322195774315,-0.9880918036129324,50,standing
1783066282238059000,1.0959145,0.0729663789462298,0.0126578215211629,-0.0809754978787153,0.0054560704156756,-0.0377295352518558,-0.0018478307174518,-0.873676977469027,-9.716805478423831,-0.995367493704334,50,standing
1783066282257985000,1.1158405,-0.0232563724249601,0.079139587688446,-0.0903450184442102,0.0346910059452056,-0.0405117869377136,0.0040024006739258,-0.8756166402947158,-9.71729881489873,-0.9888413068059831,50,standing
1783066282277910500,1.135766,-0.2625106072891503,0.095984339505434,0.0749053111195564,-0.0241885706782341,0.0252618845552206,-0.0185778476297855,-0.8741367039352654,-9.717532623654604,-0.9878444777883588,50,standing
1783066282297836500,1.155692,-0.1757871403429657,0.1337725106298923,-0.0364354413412511,-0.0468665063381195,0.0123014254495501,-0.0315464995801448,-0.8683839856274426,-9.717162036776545,-0.9965130104776472,50,standing
1783066282317762300,1.1756178,0.0020512334413826,-0.0438543392956256,-0.1120036002837121,-0.0347108766436576,0.0218115989118814,0.0149092450737953,-0.8666572349000722,-9.716406834495068,-1.0053403139252215,50,standing
1783066282337687600,1.1955431,-0.0380772171989083,0.0187795192718505,-0.173634711549431,0.0100655397400259,0.0047062756493687,0.0150775825604796,-0.869774270942062,-9.71589596236348,-1.0076044594649225,50,standing
1783066282357613300,1.2154688,-0.2374113104112446,0.0254828163027763,-0.0937888752877712,0.0365976467728614,0.0165876783430576,-0.0259306654334068,-0.8688594941847025,-9.716462948596478,-1.002905268798023,50,standing
1783066282377539300,1.2353948,-0.2507195586651563,0.0341752413243055,-0.0468469452403485,0.0473140999674797,0.0188054516911506,-0.0595421306788921,-0.8595914612323046,-9.71812123719752,-0.9947805606618524,50,standing
1783066282397464600,1.2553201,-0.0314255772899836,0.0831131674945354,0.0322493147630244,0.030982257798314,0.0314473249018192,-0.0240289121866226,-0.8503886755358427,-9.719624627497792,-0.9879842515852302,50,standing
1783066282417390300,1.2752458,0.095205244891718,0.219406721034646,0.020056115078926,0.0133005371317267,0.0219765286892652,0.0347289033234119,-0.8511742729555815,-9.719898183742163,-0.9846197435881942,50,standing
1783066282437316400,1.2951719,-0.0804581960063427,0.2085427971929311,0.0149023855775594,0.0113100800663232,-0.0071782916784286,0.0245057567954063,-0.8579192171711474,-9.719508892163631,-0.9826083307005464,50,standing
1783066282457241600,1.3150971,-0.235461637648195,0.1745803218364715,0.1366670630276203,0.0123866293579339,0.0214884802699089,-0.0030090531799942,-0.8606338098920882,-9.719514152860642,-0.9801743815518916,50,standing
1783066282477167400,1.3350229,-0.1710342467274516,0.047523967719078,0.1003131624899804,0.0189442224800586,-0.012258362956345,-0.0119510497897863,-0.8587718884777277,-9.719950206190347,-0.977488941860199,50,standing
1783066282497093400,1.3549489,-0.1060973719146102,-0.0530208115696907,0.0489103075109422,0.0103799635544419,-0.0364220738410949,-0.0127690974622964,-0.8563717685334384,-9.72056044704318,-0.9735208419468252,50,standing
1783066282517018400,1.3748739,-0.1364350809026509,0.0356365460485219,0.1264748279023915,-0.036723505705595,-0.027640176936984,-0.0032572706695646,-0.8556620858941226,-9.720480952066184,-0.974919822024554,50,standing
1783066282536944400,1.3947999,-0.1329713503148406,0.0666202978551387,0.0994300960451364,-0.0745525956153869,-0.0233810637146234,0.0030473507940769,-0.856432631875202,-9.71929320358634,-0.9860327521912752,50,standing
1783066282556870400,1.4147259,-0.1331432728156447,0.0344856224477291,-0.0450448642544448,-0.0914323925971984,-0.0341012440621852,0.0130283199250698,-0.8594030259881168,-9.717384155094622,-1.0021187945954502,50,standing
1783066282576795400,1.4346509,-0.1595624201204627,0.1775871024370193,-0.035296938830614,-0.0316120162606239,-0.0347583144903183,-0.0082479687407612,-0.8603674871060997,-9.71608651649952,-1.0138121549986303,50,standing
1783066282596721400,1.4545769,-0.1070873328000307,0.06479015981853,-0.1201953823067247,-0.0048411376774311,-0.0426508784294128,-0.0024690153077244,-0.8600205002993345,-9.715967858555912,-1.0152553395442665,50,standing
1783066282616647400,1.4745029,-0.1250458910778164,-0.050302784782648,-0.0354379547365009,-0.0140787605196237,-0.0017879116348922,0.000965196522884,-0.8604673672839999,-9.715796593642237,-1.01651461889036,50,standing
1783066282636572400,1.4944279,-0.1787474514532834,0.0094955580979585,-0.1230764907009899,-0.0123422816395759,-0.0037154201418161,-0.0202659219503402,-0.85883991221264,-9.715590257415174,-1.0198556729465722,50,standing
1783066282656498400,1.5143539,-0.1157626605562865,0.0977694693565368,-0.1199888268839567,0.0300525240600109,-0.0246949233114719,-0.0284603219479322,-0.8540386494107544,-9.71617477930486,-1.0183044979818163,50,standing
1783066282676424400,1.5342799,0.0205150378275662,0.0854611919254064,-0.0454354710072279,0.039198137819767,-0.0151915131136775,-0.0021220708731561,-0.8517520728435367,-9.71718483313024,-1.0105568795297295,50,standing
1783066282696350500,1.554206,0.013133695404604,0.0541343257695436,-0.0094341832995414,0.0065773231908679,-0.0116617558524012,0.0243866294622421,-0.8548453626837581,-9.717431501367688,-1.005557756068185,50,standing
1783066282716275500,1.574131,-0.0821359199602156,0.0735983201742172,0.0183330176133662,-0.0057633193209767,-0.0079116020351648,0.0094192959368228,-0.8595333743695169,-9.716993109950424,-1.0057912725631146,50,standing
1783066282736201500,1.594057,-0.1459516817886382,0.1125894373476505,-0.0283574218910187,-0.003686079988256,-0.0021185774821788,-0.0153011390939354,-0.8588646082624792,-9.716928812542555,-1.0069852315880357,50,standing
1783066282756127200,1.6139827,-0.099928327890858,0.1300701489806175,-0.068926821231842,0.0169626101851463,-0.0090630473569035,-0.0073852762579917,-0.8568546566795557,-9.717201784265042,-1.006070016439259,50,standing
1783066282776052500,1.633908,-0.0361720411647111,0.1016530327916145,-0.0970826561361551,0.0050248494371771,0.0083882380276918,0.0260156374424695,-0.8583617002416402,-9.717365450394151,-1.0032023520484563,50,standing
1783066282795978200,1.6538337,-0.1255225686788559,0.0733779554218053,-0.006840659675002,-0.0296241082251071,0.0149779384955763,0.0262839887291193,-0.8635819191079587,-9.71662369211614,-1.0059068617668003,50,standing
1783066282815904300,1.6737598,-0.1940749305751174,0.0527659600257873,-0.0608265168845653,-0.0123471310362219,0.0046603018417954,0.0038709861692041,-0.8661074189975857,-9.715913498020171,-1.0105787260353565,50,standing
1783066282835829500,1.693685,-0.194162462728098,-0.0063104983210563,-0.040816432904452,0.0236479882150888,0.0048086140304803,-0.0289293993264436,-0.8633261907812207,-9.716241414800283,-1.0097888908319177,50,standing
1783066282855755300,1.7136108,-0.0888673471070826,0.0516466006070375,-0.0149072078831493,0.0430742353200912,0.0179946795105934,-0.0243316516280174,-0.8572913675963878,-9.717488784512875,-1.00292769982554,50,standing
1783066282875681300,1.7335368,0.0268843536637723,0.0568511835128068,-0.0280646494895219,0.0216685254126787,0.0058363792486488,0.0003956564469262,-0.8549789259355515,-9.718352707865831,-0.9965043887797742,50,standing
1783066282895606500,1.753462,0.022653291965276,0.0890980871230363,0.0063712885975837,-0.0138092329725623,0.0203459039330482,0.0220940243452787,-0.8573318457372486,-9.718128251460191,-0.9966728772144764,50,standing
1783066282915532300,1.7733878,-0.0031282880883663,0.1599257735401391,-0.0467698614161461,0.0051889745518565,-0.0202782023698091,0.0295275431126356,-0.862824451804161,-9.717427994236347,-0.9987477107271552,50,standing
1783066282935458300,1.7933138,-0.1351469407882541,0.0431996747791767,-0.123148971415311,0.0357535369694232,-0.0296058114618062,-0.0029332295525819,-0.8668266731828451,-9.717571202099323,-0.9938961059775204,50,standing
1783066282955383600,1.8132391,-0.288942102618888,0.0244891290903091,0.0473790062904357,0.0324094630777835,0.0039257030002772,-0.0492606610059738,-0.8620703455012291,-9.718761288666723,-0.9863550429482012,50,standing
1783066282975309300,1.8331648,-0.1190641132544726,0.0202057526826858,0.0679202745378017,-0.01744195073843,0.0344731509685516,-0.0295607428997755,-0.8532811090417206,-9.719715228390694,-0.9846002351701258,50,standing
1783066282995235300,1.8530908,0.0679432170219719,0.114520697671175,-0.0214655434854328,-0.0311961434781551,0.0050577004440128,0.0176097527146339,-0.8520441876579076,-9.71916051711738,-0.9911325595483184,50,standing
1783066283015160300,1.8730158,0.0579853021092712,0.2097171016693115,-0.096729458784312,0.024527559056878,-0.0432571172714233,0.0395146794617176,-0.8588456843663006,-9.718437463539836,-0.992332948314026,50,standing
1783066283035086300,1.8929418,-0.157441847769916,0.0840402192115783,-0.0914567790783941,0.0634148269891738,-0.0370666831731796,0.0110962083563208,-0.8651817555200308,-9.718907419139146,-0.982192954832688,50,standing
1783066283055012400,1.9128679,-0.3128363345559686,-0.0154191029280424,0.006848258459568,0.0340225026011467,0.0102498978376388,-0.0314406268298625,-0.8630158096577971,-9.720153035286067,-0.9717118928287176,50,standing
1783066283074937300,1.9327928,-0.1720317333322018,-0.0304752177625894,-0.0121948801845312,-0.0235519856214523,0.0232920553535223,-0.0288682021200656,-0.8559787506278603,-9.720808868846296,-0.971373381589353,50,standing
1783066283094863400,1.9527189,0.0177501762241125,0.0363122533529996,-0.0876024417378008,-0.047524906694889,0.006919658742845,0.0154399946331977,-0.8545238025791942,-9.72011094971001,-0.9796135327987372,50,standing
1783066283114789400,1.9726449,-0.0168161102443933,0.188026078864932,-0.1378635793358087,-0.0003673080354928,0.0034372359514236,0.0368276834487915,-0.8599106832493096,-9.719043612739442,-0.9854659120887518,50,standing
1783066283134714400,1.9925699,-0.1576443846046924,0.2474070731163024,-0.1190443125754594,0.0530527308583259,0.0029598297551274,0.0196116659790277,-0.8660264627158641,-9.719018478298189,-0.9803430891823024,50,standing
1783066283154640400,2.0124959,-0.2393906476601958,0.1545446650236845,-0.0395258816372603,0.0680892392992973,0.03632527962327,0.0059850141406059,-0.8676283449545502,-9.720127900844812,-0.9678344668734818,50,standing
1783066283174566400,2.0324219,-0.1750068766854703,-0.0147018945693969,-0.0314263810075819,0.0345855429768562,0.0440670140087604,0.0014705334324389,-0.8670694689627736,-9.721170687896011,-0.9578279635787008,50,standing
1783066283194491400,2.0523469,-0.0783014563638716,0.0126940618783235,0.0077530983448028,-0.0075715212151408,0.0304594449698925,0.0083362534642219,-0.8671089241903275,-9.721331431415676,-0.9561563040394336,50,standing
1783066283214417400,2.0722729,-0.0098286625098437,0.0374824661761522,-0.0222375507712364,0.0010696634417399,-0.0104066124185919,0.0281828381121158,-0.8707887086816132,-9.720831080678105,-0.9578888269204646,50,standing
1783066283234343400,2.0921989,-0.0889649622626602,0.0648000966906547,-0.0374183148987591,0.0213290266692638,-0.0272132642567157,0.0297768358141183,-0.8775443204216659,-9.72046692354083,-0.955427259112522,50,standing
1783066283254268400,2.1121239,-0.2655933026701211,0.0578694206446409,0.0566969427991658,0.0095942402258515,0.0007393002742901,-0.0050423024222254,-0.8804810314606875,-9.720567461305857,-0.9516797431472688,50,standing
1783066283274190300,2.1320458,-0.2424170828092843,0.1081780506461858,0.0886227246962487,-0.0138761075213551,0.0003860086435452,-0.0198443178087472,-0.8776203813325614,-9.720749247613549,-0.9524806112013756,50,standing
1783066283294116400,2.1519719,-0.0452183211252093,0.0454804791927337,-0.0466571217566728,-0.0271680131554603,-0.0092013096436858,-0.0010772473178803,-0.8750527958668768,-9.7205990254879,-0.956363736245036,50,standing
1783066283314042400,2.1718979,-0.0118861795615404,0.1377086810350418,-0.0176472273062914,-0.0211274586617946,-0.0396025069057941,0.0199892465025186,-0.8775597371865064,-9.719901690873504,-0.9611324119515716,50,standing
1783066283333967400,2.1918229,-0.0601981558531522,0.0971288333654403,-0.067878115896508,-0.0021023252047598,-0.0357027873396873,0.0299005173146724,-0.8831172982484101,-9.71927508340776,-0.9623767859894782,50,standing
1783066283353893400,2.2117489,-0.1963151837825775,0.0389852719545364,-0.0260474644482135,-0.0138851730152964,-0.0104113770648837,0.0134360725060105,-0.8885574434757232,-9.718742583966254,-0.9627576750658452,50,standing
1783066283373819400,2.2316749,-0.241472568500787,0.068790627631545,-0.0164833711586892,-0.0213020909577608,-0.0101088592782616,-0.0195177216082811,-0.888291193754971,-9.718469612243773,-0.9657380060508848,50,standing
1783066283393744100,2.2515996,-0.1054885193012654,-0.0410574020534753,-0.0930196444809436,-0.0106369648128747,-0.0416557900607585,-0.0129418261349201,-0.8852621282573789,-9.718456752762195,-0.9686593003250658,50,standing
1783066283413670400,2.2715259,-0.0198516785480082,0.0494072972476482,-0.0628261662691831,0.0064392169006168,-0.0387862101197242,-0.0015179638285189,-0.8847077823102474,-9.718540339392424,-0.9683267804350704,50,standing
1783066283433596400,2.2914519,-0.0218104844655841,0.1668301461011171,-0.0028057050704956,0.0190795566886663,-0.0165710300207138,0.0141802038997411,-0.8867889724984764,-9.718647306898236,-0.9653498835161328,50,standing
1783066283453521200,2.3113767,-0.024115838798508,0.1877525226205587,-0.0623440818406641,0.0261961407959461,-0.0189508758485317,0.0170700661838054,-0.8907683975234627,-9.71877122553885,-0.9604290859878064,50,standing
1783066283473447400,2.3313029,-0.1034843398720025,0.0972667805314064,0.0082024495474994,-0.0017227167263627,0.0021974104456603,0.0062521183863282,-0.893102320363745,-9.718816233724356,-0.9578028291374444,50,standing
1783066283493373400,2.3512289,-0.0793217393223196,0.0590536619931459,-0.0385159008771181,-0.0305117964744567,-0.0027221483178436,0.0039705736562609,-0.8936220333889127,-9.718460259893536,-0.9609138738300652,50,standing
1783066283513298200,2.3711537,-0.0912427710015326,-0.0859726485788822,-0.0444078815251588,-0.0481296069920063,0.0108435116708278,0.0104763340204954,-0.8950187484443187,-9.717534961742162,-0.9689377519402652,50,standing
1783066283533224400,2.3910799,-0.1217127280671149,0.0140372931808233,-0.0851566560208797,-0.0200852788984775,0.0051654526032507,-0.0005588393541984,-0.8961222527068108,-9.716689158567783,-0.9763722858551888,50,standing
1783066283553150500,2.411006,-0.1243582010746002,0.0788204387366771,-0.0839209767460823,0.0319257229566574,0.0157886482775211,-0.0026688980869948,-0.8958709813594817,-9.71682885929942,-0.9752141287960112,50,standing
1783066283573075200,2.4309307,-0.1440743436094373,0.0873076965749263,-0.0943050081163644,0.0360822714865207,0.0179385133087635,-0.0111475782468914,-0.8939618598025292,-9.717684599345922,-0.9684214729811996,50,standing
1783066283593001500,2.450857,-0.0788769181642681,0.1014069490760564,0.0091353464834392,0.0242478121072053,-0.0001783518819138,-0.0147656137123703,-0.8912235939450561,-9.718467274156213,-0.9630752165824176,50,standing
1783066283612927500,2.470783,0.0111621761359274,0.0902110168009996,0.04360840171054,0.024560522288084,-0.0074762925505638,0.0031013879925012,-0.8898340392827987,-9.719090374490618,-0.9580437252212316,50,standing
1783066283632852200,2.4907077,0.050717283867672,0.0598170475810766,0.0734920102555304,-0.005046215839684,-0.0171857513487339,0.0288413986563682,-0.8936259789116681,-9.718923785752056,-0.9562041617691516,50,standing
1783066283652778500,2.510634,-0.1294216950092464,-0.0080067808449268,0.0259276374608278,-0.030413944274187,-0.006252062972635,0.0044203558936715,-0.898139730009064,-9.718138188332318,-0.959965925455466,50,standing
1783066283672704500,2.53056,-0.224279880028963,0.0736655401915311,0.0109013332426548,-0.035036101937294,-0.0042931586503982,-0.0352078378200531,-0.8948599046207963,-9.717809102508426,-0.9663375793792308,50,standing
1783066283692629200,2.5504847,-0.0701343703906983,0.0653495472669601,-0.0040671033084392,-0.0207616966217756,-0.0051110037602484,-0.0284811090677976,-0.8881448440868407,-9.7178728153944,-0.9718694945432244,50,standing
1783066283712555500,2.570411,0.1022930111955851,0.1460638369262218,-0.1005488709419965,0.0147534720599651,-0.0361639633774757,0.0199373736977577,-0.8872918805193155,-9.71793243662715,-0.9720534728080034,50,standing
1783066283732481300,2.5903368,-0.0087855101324617,0.0620306319773197,-0.0797451523661613,0.0111595820635557,-0.0130679095163941,0.0376016423106193,-0.8944272122919559,-9.717696289783715,-0.967867784621194,50,standing
1783066283752407300,2.6102628,-0.299915258988738,0.0922422303676605,-0.0303266761373728,0.0042976103723049,0.0083463648334145,-0.0122622828930616,-0.8977839753739535,-9.717530870088934,-0.9664095486368984,50,standing
1783066283772332500,2.630188,-0.2471632544230669,0.0249836346089839,-0.0674411127187311,0.0146415382623672,0.0177615191787481,-0.0418330803513526,-0.891728840053454,-9.71820950000286,-0.9652083561535924,50,standing
1783066283792258300,2.6501138,-0.0411524599257856,-0.0107750765144824,-0.105103319375962,0.0405587367713451,-0.0004236177774146,-0.0310869459062814,-0.8842062625288962,-9.719408938920497,-0.9600175095122307,50,standing
1783066283812184300,2.6700398,0.0154017134018242,0.0502349802434444,-0.0333837256204336,0.0322933532297611,0.0069871605373919,0.0002203760086558,-0.8813543802291154,-9.720414901092647,-0.9524285887531936,50,standing
1783066283832109600,2.6899651,-0.0764466222774237,0.1232704058378934,0.0305593889147043,-0.0064045535400509,0.0162972509860992,0.0088412435725331,-0.8824310695499181,-9.72057739817798,-0.9497832618761808,50,standing
1783066283852035300,2.7098908,-0.098514661700651,0.2159486895352602,0.043193902625516,-0.0085729844868183,0.0102268848568201,0.0081378379836678,-0.8843049736630171,-9.720180507814884,-0.9520924886666238,50,standing
1783066283871961300,2.7298168,-0.1128426814563572,0.0394452906817197,-0.0244054693948477,0.0080327484756708,0.0092799887061119,0.0084031680598855,-0.8859881044443696,-9.719950206190347,-0.9528775015644728,50,standing
1783066283891886300,2.7497418,-0.1303193014360964,0.0656307022958993,-0.0406779742818325,0.0432506799697876,-0.0162617079913616,-0.011717103421688,-0.8861689409039915,-9.720397949957848,-0.9481273113626986,50,standing
1783066283911812400,2.7696679,-0.1760413342997431,-0.0277928468108177,-0.0332388372570276,0.0451390407979488,-0.0120945926755666,-0.0311084780842065,-0.8826446392353624,-9.72169558855295,-0.938059214073792,50,standing
1783066283931738400,2.7895939,-0.1975199564624577,0.0399719449043273,0.1062310082316398,0.0108539909124374,0.0105174537748098,-0.039184033870697,-0.8756809377025813,-9.722871646595,-0.932380218589306,50,standing
1783066283951663400,2.8095189,-0.042659138161689,0.1286176120847463,0.0379893197197467,-0.0129135306924581,-0.0122172953560948,-0.0036075820680707,-0.870728722122684,-9.723230543035267,-0.9332707376882432,50,standing
1783066283971589400,2.8294449,0.03238572755903,0.0911480053901672,-0.0303187120266258,-0.011111369356513,-0.0455896332859993,0.0321645326912403,-0.8743966700457037,-9.72272317803502,-0.9351433996923268,50,standing
1783066283991515400,2.8493709,-0.2209961821831762,0.0009673837274312,0.0344235169969499,-0.0259133987128734,-0.0220518596470356,-0.0007467490504495,-0.8789899891853332,-9.722025843420624,-0.9380847869064658,50,standing
1783066284011440400,2.8692959,-0.2991559650540352,0.1480301685631275,0.0802321321655064,-0.0261680576950311,0.0008680295431986,-0.0447396636009216,-0.8738531377535312,-9.721993110194802,-0.94319190078713,50,standing
1783066284031366400,2.8892219,-0.0250439864940941,0.1055944638937711,-0.0522041614245623,0.001826437539421,-0.0226332731544971,-0.016868395730853,-0.8673945361986756,-9.722353760200738,-0.9454296697765588,50,standing
1783066284051292400,2.9091479,0.0943147257927805,0.0579892476320266,-0.1146003387786448,0.0296777598559856,-0.0541302300989627,0.0263812355697155,-0.870335338890925,-9.722484693104027,-0.941392523214966,50,standing
1783066284071217400,2.9290729,-0.1089510077800601,0.0725917734801769,-0.0450180493127554,0.0211142711341381,-0.028653984889388,0.0221032630652189,-0.8776094946123659,-9.722420980218052,-0.9352581121131778,50,standing
1783066284091143400,2.9489989,-0.2570425511416048,0.087414664080739,-0.0046632425706833,-0.0100759575143456,0.0007865044171921,-0.0120393261313438,-0.8791556280758231,-9.722429748046398,-0.933713951411098,50,standing
1783066284111069400,2.9689249,-0.1939937550976872,-0.0383931512802839,-0.0548595713041722,-0.0156294479966163,-0.0220532976090908,-0.0278909932821989,-0.8754660528428853,-9.722466572925448,-0.9367886096160858,50,standing
1783066284130994400,2.9888499,-0.1183133679524064,-0.0854658681005239,-0.0892711056023836,-0.0092279817909002,-0.0198331363499164,-0.0283520780503749,-0.8701927155498415,-9.722680507937072,-0.9394876394417137,50,standing
1783066284150920400,3.0087759,-0.1129373740024864,0.1040291142731904,-0.028165187254548,0.0113067841157317,-0.0214442871510982,-0.0283389873802661,-0.8656926276516169,-9.723033559158443,-0.9399904013320804,50,standing
1783066284170846200,3.0287017,-0.0459019194751977,0.2400608020067214,-0.0330903686970472,0.0418272987008094,-0.0115614030510187,-0.0170341096818447,-0.8619494225353002,-9.723942490696906,-0.9340173913370816,50,standing
1783066284190771500,3.048627,-0.0553423133198171,0.2416214754521846,0.004069441395998,0.0497646555304527,-0.0079749850556254,-0.0054989336058497,-0.8599907627481966,-9.725054251331091,-0.924191139980033,50,standing
1783066284210697500,3.068553,-0.0433765657160431,0.1462964766383171,0.023791794475913,0.0210988204926252,-0.0141806583851575,0.017760144546628,-0.8614820242192596,-9.725646956527232,-0.9165293001152576,50,standing
1783066284230623200,3.0884787,-0.0644205958537757,-0.0282411751002073,0.0101373631328344,-0.029572719708085,-0.0148767605423927,0.0282823555171489,-0.8666245016742498,-9.725137837961316,-0.9170912448469548,50,standing
1783066284250549200,3.1084047,-0.1382748635504394,0.0317138196468353,0.0379021528929472,-0.0467147454619407,-0.013654176145792,0.0107202501967549,-0.8708811362054198,-9.724040690374371,-0.9246551042299715,50,standing
1783066284270474000,3.1283295,-0.1519032106041908,0.005214519777894,-0.0421948816508054,-0.0193930678069591,-0.0109472852200269,-0.0149959810078144,-0.8704207521520555,-9.723428695955873,-0.9314969329487532,50,standing
1783066284290400000,3.1482555,-0.0994320688065141,-0.0056768765926361,-0.1203132365327328,0.0217169001698493,-0.0175422690808773,-0.0291868727654218,-0.8663288797285408,-9.723909172949194,-0.930292525595054,50,standing
1783066284310326000,3.1681815,-0.1049121807180345,-0.0013952537506818,0.0302460851818323,0.0106833828613162,0.0114719057455658,-0.0331667140126228,-0.8605495656747371,-9.724749715426563,-0.9268746069103478,50,standing
1783066284330251000,3.1881065,0.0068811378158628,0.1396685829311609,-0.0430312594097107,-0.0055479006841778,-0.0070820641703903,-0.0083452658727765,-0.8560743199568241,-9.725153620052335,-0.9267701236225664,50,standing
1783066284350177000,3.2080325,0.0682386197719722,0.1166144550800323,-0.0856250041849911,0.018639713525772,-0.0269711017608642,0.0105292508378624,-0.8574273420009761,-9.725144852223991,-0.9256262142844498,50,standing
1783066284370103000,3.2279585,-0.0515315959252417,0.1018383262306451,-0.0330097046762704,0.0214315373450517,-0.0134780062362551,0.009566499851644,-0.8605096720557659,-9.725331899228692,-0.9207799432970584,50,standing
1783066284390028000,3.2478835,-0.1277509853180498,0.1379582718819379,0.0160626615285873,0.0039986260235309,0.0075326124206185,-0.0070570325478911,-0.8610542272612453,-9.72553881997764,-0.9180780639272182,50,standing
1783066284409954000,3.2678095,-0.0672779580462723,0.0767751966446638,0.0064284256123006,-0.0225713830441236,0.0128733851015567,0.0011071831686422,-0.8598766348492354,-9.72540905611813,-0.920564620045945,50,standing
1783066284429880000,3.2877355,0.0037537995755672,0.0894961465299129,-0.0599643470972776,-0.0076452647335827,0.0032785735093057,0.0145474532619118,-0.8608780669767409,-9.72496072782874,-0.9243520296301692,50,standing
1783066284449805000,3.3076605,0.0389232395689934,0.1442401286303997,-0.0488946715503931,0.0225780550390481,0.0021333268377929,0.0415453799068927,-0.8661200592834501,-9.724638071745634,-0.922852292591706,50,standing
1783066284469731000,3.3275865,-0.0534837529063224,0.0212999776601791,-0.0793026692956685,0.0036809721495956,0.0078978948295116,0.0477081015706062,-0.8754664912343024,-9.7241014806509,-0.9196776811435818,50,standing
1783066284489657000,3.3475125,-0.2411656214434653,0.0264876094311475,-0.0019908815562725,-0.0123397856950759,0.0328167341649532,0.011729734018445,-0.880966769151017,-9.72345324587524,-0.9212732067067176,50,standing
1783066284509582000,3.3674375,-0.1217060791306197,0.0528816953599452,-0.0982007003806531,0.0065383240580558,0.0305105838924646,0.004611013457179,-0.8805663716565817,-9.72336030689478,-0.9226268863379956,50,standing
1783066284529508000,3.3873635,0.0277105022896081,-0.0525572857111692,-0.1524731194466352,0.0301526170223951,0.0109286829829216,0.0282045416533947,-0.8831888291146606,-9.723417005518078,-0.9195306738883255,50,standing
1783066284549433900,3.4072894,-0.0619084669023752,0.0154039053589105,-0.0974555080365389,0.0451144911348819,0.0181335620582103,0.0246751084923744,-0.8887392297834158,-9.723591777563094,-0.9122991882648318,50,standing
1783066284569359000,3.4272145,-0.1813828414581716,0.0814654002875089,-0.005820668977499,0.027460066601634,0.0485526695847511,-0.0048552770167589,-0.8898726907927542,-9.724112586566806,-0.9056218293927608,50,standing
1783066284589285000,3.4471405,-0.1249443303994834,0.1106032319664955,0.0461596936285495,0.0070696286857128,0.0508975051343441,-0.0183264911174774,-0.8864563064780085,-9.724670220449566,-0.9029844666264952,50,standing
1783066284609211000,3.4670665,-0.0014408464580774,0.0165448920875787,0.0081470660984516,-0.0010710961651057,0.0276549141854047,0.0034098727628588,-0.8838151443194597,-9.724882986417413,-0.9032792848546056,50,standing
1783066284629136100,3.4869916,-0.0019961422532796,0.011251461854577,-0.0357441711414605,-0.0015222211368381,0.0033221617341041,0.0106899961829185,-0.8852052835036068,-9.72467840375602,-0.9041296911388635,50,standing
1783066284649062100,3.5069176,-0.1027289914600551,0.0841992091655731,0.0507955367356538,-0.0190519355237483,0.0116308229044079,0.0061496421694755,-0.8868245552685111,-9.724302556180954,-0.9065729926377536,50,standing
1783066284668988000,3.5268435,-0.1078746837854385,0.1275537822455167,0.0252783067066222,-0.0204745959490537,0.0218877214938402,0.0065874657593667,-0.8876641478978097,-9.723812726837396,-0.9109828449692576,50,standing
1783066284688913200,3.5467687,-0.0524818823873996,0.0661538493871688,-0.0401769659571349,-0.0101493652909994,0.0086831310763955,0.0121510997414588,-0.8894866871498525,-9.723314129665493,-0.9145111652258784,50,standing
1783066284708839000,3.5666945,-0.1027634782515466,0.0341349093139171,-0.0284650469839572,-0.008874038234353,0.007316855713725,0.0004636624944396,-0.8908302837785332,-9.72302011515498,-0.9163463447637856,50,standing
1783066284728765000,3.5866205,-0.0782829708591103,0.0978051251918077,0.0379979414176195,-0.0245247166603803,0.0208959784358739,-0.002471437677741,-0.8901716737393289,-9.72279565874934,-0.9193636467583476,50,standing
1783066284748690200,3.6065457,0.0472748152635991,0.1131131689608097,0.0508002129107713,-0.039448756724596,0.0103584378957748,0.0292511228471994,-0.8924280012987553,-9.7219422567904,-0.9261803410358728,50,standing
1783066284768616000,3.6264715,0.0090547555278986,0.037428690162301,-0.0898760857582092,-0.0350565388798713,-0.0149495927616953,0.0318611711263656,-0.8990992957562207,-9.720627667060494,-0.9334954863548278,50,standing
1783066284788542000,3.6463975,-0.141020947388187,0.1411620363593101,0.0219702781371772,0.00392736075446,-0.0022156701888889,0.0067556570284068,-0.9031503247126936,-9.719915134876969,-0.9370042981933802,50,standing
1783066284808468200,3.6663237,-0.0934513138964772,0.1257090311616659,-0.1023871922850608,0.0439773388206958,0.0112485103309154,0.0104648526757955,-0.9040328797008842,-9.720321962112187,-0.931907924902439,50,standing
1783066284828393000,3.6862485,-0.0580692540656775,-0.0016682254731655,-0.0700404815621674,0.0377000980079174,0.0470638535916805,0.0372619815170764,-0.9079911888726055,-9.720736972653864,-0.9237029180716724,50,standing
1783066284848319000,3.7061745,-0.0529836944296956,0.0467763642221689,-0.1333702865045517,0.0319457799196243,0.0217726156115531,0.0423010773956775,-0.9153210203040392,-9.720547587561606,-0.9184322841923684,50,standing
1783066284868245200,3.7261007,-0.0950521732218563,0.0711766459852457,-0.0706388127814978,0.0492029935121536,0.0260958988219499,0.0351371765136718,-0.9227828075520692,-9.72055693991184,-0.9108340841483324,50,standing
1783066284888170000,3.7460255,-0.160824037554115,0.0445867452234029,0.0172696261655539,0.0606342442333698,0.0340670309960842,0.0110124936327338,-0.9273407631173728,-9.721053198996186,-0.9008793110407888,50,standing
1783066284908096000,3.7659515,-0.2216917632319033,-0.0452723894000053,0.0599298603057861,0.0340559370815753,0.0798908844590187,-0.0234661065042018,-0.9248315567754208,-9.722172558414936,-0.8913160945340991,50,standing
1783066284928022300,3.7858778,-0.1606686277966946,0.0370727163314819,0.1082768348455429,-0.0040988186374306,0.0603142045438289,-0.0356185771524906,-0.9173207427538932,-9.72296517009735,-0.8904321513064205,50,standing
1783066284947947000,3.8058025,0.067494085014984,0.1113999353021383,-0.0187280813455581,0.0044334162957966,0.0019805922638624,0.0098040308803319,-0.9132459675956516,-9.723221775206923,-0.891816883663088,50,standing
1783066284967873000,3.8257285,0.048574426620081,0.026011224091053,-0.0232271463304758,0.005339368712157,0.0012344550341367,0.0488341338932514,-0.9194653535671532,-9.722677585327624,-0.8913577417187393,50,standing
1783066284987799000,3.8456545,-0.1603556893900036,0.1376777013748884,-0.0162882869780063,0.009347129613161,0.0183175317943096,0.0285195969045162,-0.9270608501974492,-9.722115859791636,-0.8896177661836147,50,standing
1783066285007724000,3.8655795,-0.1987897572025656,0.1376414610177278,0.0086959321528673,0.0148408692330122,0.014486220665276,-0.002191845793277,-0.928879224731028,-9.722079619434476,-0.8881162025142461,50,standing
1783066285027650000,3.8855055,-0.1167229569558054,0.1378174021065235,-0.0099211630988866,0.0261368211358785,0.0019796441774815,-0.0194565616548061,-0.9259520121727138,-9.72270564237833,-0.884313230034709,50,standing
1783066285047576000,3.9054315,0.047631738942489,0.11247837818861,0.0476273550283163,0.0418966338038444,-0.0207907669246196,0.0075565897859632,-0.9248077375084162,-9.723403561514615,-0.8778164884265511,50,standing
1783066285067501000,3.9253565,0.0913923355400562,0.070413260397315,-0.0256453133881092,0.0445504747331142,-0.0503699630498886,0.03245634958148,-0.9298119024712592,-9.723834354147314,-0.867691327188164,50,standing
1783066285087427000,3.9452825,-0.1095746195711195,0.0394809465169906,0.1097883353870362,-0.0105076301842927,-0.0077120261266827,0.015307786874473,-0.9359435370940714,-9.723578918081522,-0.8639619314014911,50,standing
1783066285107353000,3.9652085,-0.1672281324427574,0.1516051044404506,0.0438653721462935,-0.0400241501629352,-0.0442656874656677,-0.0109769459813833,-0.9364991251502186,-9.723025960373878,-0.8695655966274439,50,standing
1783066285127278000,3.9851335,-0.0681746146250516,0.0422287839204072,0.0145756378412246,-0.0344053283333778,-0.0501169636845588,-0.005358409602195,-0.93559435833022,-9.722584646347164,-0.8754407722711562,50,standing
1783066285147204000,4.0050595,-0.113049163813889,-0.0128477911353111,0.042548590459302,-0.046100340783596,-0.0211506895720958,-0.007008041255176,-0.9354612334698438,-9.72197499001622,-0.8823146035633981,50,standing
1783066285167130000,4.0249855,-0.1144256397988647,0.110835287156701,0.0005910246957093,-0.0264838188886642,-0.0198786836117506,-0.0079282838851213,-0.9339354121420532,-9.721459441709518,-0.8895880286324769,50,standing
1783066285187055000,4.0449105,-0.064938116921857,0.0942863034158945,-0.1448497849613428,0.0193558055907487,-0.0453738495707511,-0.0053119752556085,-0.9334439753632991,-9.721520816507937,-0.8894451130304485,50,standing
1783066285206980900,4.0648364,-0.1012863914363086,0.1361029994040727,-0.0802098472684621,0.0358785539865493,-0.0246672518551349,-0.0037353630177676,-0.9336072031009942,-9.722187171462178,-0.8819600910373031,50,standing
1783066285226907100,4.0847626,-0.1856562809936702,0.0490367103695869,-0.016197028497979,-0.0119688622653484,0.0293935853987932,-0.0204994287341833,-0.9315378494810312,-9.722658296105266,-0.8789348979972302,50,standing
1783066285246832000,4.1046875,-0.0757847973678261,0.1090723691374063,-0.0120224462270736,-0.0481776259839534,0.0311717316508293,-0.0088676018640398,-0.9276850465103984,-9.722390585079788,-0.8859525947395711,50,standing
1783066285266758000,4.1246135,0.0682678458664566,0.0608908142924308,-0.1215652824204415,-0.0325870141386985,0.0050314222462475,0.0314290300011634,-0.9300307328537106,-9.72134370637536,-0.8949225945934652,50,standing
1783066285286685200,4.1445407,-0.0727126233808696,0.0646837768346071,-0.1342353789012879,0.0243269931524992,-0.0231385715305805,0.0143968639895319,-0.9352460563492028,-9.720797178408503,-0.8954214109610765,50,standing
1783066285306610200,4.1644657,-0.2359502248827368,0.0813005651146173,-0.0009148498225957,0.0525190308690071,0.0143838385120034,-0.014224630780518,-0.9349641706679016,-9.721554718777536,-0.8874838959600776,50,standing
1783066285326536200,4.1843917,-0.1540636035084724,0.0785953978091478,-0.006762333741784,0.0385914593935012,0.0014124781591817,-0.0167812798172235,-0.9314075741648672,-9.722738960126042,-0.8781943087629973,50,standing
1783066285346462200,4.2043177,-0.0769832864373922,0.0263864871442317,0.0701964758414775,-0.0034076985903084,0.0115698724985122,-0.0008249656530097,-0.9294790903203188,-9.723201901462671,-0.8750970003347843,50,standing
1783066285366387200,4.2242427,-0.069938482492417,0.0505967992931604,0.0593565173972398,-0.0283441506326198,-0.0079615646973252,-0.0058193374425172,-0.929042087142542,-9.722871646595,-0.8792208753317594,50,standing
1783066285386313200,4.2441687,-0.0602023936368525,0.0957183820456266,0.0299859729409217,-0.0438345372676849,-0.0175471846014261,0.0104435477405786,-0.9300994141757488,-9.722204707118868,-0.885463861374557,50,standing
1783066285406239200,4.2640947,-0.1126520542550831,0.0725473498165607,0.1326975748747587,-0.0647259131073951,-0.0255471356213092,0.0060664964839816,-0.932566754137352,-9.721030402642487,-0.8956999356415122,50,standing
1783066285426164200,4.2840197,-0.1298483229234814,0.0380704951971769,0.0525438417077064,-0.0825759917497634,-0.0364412888884544,-0.0085833417251706,-0.93302764964737,-9.719773096057772,-0.9087699912253768,50,standing
1783066285446090200,4.3039457,-0.0990429964236915,-0.0080441902458667,0.0611503420114517,-0.0841762423515319,-0.0383631512522697,-0.0116552477702498,-0.9319601665463298,-9.7184000541389,-0.9244099703624844,50,standing
1783066285466016300,4.3238718,-0.0929818697538226,0.0125946931570768,-0.0199292007636278,-0.0703120827674865,-0.0466145351529121,0.0145729286596179,-0.931736367727816,-9.717041625267267,-0.9387986342642456,50,standing
1783066285485941200,4.3437967,0.0131746119368821,0.1154687921762466,-0.0167506437927484,-0.0059983511455357,-0.0699665918946266,0.0057697799056768,-0.9328471785139292,-9.716367087006567,-0.9446705950375646,50,standing
1783066285505867300,4.3637228,-0.1109828058686107,0.0265700270175933,-0.1229734687179326,0.0335636883974075,-0.039354108273983,-0.0052148001268506,-0.9345351316008716,-9.716652333688735,-0.9400522145219148,50,standing
1783066285525793000,4.3836485,-0.1992357474043965,0.0953571475178003,-0.0746217449378222,0.0233337488025426,-0.0110132060945034,-0.0187799874693155,-0.933371129322797,-9.717353759956358,-0.9339359235987068,50,standing
1783066285545718300,4.4035738,-0.1765980183344334,0.0505289947539567,-0.0446772730510681,0.0005962534341961,0.0034918673336505,-0.03726177662611,-0.9275777867436408,-9.718165076339243,-0.9312586672134696,50,standing
1783066285565644300,4.4234998,-0.0683651687610894,0.0860001211076974,0.010546528455615,-0.0094805806875228,-0.0020954306237399,-0.0338404364883899,-0.9199912771373988,-9.71877122553885,-0.9324633668281136,50,standing
1783066285585570000,4.4434255,0.0709749128680676,0.1368207922846079,0.0736323685742914,0.0069429585710167,-0.0139344027265906,0.004182415548712,-0.9171753429338336,-9.71901321760118,-0.932701851759106,50,standing
1783066285605495300,4.4633508,0.0605942424986511,0.1153115557879209,-0.0308200856775045,0.0065147625282406,-0.0222488902509212,0.0327080823481082,-0.9222075649473817,-9.718753689882158,-0.9304516616795212,50,standing
1783066285625421300,4.4832768,-0.1917129506841302,0.0693570293426513,0.0779314540077,-0.0095270536839962,-0.0100683914497494,-0.0012488203356042,-0.926678499816358,-9.718288410457967,-0.9308658685036004,50,standing
1783066285645347000,4.5032025,-0.1974856158014386,0.1292155779778957,0.0107990419119596,0.0187185034155845,-0.0082385949790477,-0.021152526140213,-0.9237488761052488,-9.718591777318716,-0.9306213191580028,50,standing
1783066285665272300,4.5231278,0.0188661015767604,0.0807704037606716,-0.0280180338688194,0.0364807918667793,-0.0239704828709363,0.0224649496376514,-0.9232760709617286,-9.719228906178474,-0.9244252409968524,50,standing
1783066285685198000,4.5430535,0.001360986154899,0.052229368931055,-0.0164414317131042,0.0283561460673809,-0.0356499180197715,0.0464875437319278,-0.9313588396523148,-9.719117847019431,-0.917446488025412,50,standing
1783066285705124000,4.5629795,-0.2230421549275517,0.1487467923998832,0.028865955935046,0.0062310653738677,-0.0451717227697372,0.0140923596918582,-0.9385947822552174,-9.718820909899472,-0.9132242672204972,50,standing
1783066285725049300,4.5829048,-0.193812772507593,0.0600561170339584,0.1202810878288,-0.0077256830409169,-0.0268546976149082,-0.0028596962802112,-0.939692222103104,-9.718715695959329,-0.9132111885432154,50,standing
1783066285744975000,4.6028305,-0.0516224890790879,-0.0496235703468322,-0.0555049565356224,0.0092061934992671,-0.0599276609718799,0.0018814741633832,-0.9406242422562092,-9.718718618568778,-0.9122013539135456,50,standing
1783066285764901000,4.6227565,-0.1693983160886913,-0.1684749906986951,-0.0298152925491332,0.0002824328839778,-0.0374028123915195,-0.0270314160734415,-0.9400148051209748,-9.718979315331577,-0.910058277470246,50,standing
1783066285784826400,4.6426819,-0.2460642071399837,-0.0127577747642993,-0.0594003565389663,0.0014678459847345,-0.0382876135408878,-0.0740708112716674,-0.9305363442882896,-9.719972418022156,-0.9092042909894138,50,standing
1783066285804752100,4.6626076,-0.0594711567528545,0.0853887112110853,-0.0430419269341975,0.0094223404303193,-0.0328640565276145,-0.0559915862977504,-0.9176625419288872,-9.721303374364972,-0.9080549748238176,50,standing
1783066285824678100,4.6825336,0.119136009446904,0.1516331614911556,-0.0991436072539538,-0.0124961677938699,-0.01827859506011,0.0052237771451473,-0.9128136405929924,-9.721855163028836,-0.907019567361474,50,standing
1783066285844603100,4.7024586,-0.0163844408288598,0.1201198328524827,-0.0078751903545111,-0.0417760051786899,-0.0091463532298803,0.0263901893049478,-0.9178030463781208,-9.720867321035266,-0.9125455642413348,50,standing
1783066285864529200,4.7223847,-0.281799610453099,0.1406827284097671,-0.0780886173307895,-0.0113225327804684,-0.0197152756154537,-0.0334875434637069,-0.9179946234274656,-9.7203324835062,-0.91804891089797,50,standing
1783066285884455200,4.7423107,-0.2652978268548846,0.0573521187722682,-0.0541921203713864,0.0452504493296146,-0.022002950310707,-0.0718510150909423,-0.907411927679926,-9.72169617307484,-0.9141122290361672,50,standing
1783066285904380200,4.7622357,-0.0510553567156195,-0.0454641125798225,-0.0366571212679147,0.0656602308154106,-0.0131415538489818,-0.0520357564091682,-0.8955521246686577,-9.723926124083995,-0.9020196401823312,50,standing
1783066285924306200,4.7821617,-0.03677541388534,0.0358960737675428,0.014380992051959,0.0337248109281063,0.0029858918860554,-0.0199748389422893,-0.8894812803223728,-9.725379830023646,-0.8923047402452677,50,standing
1783066285944232200,4.8020877,-0.0784028709117323,0.1898474490731954,-0.0324140038054436,0.0023473668843507,-0.0040089697577059,0.0024526775814592,-0.8875077882923186,-9.72580243934989,-0.8896529105622321,50,standing
1783066285964157200,4.8220127,-0.0283898628558963,0.3647942661345005,-0.0389559727948159,0.0169355310499668,-0.0066366856917738,0.0173342488706111,-0.8884397353801876,-9.7259719506979,-0.8868513702102006,50,standing
1783066285984083200,4.8419387,-0.0591735620457679,0.0162736739307641,-0.0584906943481415,-0.0096480483189225,-0.0207697283476591,0.0331788659095764,-0.8947662349879741,-9.725508424839376,-0.8855731669679283,50,standing
1783066286004009200,4.8618647,-0.2477356474835425,-0.0318260478496551,0.0604103372991085,-0.0352802611887455,0.0071407770738005,-0.0029733479022979,-0.8978897738359868,-9.724844992494582,-0.889701718140021,50,standing
1783066286023934200,4.8817897,-0.21691417356655,-0.0425122770369052,-0.0278191502958536,-0.0230112317949533,-0.0029173439834266,-0.028414549306035,-0.894593947160989,-9.724484342488646,-0.8969412409394979,50,standing
1783066286043860200,4.9017157,-0.0720093704823404,-0.0316319865822792,-0.1379337950278073,0.0287790242582559,-0.0215799417346715,-0.0141978533938527,-0.8906094806347041,-9.724890585201978,-0.8965111058939248,50,standing
1783066286063786200,4.9216417,-0.0453892937779426,0.1382090317726135,-0.0890886617075651,0.0440177358686924,-0.0007138332584872,0.009313503280282,-0.8905937716089188,-9.725639357742669,-0.8883439468555152,50,standing
1783066286083711200,4.9415667,-0.1748474483400583,0.1896224081456661,-0.0008441226739436,0.0038662336301058,0.0104216858744621,-0.0080905864015221,-0.8911709139097481,-9.726028064799308,-0.8835145539376884,50,standing
1783066286103637200,4.9614927,-0.1174812279772013,0.1525882702589035,0.0087590605169534,-0.0206297188997268,0.0206564180552959,-0.0059915236197412,-0.8894302077222614,-9.72595324599743,-0.8860843313604593,50,standing
1783066286123563300,4.9814188,0.0466075835265219,0.0469908837556838,-0.0778951405853033,0.0103514930233359,-0.0160455461591482,0.0177242718636989,-0.890413958062604,-9.725700732541084,-0.887865954080224,50,standing
1783066286143488300,5.0013438,-0.0236640764430165,0.0079506667435169,-0.0452537577647715,0.0338201373815536,-0.0167345665395259,0.0260820314288139,-0.8955597234532237,-9.725717099153997,-0.8824995316762476,50,standing
1783066286163414300,5.0212698,-0.1790421235509216,0.0072141691625118,0.0206021315891295,0.0052726385183632,-0.0064399833790957,-0.0048538506962358,-0.8983484043236821,-9.72587667362988,-0.8778758173983544,50,standing
1783066286183340000,5.0411955,-0.2153247854832559,-0.0106610947459936,0.0768495039898902,-0.0476828217506408,0.0187847055494785,-0.0157743133604526,-0.8960335515100508,-9.725658062443136,-0.8826482194319367,50,standing
1783066286203265300,5.0611208,-0.0577389991980046,0.0738233611017465,-0.0392454572606831,-0.0372513644397258,-0.0204910915344953,0.0014545193407684,-0.8948539863366634,-9.72485142223537,-0.8926976850856095,50,standing
1783066286223191300,5.0810468,-0.0913637670326977,0.0762859518229961,-0.1181810468096286,0.014690394513309,-0.0215486325323581,-0.0041871210560202,-0.8956459404319524,-9.724620536088944,-0.8944166178327053,50,standing
1783066286243117000,5.1009725,-0.2245809088021516,0.1167266832828521,-0.0266061943095177,0.0392086915671825,0.0196746159344911,-0.030798627063632,-0.8926133678030223,-9.725405548986792,-0.8888763001665473,50,standing
1783066286263042300,5.1208978,-0.1115474540140479,0.1886164459735155,-0.0500625462859869,0.0348006524145603,0.03312399238348,-0.0231623705476522,-0.8860863771870732,-9.726666947224736,-0.881580882461369,50,standing
1783066286282967600,5.1408231,0.0491956272583454,0.1059685579031705,-0.0241448456972837,0.0156444404274225,0.0187641438096761,0.0154693089425563,-0.8858193968139588,-9.72706792924106,-0.8774214246943592,50,standing
1783066286302893600,5.1607491,-0.0138411860868334,-0.002672434079647,-0.0875391672432422,0.0107426010072231,-0.0073738661594688,0.0214591156691312,-0.8905685641024261,-9.726764562380314,-0.8759772172354161,50,standing
1783066286322818800,5.1806743,-0.1870380176756531,0.0234305599480867,0.0194996502399444,0.0075249089859426,0.0163625478744506,-0.0019153393805027,-0.8930462793275713,-9.726680975750089,-0.8743792805194854,50,standing
1783066286342744600,5.2006001,-0.1898024408876895,0.0584463437497615,0.0228611625622957,0.006926848553121,0.0146855115890502,-0.0209028143435716,-0.8905811313230544,-9.726982004523276,-0.8735510130017995,50,standing
1783066286362670600,5.2205261,-0.1088188327677547,-0.0114648123443126,-0.0143926094245165,0.007099209818989,0.0198487695306539,-0.0104617699980735,-0.887318695461005,-9.727398184108733,-0.8722104851130396,50,standing
1783066286382595800,5.2404513,-0.0539139610171318,0.098617610618472,-0.0159189422089606,0.004893940873444,0.0033521712757647,-0.0044700540602207,-0.8853613508481532,-9.727648943999409,-0.8714321211516857,50,standing
1783066286402521600,5.2603771,-0.0183631204906851,0.1446446177780628,0.0097832159329205,0.0109557174146175,-0.0037188935093581,0.0083581507205963,-0.8860464835681021,-9.727735453239085,-0.8697505247402936,50,standing
1783066286422447600,5.2803031,-0.0536016071323305,0.0983171663671731,-0.0269424405265599,0.017312079668045,-0.0012514125555753,0.006480130366981,-0.8886663837429135,-9.72779741255939,-0.8663940539192407,50,standing
1783066286442372600,5.3002281,-0.1122536295220255,0.0617418781638145,0.0432897642154246,0.0002597656566649,0.021270053461194,0.0015893657691776,-0.8895699084538966,-9.727881583711504,-0.864500787518546,50,standing
1783066286462298600,5.3201541,-0.0735068424984812,0.0457721556156873,-0.0198421800673007,0.0013874816941097,-0.0044294614344835,-0.007235400378704,-0.8888126603458076,-9.72792366928756,-0.8648157717518508,50,standing
1783066286482224600,5.3400801,-0.0398868969693779,0.0245212777942419,-0.005009352594614,0.0252315551042556,-0.0051491786725819,-0.0013586734421551,-0.8878662463411688,-9.728220606407522,-0.8624396172050386,50,standing
1783066286502149600,5.3600051,-0.0630746611375361,0.0376788655310869,-0.003771408297494,0.0498862974345684,-0.0224069952964782,0.0066044442355632,-0.8886207179702817,-9.728809804472329,-0.8549986535493284,50,standing
1783066286522075600,5.3799311,-0.1106600036550313,-0.0008306056052446,-0.0256517431288957,0.0258781537413597,-0.0156851951032876,0.0039289277046918,-0.8904154924325645,-9.729354578873515,-0.8468854166552424,50,standing
1783066286542001700,5.3998572,-0.2423773353207856,0.121506903296709,0.0930354265719652,-0.0260122790932655,-0.0037890584208071,-0.0298985037952661,-0.8878354128114878,-9.7295878031075,-0.8469093089874833,50,standing
1783066286561926700,5.4197822,-0.1680911059476435,0.056013563644886,0.0212649063467979,-0.0626269429922103,0.0111333699896931,-0.0284623019397258,-0.8816166113618761,-9.729336458694934,-0.856242370000109,50,standing
1783066286581852700,5.4397082,-0.0506749060306698,0.0570651185244321,-0.0547678744327276,-0.04473527520895,-0.0101954489946365,-0.00577362626791,-0.8785743941217661,-9.728591193285585,-0.8677480258114636,50,standing
1783066286601778700,5.4596342,-0.0181415136292576,0.1271703358858823,-0.1461831524569541,0.0325498431921005,-0.0233375951647758,0.0057935174554586,-0.8792354153137654,-9.728518712571264,-0.8679111804839224,50,standing
1783066286621703700,5.4795592,-0.1152541265122592,0.1479120951414108,-0.0572106644749641,0.0599615611135959,0.0023551895283162,-0.0029254457913339,-0.8804344889052211,-9.729357501482964,-0.8572250974271446,50,standing
1783066286641629700,5.4994852,-0.1769783959541469,0.1076017120629549,0.0346995574593544,0.0373778790235519,0.0158967617899179,-0.0256917756050825,-0.8773682332023978,-9.730496734645962,-0.8473818218700587,50,standing
1783066286661555700,5.5194112,-0.0694510643016547,0.0271364287286996,0.0210217452406883,0.0195525977760553,3.16983787342e-05,-0.0256975125521421,-0.8714701881397515,-9.73143430775702,-0.8426819736160337,50,standing
1783066286681480700,5.5393362,0.0021091741736978,-0.0465478161633014,-0.0099391371469944,0.013913182541728,-0.0182377658784389,-0.011019897647202,-0.868211551669985,-9.731969729807972,-0.8398525954090058,50,standing
1783066286701406700,5.5592622,-0.0580192774441093,0.0002998597294092,0.0231757084041833,-0.0029995043296366,-0.025605684146285,-0.0225996933877468,-0.8658432151034474,-9.732280695453284,-0.8387010872863233,50,standing
1783066286721332700,5.5791882,-0.0970480232141911,0.1047182655811309,0.0981102456182241,-0.0219500642269849,-0.0146685158833861,-0.0315910726785659,-0.8609319891210645,-9.73255132908821,-0.8406116701480001,50,standing
1783066286741257700,5.5991132,-0.0007080021388828,0.1372106683850288,0.0151426240742206,-0.0351421758532524,-0.0352109484374523,-0.0079591674730181,-0.8574636554233729,-9.73242273427248,-0.8456314710713922,50,standing
1783066286761183700,5.6190392,-0.0051587710026651,0.0587795212268829,-0.0693820907186716,-0.0251467749476432,-0.0274790897965431,0.0100980037823319,-0.858549477898702,-9.731802556547525,-0.8516375065531581,50,standing
1783066286781108700,5.6389642,-0.1405084678214043,0.0901806216627359,-0.1221405250251293,-0.0142205776646733,-0.0182006955146789,-0.0011092890053987,-0.8602677530586719,-9.731331431904437,-0.8552925219293683,50,standing
1783066286801034800,5.6588903,-0.1932909405905753,0.1141243918299674,-0.0674842212080955,0.0082637248560786,-0.0166479460895061,-0.0209482982754707,-0.8585119223672896,-9.731482823073865,-0.8553305889174342,50,standing
1783066286820960800,5.6788163,-0.0918926862776279,0.0504150129854679,-0.1060159041762351,0.0117464177310466,-0.0163171105086803,-0.009876973927021,-0.8554629100602119,-9.731967976242304,-0.8528613492596894,50,standing
1783066286840885800,5.6987413,-0.051959392883256,0.022872341543436,-0.0795317288111895,0.0196652505546808,-0.0375516302883625,-0.0028345419559627,-0.8554431093811988,-9.73225673005581,-0.8495675684113055,50,standing
1783066286860811800,5.7186673,-0.1135598898150026,0.0287438639253377,-0.0668037646632641,0.0275936052203178,-0.0171429030597209,-0.022561827674508,-0.8535477971538901,-9.732891520828009,-0.8441893825042992,50,standing
1783066286880737800,5.7385933,-0.1671390659198164,0.0865314515054225,-0.0320866715472191,0.011976296082139,-0.0017104177968576,-0.0423030443489551,-0.8471046123638749,-9.73381681897938,-0.8400006986428051,50,standing
1783066286900662800,5.7585183,-0.0256908330302685,0.0906482391744852,0.024510244943574,-0.0133494567126035,0.0260131955146789,-0.0197538137435913,-0.8404115444660186,-9.73434230415821,-0.8406337358493358,50,standing
1783066286920588800,5.7784443,0.1066394429020583,0.1775245585948228,-0.0756469963323324,-0.0151219954714179,-0.0044889808632433,0.0246694646775722,-0.8407616000127047,-9.733979316064715,-0.8444744830559938,50,standing
1783066286940514600,5.7983701,0.0443210069593042,0.2013508398622274,-0.089193291125819,0.004544448107481,-0.0292414147406816,0.0377817302942276,-0.8480245036877692,-9.733265030315518,-0.8454432550229132,50,standing
1783066286960439800,5.8182953,-0.15238953281641,0.0752221219837665,0.0074796151656657,-0.0110675040632486,-0.0251710023730993,0.022146787494421,-0.8552700178366154,-9.7326822619915,-0.8448516458053141,50,standing
1783066286980365800,5.8382213,-0.2717120047461241,0.0064718263626098,0.0809335584331303,-0.0387286357581615,0.0139174638316035,-0.0072607807815074,-0.8567049460105598,-9.732166713684796,-0.8493224345438182,50,standing
1783066287000291600,5.8581471,-0.0825433317173272,0.0554004001826047,-0.0197246911674737,-0.0274748709052801,-0.0036795842461287,-0.0048803971149027,-0.8546371267605573,-9.731716047307849,-0.8565529703192413,50,standing
1783066287020216600,5.8780721,0.0271419086214154,0.0403150592535734,-0.112160909737274,0.0257868282496929,-0.0234798286110162,0.0094716399908065,-0.8555354638397693,-9.731593882232904,-0.8570421420756726,50,standing
1783066287040142800,5.8979983,-0.0642631402697414,0.0275403333544731,-0.1033458081841468,0.0598980374634265,-0.0289666578173637,-0.001965562114492,-0.857205150617659,-9.732287125194071,-0.8474515261054039,50,standing
1783066287060068600,5.9179241,-0.1855352118972688,-0.0441062682300806,-0.0163911628305912,0.0198033973574638,0.0088995546102523,-0.0248404685407876,-0.8551944683823735,-9.733214761433004,-0.8387875965259969,50,standing
1783066287079993600,5.9378491,-0.082630936935544,0.1292915658235549,0.0535825371056795,-0.0189060177654027,0.0088164890184998,-0.0289387106895446,-0.8494618430145084,-9.733631525540352,-0.8397785072594881,50,standing
1783066287099919600,5.9577751,0.1569083254151046,0.142538585409522,-0.0642909781247377,-0.0190510265529155,-0.0012241719523444,0.0220884066075086,-0.84778499584347,-9.73341116078794,-0.8440092766970395,50,standing
1783066287119845600,5.9777011,0.1133570607192814,0.1258943246006965,-0.0525637154519557,-0.0027473813388496,-0.0182817950844764,0.0543411299586296,-0.8564574740555136,-9.732478848373889,-0.8460097297992557,50,standing
1783066287139770600,5.9976261,-0.1215683511603623,0.0400531934469938,-0.0388058237344026,-0.0021082225721329,0.0026527815498411,0.0307543128728866,-0.8657407045770436,-9.731631876155731,-0.8463005294393747,50,standing
1783066287159696600,6.0175521,-0.2453491907384246,-0.0203577283740043,-0.010576339071989,-0.0071945628151297,0.0203407350927591,-0.0141048291698098,-0.8673561038844287,-9.73137527104616,-0.8475949531640857,50,standing
1783066287179622700,6.0374782,-0.1339682523977011,-0.0454395626604557,-0.0805306767206639,0.0234364029020071,0.0165068041533231,-0.0272642411291599,-0.8624684049081057,-9.73188029795885,-0.8467734076481312,50,standing
1783066287199547600,6.0574031,-0.0156408559199422,0.0089712419629096,-0.1385317609209567,0.0485546663403511,-0.0120437555015087,-0.012480154633522,-0.8582428231023251,-9.732872816127538,-0.8396493279218673,50,standing
1783066287219473700,6.0773292,-0.0518406618744134,0.067048752400279,-0.018159999134019,0.0211906060576438,0.0048472518101334,-0.0021643948275595,-0.8573575647003948,-9.733639124324917,-0.8316325371395796,50,standing
1783066287239398700,6.0972542,-0.1624267235103994,0.1207394260555505,0.1221405250251293,-0.0311268828809261,0.0372377149760723,-0.0106824282556772,-0.8561565183475613,-9.733608729186653,-0.8332179797001182,50,standing
1783066287259324700,6.1171802,-0.0449316862035542,0.1628308473318815,0.0082023764822632,-0.0246045552194118,-9.9953263998e-05,2.2632302716e-06,-0.8540913294460624,-9.73320540908277,-0.8400378157828002,50,standing
1783066287279251500,6.137107,0.0605180354572832,0.1267062255054712,-0.0295206935167312,0.0128630651161074,-0.0340865179896354,0.0330248102545738,-0.8576376237507909,-9.732841836467385,-0.8406218992810696,50,standing
1783066287299176400,6.1570319,-0.0338738472249358,0.1112397763043642,0.0282026697207242,0.0095968870446085,-0.0200791805982589,0.034362256526947,-0.8654481513712554,-9.732488200724124,-0.8366945697695016,50,standing
1783066287319102500,6.176958,-0.1909950847383588,0.0510176550537347,0.1040741224586963,-0.0362388081848621,-0.0146149434149265,0.0054038972593843,-0.8697860344450921,-9.731972067895532,-0.838196060373634,50,standing
1783066287339028500,6.196884,-0.1607161202002316,0.0385106401801109,0.120263040715456,-0.0635079070925712,0.000984993064776,-0.0031520808115601,-0.8693890710167587,-9.731136786115169,-0.8482501291371881,50,standing
1783066287358953500,6.216809,-0.0212567230403423,0.0205599729478359,-0.0565652792435139,-0.048983909189701,-0.0323807559907436,0.0062525756657123,-0.8699848449528217,-9.730094583585858,-0.8595159848432987,50,standing
1783066287378879200,6.2367347,-0.0590965512868016,0.0138356331288814,-0.1063666903752833,-0.0114087406545877,-0.0442221499979496,0.0010278557892888,-0.8714999256908893,-9.729507139086722,-0.8646317204218358,50,standing
1783066287398805500,6.256661,-0.124066670782119,0.0432692328840494,-0.0583119037151336,0.0165337491780519,-0.047510415315628,-0.0157301258295774,-0.8707240459475666,-9.729760237064957,-0.862557617561519,50,standing
1783066287418730500,6.276586,-0.1406358205281198,0.0052139352560043,-0.0581709608744829,0.0167619101703166,-0.0197831187397241,-0.0235898718237876,-0.8674725698709488,-9.7304604942888,-0.8579103032123298,50,standing
1783066287438656300,6.2965118,-0.0508359418112784,0.0568055908054113,-0.0226829564511775,-0.0174526590853929,0.0117299249395728,0.0112291742116212,-0.866442642301321,-9.73057739866674,-0.8576353587284684,50,standing
1783066287458582500,6.316438,-0.0117062929499894,0.1412502991646528,-0.1041816744863986,-0.01939707249403,0.002688059117645,0.036318264901638,-0.8713052799016237,-9.729728672882914,-0.8623276812631636,50,standing
1783066287478507500,6.336363,-0.0799783766001462,0.172287242463231,-0.208190988080576,0.0291343461722135,-0.0419178083539009,0.0287114214152097,-0.8784504754811525,-9.729193250831962,-0.8611191822562366,50,standing
1783066287498433300,6.3562888,-0.224909921560809,0.004688450077176,-0.0058971682798117,0.017215821892023,0.0122662680223584,0.0047461362555623,-0.8824083462614566,-9.729336458694934,-0.8554170250918716,50,standing
1783066287518359300,6.3762148,-0.2107436682380735,0.0678612378269434,-0.005734744259715,0.0187884029000997,0.0310266222804784,-0.0201625134795904,-0.88026424690485,-9.72966203738749,-0.8539333624053745,50,standing
1783066287538284500,6.39614,0.0257796803575009,0.0514215596795082,-0.0696393534153699,0.0577701032161712,0.0291459783911705,-0.0049376096576452,-0.8767687329392879,-9.730580321276188,-0.8470408994778991,50,standing
1783066287558210300,6.4160658,0.0904123115267604,0.1757540417909622,-0.1297071608871221,0.0554824881255626,0.0060791755095124,0.0208090487867593,-0.8779550201144068,-9.731461780285835,-0.8356050209671259,50,standing
1783066287578135600,6.4359911,-0.0571083731442689,0.0440472315192222,0.0827975256741046,-0.009141145274043,0.0298563838005065,0.0231424141675233,-0.8826157784670591,-9.731436061322688,-0.8309853252772241,50,standing
1783066287598061300,6.4559168,-0.0919551570545881,0.1347077456533909,0.1133480736952275,-0.0842376872897148,0.0523363314568996,0.0260263103991746,-0.8860761480540037,-9.73021967127025,-0.8414848727859556,50,standing
1783066287617987300,6.4758428,0.0775307642523199,0.1206505787283182,0.0337918680299073,-0.0958894193172454,0.0182087309658527,0.0603705495595932,-0.8933549068853258,-9.72783306839466,-0.8611379600219428,50,standing
1783066287637912600,6.4957681,0.0479424853920936,0.0668383245199918,-0.0981055694431066,-0.0311969853937625,-0.0173150617629289,0.0692734643816948,-0.9065630557656288,-9.725496734401585,-0.8736409563075751,50,standing
1783066287657838300,6.5156938,-0.2146029740147292,0.0872469062983989,-0.0306167451251298,-0.0082876412197947,0.0171649232506752,0.0421850644052028,-0.9178544843044132,-9.724209032678605,-0.8761871336590498,50,standing
1783066287677764400,6.5356199,-0.342839843153581,0.0223684836745262,-0.0127286217350512,-0.0152611592784523,0.0357774533331394,-0.0066551226191222,-0.9209995043318718,-9.72367477967143,-0.8788120022699236,50,standing
1783066287697689600,6.5555451,-0.193997481424734,0.0052653731822967,0.0044113136362284,-0.0117678837850689,0.0420059412717819,-0.0174467489123344,-0.917810060640797,-9.723630356007812,-0.882634117841348,50,standing
1783066287717615400,6.5754709,-0.0089937460556626,0.0080441902458667,-0.0709906949590891,0.0148474583402276,0.0093884374946355,-0.0049156509339809,-0.9150185302261262,-9.7238635802418,-0.8829490290094166,50,standing
1783066287737541400,6.5953969,-0.001470510943979,0.0806190125912427,0.0055641369331628,0.0258443616330623,0.0024533434771001,0.0008974322699941,-0.9147603176813572,-9.724313077574967,-0.8782507151253521,50,standing
1783066287757466400,6.6153219,-0.0108544253610074,0.1541150414347648,0.0995768841046839,-0.0029203770682215,0.0071728038601577,0.0184451546519994,-0.9170482824880628,-9.724337042972444,-0.8755977163985371,50,standing
1783066287777392400,6.6352479,-0.0771227679733187,0.0480155506283044,0.0650532677341252,-0.0340843126177787,-0.0100897001102566,0.0147273577749729,-0.9215586725845932,-9.72358242521286,-0.8792313967257738,50,standing
1783066287797318400,6.6551739,-0.1375616007145494,0.0619943916201591,0.0547043076772242,-0.0394301749765872,-0.0154498182237148,-0.0039226631633937,-0.9233687907464802,-9.722747143432498,-0.8865396739125251,50,standing
1783066287817243400,6.6750989,-0.104836119807139,0.0415711967945098,0.0414941129703074,-0.0365354306995868,-0.020586097612977,-0.0126591380685567,-0.9219769710619002,-9.722225749906896,-0.8936799010559916,50,standing
1783066287837169400,6.6950249,-0.1078833785485476,0.0252004922300577,0.0214093563187867,-0.033604584634304,0.0005984517047181,-0.0073618288151919,-0.9198275379430502,-9.72186626894474,-0.8997823826495558,50,standing
1783066287857095400,6.7149509,-0.0397993648163974,0.0947147579610347,-0.0511895044893026,-0.0399957448244094,-0.0078822243958711,0.0151717336848378,-0.9204250654447824,-9.721201083034275,-0.9063417411651462,50,standing
1783066287877020400,6.7348759,-0.0707299981962889,0.0896896232753992,-0.0592616787206381,-0.0171295087784528,-0.0227041095495224,0.0162571985274553,-0.9239110809296368,-9.720364632210137,-0.9117365128807724,50,standing
1783066287896946400,6.7548019,-0.1648721439011395,0.0830909556627273,-0.101606782497093,0.0291414037346839,-0.0112285912036895,-0.0072640418075025,-0.9256867123000324,-9.720350603684782,-0.9100931295879184,50,standing
1783066287916871400,6.7747269,-0.1552461643565446,0.02890753005445,-0.0230523012202233,0.051363032311201,0.0079736784100532,-0.0237121116369962,-0.9228926976673304,-9.721383453863858,-0.9018580198798328,50,standing
1783066287936797400,6.7946529,-0.0952800636935979,0.0054202714830636,-0.0218494282364845,0.0219593904912471,0.0011255460558459,-0.027466781437397,-0.9180657889675348,-9.722586984434724,-0.893782996104285,50,standing
1783066287956723500,6.814579,-0.0885039206221699,0.0121270756453275,0.0989191508483141,-0.0128075741231441,-0.0028506151866167,-0.0329785011708736,-0.9124221570573746,-9.723159815886616,-0.893345262274146,50,standing
1783066287976648400,6.8345039,-0.0220035958848893,0.0419148956656455,-0.015016951867938,-0.0133567489683628,-0.0279687866568565,-0.0203659795224666,-0.9075452717360109,-9.72331822131872,-0.8965750379756092,50,standing
1783066287996574500,6.85443,-0.0062280807346105,0.1226180794090032,0.0463723865311592,0.0184932705014944,-0.035907857120037,-0.0028158689383417,-0.9065613021999596,-9.723516958761214,-0.8954162963945418,50,standing
1783066288016500500,6.874356,-0.0645493367999792,0.13125906650424,0.0074304422616958,0.0233508683741092,-0.0540848635137081,-0.0074727432802319,-0.9073468996196984,-9.723927293127774,-0.8901427399057894,50,standing
1783066288036425500,6.894281,-0.1913289198026061,0.0622492431640624,0.1072065022002905,-0.0100964689627289,-0.0320938564836978,-0.0325485952198505,-0.9043176149263976,-9.724500124579668,-0.8869681284576654,50,standing
1783066288056351500,6.914207,-0.1586972546584904,0.0220697929888963,0.128908630920574,-0.0735480561852455,0.0031228074803948,-0.0349580869078636,-0.8971458966661244,-9.72442355221212,-0.895052796844393,50,standing
1783066288076276500,6.934132,0.048549803635478,0.0869622441381216,0.0299205064892768,-0.0968610346317291,-0.0376567728817462,-0.0007118107168935,-0.8932540037941187,-9.723175013455748,-0.9123334558606148,50,standing
1783066288096202500,6.954058,0.0904439487740397,0.130505617788434,-0.0690126728843897,-0.0514394752681255,-0.0744152963161468,0.0361624211072921,-0.8981876608040184,-9.721377608644962,-0.926526012668386,50,standing
1783066288116128500,6.973984,-0.061413157666102,0.0864841052323579,-0.1206822890408337,0.0059817293658852,-0.0795708000659942,0.0264357253909111,-0.90674235785529,-9.720303841933609,-0.9294750717323272,50,standing
1783066288136053200,6.9939087,-0.2719839535553008,0.0057955345362424,-0.0590641833871602,0.0103392908349633,-0.0303075406700372,-0.0288537964224815,-0.9079086251556872,-9.720568045827743,-0.925551103221625,50,standing
1783066288155979500,7.013835,-0.2612436560932547,-0.0214694890081882,-0.0408785383552312,-0.0131377130746841,0.0194822084158658,-0.0598941333591938,-0.8991959610637277,-9.721285254186393,-0.9265282046254724,50,standing
1783066288175905500,7.033761,0.0331024975262582,0.0597989274024963,-0.1656213548332452,0.0114042246714234,0.0077478932216763,-0.0349499247968196,-0.8884309675518423,-9.722198277378082,-0.9273320683542638,50,standing
1783066288195830300,7.0536858,0.1734680497456341,0.1085316863894462,-0.2157015829063951,0.047265600413084,-0.0016237152740359,0.0164938736706972,-0.8866410884603857,-9.722898534601926,-0.9216936971411108,50,standing
1783066288215756500,7.073612,0.0033496026888489,0.1222685353189706,-0.1191150397241115,0.0434751212596893,-0.0207329615950584,0.0154429888352751,-0.8908502305880188,-9.723466105356811,-0.9115885557774454,50,standing
1783066288235682600,7.0935381,-0.288017096728459,0.065668696218729,0.0390524919718503,0.0156277641654014,0.0381588339805603,-0.0339148081839084,-0.8890323675110936,-9.72417746849656,-0.9057535660136492,50,standing
1783066288255607300,7.1134628,-0.201969337086752,0.1249351241797208,-0.0359942003797739,0.0182760972529649,0.0316614732146263,-0.055228553712368,-0.8790127124737948,-9.725234284073114,-0.9041788640428334,50,standing
1783066288275537000,7.1333925,0.0639278439007699,0.0261556009978055,-0.0753735131531953,0.0461251474916935,-0.0083918292075395,0.0033593638800084,-0.8736168447796255,-9.726263627120852,-0.8983183745115995,50,standing
1783066288295462000,7.1533175,0.0280886148869991,0.1184989536523818,-0.0213128371417522,0.0466389283537864,-0.0244499705731868,0.0341592095792293,-0.8787783191960304,-9.726729491066932,-0.888184445444867,50,standing
1783066288315387600,7.1732431,-0.2613847450643777,0.0306505743294954,0.0612088672656565,-0.0043778093531727,0.0101153021678328,0.0058822720311582,-0.8837918365091085,-9.726717216107248,-0.8833174969956278,50,standing
1783066288335314000,7.1931695,-0.3042753538943827,0.0786766463518142,0.1168816546488553,-0.0589383020997047,0.0316735580563545,-0.026074681431055,-0.8819019311092794,-9.726260704511404,-0.8902090100750326,50,standing
1783066288355239000,7.2130945,-0.0166732677076011,-0.0400946945011615,0.0344178179085254,-0.0436804331839084,0.0048216599971055,0.0007399528403766,-0.8781597489062696,-9.725554602068662,-0.901567950892076,50,standing
1783066288375164700,7.2330202,0.0493568091694265,0.136943541881442,-0.0704939244180917,0.0005048303864896,-0.0256807785481214,0.0181860756129026,-0.8802944959126412,-9.724973002788424,-0.9057417294453828,50,standing
1783066288395091000,7.2529465,-0.0427319842021912,0.1312736795514822,-0.0127724608767777,0.0196317732334136,-0.0207906886935234,0.0208191517740488,-0.8851708697773516,-9.724840900841354,-0.9024114159788936,50,standing
1783066288415015700,7.2728712,-0.2038335965886712,0.0728454559803009,-0.0341915348719805,-0.01691160723567,0.0067080277949571,-0.0082000875845551,-0.8870244617547839,-9.724769589170814,-0.9013426177036016,50,standing
1783066288434941700,7.2927972,-0.1588202234510332,0.0726665922820568,0.0323064517777413,-0.0424782894551754,0.0249347630888223,-0.0149290552362799,-0.8841540208850055,-9.724442841434476,-0.9076865799028426,50,standing
1783066288454867700,7.3127232,0.0371936392974108,0.0228290869235992,-0.1355184775143861,-0.0075491396710276,-0.0134461186826229,0.0183157566934824,-0.8844417517852038,-9.723834938669205,-0.9138898915223777,50,standing
1783066288474792700,7.3326482,-0.0695279289301484,-0.0196598092377185,-0.1414040284216403,0.0580514259636402,-0.0408631116151809,0.0083831259980797,-0.8884521564703434,-9.72399275957942,-0.9083036888878792,50,standing
1783066288494718700,7.3525742,-0.2524590227436274,0.0065390463799238,-0.0183557409018278,0.0548623465001583,-0.0112903881818056,-0.03870490193367,-0.886582270945236,-9.72535177297294,-0.8954809591285884,50,standing
1783066288514644000,7.3724995,-0.2563293613709509,-0.0024789573341608,0.0813110865086317,0.0024009465705603,0.0228381007909774,-0.0508983060717582,-0.8774747623167931,-9.72665876391828,-0.8902519724339246,50,standing
1783066288534569700,7.3924252,0.0298706759981811,0.1828536446630954,-0.0176378749560564,-0.0101731363683938,-0.0149776842445135,-0.0074140024371445,-0.8709835006013512,-9.727038703146576,-0.8924575196541845,50,standing
1783066288554495700,7.4123512,0.1343123896602541,0.1881236940205097,-0.0351268429607152,0.0161383934319019,-0.0331143103539943,0.0470092333853244,-0.8760659914974123,-9.72662310808301,-0.8920276768695563,50,standing
1783066288574420700,7.4322762,-0.0923424028065055,0.0968956091314554,-0.0009684797059744,-0.0004446089733392,-0.0300754103809595,0.0360067076981067,-0.8864371633861213,-9.725924604424833,-0.8893754818603395,50,standing
1783066288594346800,7.4522023,-0.2969295211762189,0.0474427191764116,0.1540841348398476,-0.0467429459095001,0.0272833947092294,-0.0095698246732354,-0.8889483424894511,-9.725254157817362,-0.894191942231357,50,standing
1783066288614272800,7.4721283,-0.0809128079060465,0.0542763645887374,0.0536807367831468,-0.0346951410174369,0.0090938005596399,-0.0099016148597002,-0.8858957499857991,-9.72460650756359,-0.9042211688145996,50,standing
1783066288634197800,7.4920533,0.1375941147446632,0.0191886845946311,-0.148780694669485,0.0339261703193187,-0.0599362216889858,0.022496135905385,-0.8881762621384114,-9.72438438924551,-0.9043691989831626,50,standing
1783066288654123800,7.5119793,0.0213566762834787,0.0481745405822992,-0.0396983155947178,0.0695545971393585,-0.0441752411425113,0.0275474339723587,-0.8947912963639945,-9.724938515996932,-0.8917951832879334,50,standing
1783066288674049800,7.5319053,-0.2819620344731957,-0.0423334133386611,0.0794791949063539,0.0087138339877128,0.0309865642338991,-0.0214148312807083,-0.8959851092584431,-9.72556044728756,-0.8837813151150942,50,standing
1783066288693974800,7.5518303,-0.2456941317185759,0.2647019067883491,0.0535397939424961,-0.0417392961680889,0.0524837970733642,-0.0497876480221748,-0.8866136889968067,-9.725989486354589,-0.8885172575958072,50,standing
1783066288713900800,7.5717563,0.0387028748165816,0.040666356909275,-0.0228209036171436,-0.0449047125875949,0.0532406866550445,-0.0105298850685358,-0.8798159186154604,-9.725660985052585,-0.8987969518087804,50,standing
1783066288733825800,7.5916813,0.0381662106566131,0.1039542954713106,-0.0863415549565106,0.0008550576167181,0.0365265533328056,0.0208811052143573,-0.8809251219663768,-9.72505483585298,-0.9042593819331376,50,standing
1783066288753751800,7.6116073,-0.1181842616800218,0.040860418176651,-0.0110235713828355,0.0432113520801067,0.0948551669716835,0.0030960326548665,-0.8827418890647589,-9.72510802734494,-0.9019151568945496,50,standing
1783066288773677800,7.6315333,-0.2187284564469009,0.1530459508985281,-0.0761866561669856,0.0319746397435665,0.0537919774651527,-0.031402837485075,-0.8776663393661379,-9.726112820473311,-0.8960089285254478,50,standing
1783066288793602800,7.6514583,0.0064756257548928,0.0819850402474403,-0.0646826808560639,0.0344127379357814,-0.0057703009806573,-0.0086782611906528,-0.8731769189924001,-9.727027597230672,-0.8904543631382286,50,standing
1783066288813528800,7.6713843,0.0453361753512173,0.0005260697007179,-0.0584440056622028,0.0266946610063314,-0.0452140979468822,0.0137796252965927,-0.8747772668611258,-9.727568864500522,-0.8829263787861913,50,standing
1783066288833454800,7.6913103,-0.1084011188123375,0.0277016613960266,0.0835462982147932,-0.0383691824972629,-0.0494750291109085,0.0099121211096644,-0.8778603275682777,-9.727360774707794,-0.8821619702849537,50,standing
1783066288853379800,7.7112353,-0.0461393084276467,-0.0451607457190752,0.0607365005135536,-0.1227635815739631,-0.0625466555356979,0.0270844958722591,-0.8820628207594156,-9.72557622937858,-0.8975101999338716,50,standing
1783066288873305900,7.7311614,0.0416566100556403,0.0341360783576965,-0.0481125812619924,-0.1145717948675155,-0.120258517563343,0.0519624426960945,-0.891747910080105,-9.72257237138748,-0.9201923526674508,50,standing
1783066288893230800,7.7510863,-0.0008746639426797,0.039894203492999,-0.1397292270772159,-0.04662761464715,-0.1268989592790603,0.0581952147185802,-0.9053305182959884,-9.719949621668457,-0.9345186919227242,50,standing
