time,seconds_elapsed,acc_x,acc_y,acc_z,gyr_x,gyr_y,gyr_z,grav_x,grav_y,grav_z,fs_hz,activity
1783068597417896400,0.0,0.0846158271424472,0.5328957473456859,-0.3000152122318744,0.2090716958045959,-0.3696958124637604,-0.278672844171524,0.1631840629500336,-7.716997103852033,-6.04910889981687,100,standing
1783068597427858700,0.0099623,0.6535291557434946,-0.1474748727679252,0.5965899286210536,0.2904480993747711,-0.2385058403015136,-0.401876151561737,0.1700762518828734,-7.731842790806293,-6.029931321138143,100,standing
1783068597437820700,0.0199243,-0.0284255004248581,-0.6697860977351665,0.5919646069079637,0.2814375758171081,-0.04696836322546,-0.4949618875980377,0.1972167539984919,-7.748526214581727,-6.007648762181401,100,standing
1783068597447782400,0.029886,-0.5896222815655171,-0.2817413043946027,0.4513531901687383,0.2661950886249542,-0.0197774451225996,-0.49134361743927,0.2348314682521857,-7.763523877227306,-5.986897066053748,100,standing
1783068597457744600,0.0398482,-0.4922102473445236,0.583785976627469,-0.0941775823444128,0.3184239268302917,-0.2327677458524704,-0.4612424373626709,0.2646114337596111,-7.779559066227078,-5.964798631492257,100,standing
1783068597467706600,0.0498102,0.1444823216221295,1.1058172156095505,-0.6145166304558515,0.394840657711029,-0.4446457028388977,-0.4987824857234955,0.281087078269571,-7.7992557003438465,-5.938263675788044,100,standing
1783068597477668600,0.0597722,0.3000648235272616,0.7299971130698919,-0.4105541467905044,0.5090175867080688,-0.5793598294258118,-0.5503684282302856,0.2914526241350919,-7.82416626971662,-5.904900919890403,100,standing
1783068597487630600,0.0697342,0.1399002910614945,0.4506985256522893,-0.2273269926398992,0.6472623348236084,-0.5380158424377441,-0.5496485829353333,0.3013810389586724,-7.85641258880496,-5.861427104344964,100,standing
1783068597497592600,0.0796962,0.1029180112261325,0.8683633812308311,0.2619125683307647,0.756370484828949,-0.5816107392311096,-0.5837863087654114,0.3144212656598538,-7.895644528996944,-5.807782023397087,100,standing
1783068597507554600,0.0896582,-0.3779562377855181,1.5610329264253378,0.2337754381269216,0.855328381061554,-0.6669524908065796,-0.5682905912399292,0.3242362649705261,-7.940233027786016,-5.746124900907278,100,standing
1783068597517516500,0.0996201,-0.1513894889283925,1.7909750699996947,0.3723766840875148,0.9694749116897584,-0.6633287072181702,-0.5636894702911377,0.3305057736940682,-7.990161134037375,-5.676132496270537,100,standing
1783068597527478500,0.1095821,-0.3471475137522444,1.7109370721668005,0.6422603774279355,1.1149311065673828,-0.5561206340789795,-0.609127402305603,0.3426583856394514,-8.046592630833388,-5.595114839750528,100,standing
1783068597537440500,0.1195441,-0.674544325112924,1.9254829091668129,0.7021808853834867,1.2947142124176023,-0.5460043549537659,-0.6313655972480774,0.3631484716888516,-8.110902313658595,-5.500160427814722,100,standing
1783068597547402500,0.1295061,-0.2344408797657117,2.165955799105763,-0.1148924535930156,1.4415535926818848,-0.7115552425384521,-0.6571337580680847,0.381085731450282,-8.183033483889698,-5.39102317674756,100,standing
1783068597557364500,0.1394681,-0.2497762499330565,2.4252567236334084,-0.5135726227164268,1.4934476613998413,-0.9107030034065248,-0.7502578496932983,0.3953736018586903,-8.258579431000351,-5.273512065088749,100,standing
1783068597567326500,0.1494301,-0.7103048628672957,3.05538301115334,-0.2563514270722866,1.441699504852295,-1.043125867843628,-0.8353287577629089,0.4099823017193004,-8.331904194930196,-5.155742010232806,100,standing
1783068597577288700,0.1593923,-1.051390775025636,3.277148278012872,0.1861152768075466,1.31781804561615,-1.1653563976287842,-0.8823338150978088,0.4256063891675323,-8.39864490429461,-5.044997323969006,100,standing
1783068597587250400,0.169354,-1.687278256420791,3.314648864367604,0.3243564572840929,1.2121587991714478,-1.25593101978302,-0.884742021560669,0.4398991549467668,-8.457693305590748,-4.9441181981593365,100,standing
1783068597597212700,0.1793163,-1.104114357214421,3.186804574742913,0.6735615246206521,1.1143795251846311,-1.1522221565246582,-0.8114635348320007,0.4525922669770196,-8.510611241307855,-4.851293783989548,100,standing
1783068597607174700,0.1892783,-0.8618808873437345,2.8917694890111685,1.1569199185982346,1.0418217182159424,-1.058182716369629,-0.8083574771881104,0.4681842422539368,-8.558395321267843,-4.764981528192759,100,standing
1783068597617136400,0.19924,-0.652176645155996,2.5183336512595416,1.0948691206157206,0.9910330772399902,-0.9334275126457214,-0.7720969915390015,0.489969446147792,-8.602298760402203,-4.683028928910195,100,standing
1783068597627098600,0.2092022,0.0235733294196426,2.3072376624524598,0.6266331847071648,0.9725319147109984,-0.9631776809692384,-0.6688452363014221,0.5086876636864617,-8.644090906471014,-4.603402142226695,100,standing
1783068597637060600,0.2191642,0.2214295320991426,1.9903554865717887,-0.0788698308363556,0.8996798992156982,-1.200737714767456,-0.5548059940338135,0.5129918636864051,-8.683795140349865,-4.527574163304269,100,standing
1783068597647021600,0.2291252,0.6613304040789604,1.6391490162849425,-0.5578092393279075,0.7670922875404358,-1.4636679887771606,-0.3767675161361694,0.4940214980175718,-8.718952962970732,-4.461634248928726,100,standing
1783068597656983600,0.2390872,1.082155258058384,1.472282629826665,-0.645327656044066,0.6154681444168091,-1.6907693147659302,-0.206988051533699,0.4492359057538211,-8.748111252915859,-4.408981101627648,100,standing
1783068597666945500,0.2490491,0.8779804468166083,1.501760653245449,-0.1632563792675733,0.4644747078418731,-1.7354377508163452,-0.083489641547203,0.386457231888175,-8.771155443894862,-4.368967071147263,100,standing
1783068597676907500,0.2590111,0.6886696619033813,1.4676128844499587,0.4763941079229116,0.3591211140155792,-1.6055314540863037,0.0439311601221561,0.3155482603957876,-8.78878228600025,-4.339139503638446,100,standing
1783068597686869500,0.2689731,0.973058046740666,0.7316518945395946,0.98679336130023,0.2430639714002609,-1.345708966255188,0.2168767899274826,0.2405027918868698,-8.802206415718793,-4.316678957766294,100,standing
1783068597696831500,0.2789351,1.055730192469433,-0.3197966020226478,1.2032014850407835,0.0438733845949173,-1.066329836845398,0.4398949444293976,0.1602250670139677,-8.809145859593153,-4.306236766467988,100,standing
1783068597706793500,0.2888971,0.8142621540132909,-1.031874612042308,1.028556573535502,-0.1567862927913665,-0.795661211013794,0.6680572628974915,0.0714427769749891,-8.807246163451671,-4.3125031333863735,100,standing
1783068597716755700,0.2988593,0.6975879315700382,-1.4820090740710496,0.9430106259360908,-0.3378040194511413,-0.525180459022522,0.8668007254600525,-0.0242186438691453,-8.79689661887288,-4.334097710078955,100,standing
1783068597726717400,0.308821,0.3476059250442311,-1.1134966641962527,0.4958072489231824,-0.5693232417106628,-0.4298593401908874,0.9773812294006348,-0.1255436114668846,-8.776649949657916,-4.373216545285285,100,standing
1783068597736679700,0.3187833,-0.0824519271068275,-0.1987660840660333,-0.2165332114249467,-0.8028672337532043,-0.4787669479846954,1.0340754985809326,-0.2331338522877544,-8.744625748887657,-4.432557792048156,100,standing
1783068597746641700,0.3287453,-0.5681006605112925,0.45985447653234,-0.6916375717982649,-0.9836154580116272,-0.5552356243133545,0.9744681119918824,-0.3445390117542818,-8.70159383189082,-4.509316329818963,100,standing
1783068597756603400,0.338707,-1.2487123593717813,1.1281132185697555,-0.8543623284071683,-1.0394363403320312,-0.443200409412384,0.8617801666259766,-0.4466819469546899,-8.651592660403251,-4.595738475731015,100,standing
1783068597766565600,0.3486692,-1.0147940056428313,1.6508423766881226,-1.0439777222901585,-1.066591501235962,-0.510002851486206,0.7569116353988647,-0.5364991421325132,-8.599564367002248,-4.682952941064536,100,standing
1783068597776527600,0.3586312,-1.4703890711650252,2.343686693927645,-2.2792516311571003,-1.046463131904602,-0.6690633296966553,0.6458187103271484,-0.6246867998797446,-8.545416597229242,-4.770324935047328,100,standing
1783068597786489600,0.3685932,-1.74499730880931,1.958590228998661,-2.000522660320997,-0.8634126782417297,-0.743280827999115,0.520488440990448,-0.7078621458902955,-8.495359311640263,-4.847492345879972,100,standing
1783068597796451600,0.3785552,-1.9190870706498624,1.111480063676834,-1.9135510638326405,-0.5498369336128235,-0.8644781112670898,0.3953715562820434,-0.7856126903731375,-8.457339669847489,-4.901693599405885,100,standing
1783068597806413600,0.3885172,-1.654323789063096,0.222732066065073,-2.288758587431908,-0.2115021497011184,-1.0570242404937744,0.1816309988498687,-0.8571937524408102,-8.436489774042368,-4.925570149555802,100,standing
1783068597816375600,0.3984792,-1.0245761255972088,-0.5130956528544426,-2.677673149344325,0.0064357793889939,-1.4052077531814575,-0.2218932956457138,-0.9165226511787624,-8.432090077778696,-4.922420161092281,100,standing
1783068597826337500,0.4084411,-0.862875743599981,-0.9499246431082486,-2.622110836598277,0.0639704465866088,-1.877140998840332,-0.7658101320266724,-0.955669835696742,-8.438786945068836,-4.903462947165965,100,standing
1783068597836299800,0.4184034,-0.7698049534536898,-1.087535708987713,-2.1182783943906425,-0.0469848364591598,-2.459495782852173,-1.3883953094482422,-0.970779653479904,-8.450065294930338,-4.8810205214723945,100,standing
1783068597846261500,0.4283651,-0.1049167838279157,-1.2800380564838647,-1.8046353465616705,-0.3297609090805053,-3.1090753078460693,-1.9853370189666748,-0.9634957070168108,-8.457629008182883,-4.869351710988581,100,standing
1783068597856223500,0.4383271,0.643362639581412,-2.131703400892019,-1.3378975402563809,-0.5315694212913513,-3.0228052139282227,-2.3748738765716557,-0.9324624900452791,-8.456354165941477,-4.877599899373949,100,standing
1783068597866185700,0.4482893,0.9158946554735302,-3.487850299066305,-0.0628361031413078,-0.5784501433372498,-2.8246212005615234,-2.4644076824188232,-0.8675617094591259,-8.451584467321634,-4.897800099098682,100,standing
1783068597876147500,0.4582511,0.3208559748824686,-4.433242559441924,-0.2733405557960272,-0.6002007126808167,-2.4472219944000244,-2.423356056213379,-0.7917655869796871,-8.442475862714648,-4.926267484170198,100,standing
1783068597886109700,0.4682133,0.3384046371851116,-4.499323928114771,0.8595008603394031,-0.4699267745018005,-1.8587112426757808,-2.294259786605835,-0.6991808998499065,-8.433255029904842,-4.955979316344857,100,standing
1783068597896071700,0.4781753,1.5628957976877689,-4.4945875472426415,0.7743535566687584,-0.2749447822570801,-1.3120715618133545,-2.026005744934082,-0.5944411896219477,-8.428863516947626,-4.977074711343645,100,standing
1783068597906033400,0.488137,2.464165715481341,-4.246870677524805,0.2917734535872936,-0.0880279913544654,-1.0114086866378784,-1.6734464168548584,-0.4961319508329033,-8.42982914710939,-4.98620494326055,100,standing
1783068597915995600,0.4980992,2.6390254387810823,-3.4512054527580736,0.5708879166096449,0.0897297486662864,-0.7086460590362549,-1.2781473398208618,-0.414961697567068,-8.436753977936506,-4.981904031196236,100,standing
1783068597925957600,0.5080612,2.620303494915366,-2.2397242151498795,1.0512082580655813,0.1641405075788498,-0.6314438581466675,-0.8710711598396301,-0.3559870556268841,-8.447392860850691,-4.968420864766836,100,standing
1783068597935919600,0.5180232,1.4410980947509406,-0.9702443775594234,-0.1421235748678445,0.2156391143798828,-1.0013729333877563,-0.7127518653869629,-0.3315352263396605,-8.459169223362206,-4.9500429120332,100,standing
1783068597945881600,0.5279852,-0.1393370859544724,-0.1592284389257431,-0.5747971990078687,0.3759513795375824,-1.2928617000579834,-0.7714886665344238,-0.3254373843885958,-8.475758539113402,-4.921989952981472,100,standing
1783068597955843300,0.5379469,-0.1120198207661509,-0.2177273896455764,0.128206108674407,0.6383952498435974,-1.427038311958313,-0.7142125964164734,-0.3291118351176381,-8.502554191580414,-4.875310327132046,100,standing
1783068597965805600,0.5479092,-0.3000050926966592,-0.2775572967082262,0.4772632919728756,0.9403990507125854,-1.4577069282531738,-0.6079405546188354,-0.3426884519841521,-8.542831256911159,-4.803436346532404,100,standing
1783068597975767600,0.5578712,-0.4434059209587052,-0.1497100844740867,0.2783732892662287,1.200489163398743,-1.4464398622512815,-0.5167043805122375,-0.3634399654487147,-8.595710029661655,-4.7065988973289725,100,standing
1783068597985729500,0.5678331,-0.6123429396785796,-0.2041325795352458,0.1820043343573808,1.403773307800293,-1.4295610189437866,-0.4270871579647064,-0.3896303820315748,-8.657855227929353,-4.589130748029053,100,standing
1783068597995691500,0.5777951,-1.023488987947628,-0.0384761533886194,0.4407908796221018,1.5350407361984253,-1.4056717157363892,-0.3587334156036377,-0.419616172309406,-8.725798298820854,-4.455867355965077,100,standing
1783068598005653500,0.5877571,-1.1752555665601043,0.1463292098641395,0.6451990612283348,1.6251095533370972,-1.4083157777786257,-0.2951755225658417,-0.4522028292680159,-8.796279948279262,-4.311768973892927,100,standing
1783068598015615500,0.5977191,-1.342192607101798,0.0979255367010831,0.5532032068371773,1.6641502380371094,-1.629587173461914,-0.2443586736917495,-0.4919152829859405,-8.866988392230867,-4.159918370258808,100,standing
1783068598025577500,0.6076811,-1.7657671251155436,0.4336310709953307,-0.4970259770631789,1.6817140579223633,-2.110238790512085,-0.2682317197322845,-0.5468821505894884,-8.936189938750863,-4.001978509838879,100,standing
1783068598035539700,0.6176433,-1.7966653905957937,0.8903355590641499,-0.2311725621521473,1.725003957748413,-2.32497239112854,-0.3736244440078735,-0.6051678238848224,-9.00458542958498,-3.8368756259217855,100,standing
1783068598045501400,0.627605,-1.9710957825675608,0.5735013139784336,0.5488832978114485,1.7120620012283323,-2.523456573486328,-0.5133639574050903,-0.6560914074469357,-9.071719522181152,-3.666582772146165,100,standing
1783068598055463700,0.6375673,-2.6888024461239577,0.2973082913607359,0.2385764086678624,1.6173547506332395,-2.8015553951263428,-0.7030500173568726,-0.69644906373322,-9.135353497701884,-3.4972342134833334,100,standing
1783068598065425700,0.6475293,-3.284128053897619,0.4052916962176561,0.1798646919801831,1.4581176042556765,-2.958923101425171,-0.9458796381950378,-0.7197252368371934,-9.193656633588672,-3.3360210304811595,100,standing
1783068598075387400,0.657491,-3.80180489706248,0.3999129257887601,1.0018950688421726,1.2434836626052856,-2.762195348739624,-1.1317378282546997,-0.717400301020965,-9.245141321632266,-3.191093504108488,100,standing
1783068598085349600,0.6674532,-3.4926606219574805,-0.1028349360525608,2.068813813997805,1.004231333732605,-2.290339231491089,-1.1623680591583252,-0.6892613441862165,-9.28841990686655,-3.0692902482137083,100,standing
1783068598095311600,0.6774152,-2.273473778408021,-0.9121171827614308,2.108214096494019,0.764497697353363,-1.9275225400924685,-0.9675719738006592,-0.6525399985756725,-9.322197673305867,-2.9734190136939285,100,standing
1783068598105273600,0.6873772,-1.2083271574914454,-1.5975433326989412,1.0433578368261456,0.5175249576568604,-1.7178994417190552,-0.6495400071144104,-0.630269860709086,-9.346201649227735,-2.9020059286043045,100,standing
1783068598115235000,0.6973386,-0.9944773399315774,-1.7953157295525073,0.7454886967122555,0.2435991168022155,-1.6436611413955688,-0.3235216736793518,-0.6332802945714443,-9.36016763073802,-2.8559777524009347,100,standing
1783068598125197000,0.7073006,-1.832256782328337,-1.7125521061480045,0.8499491881400346,-0.0131077263504266,-1.7190704345703125,-0.1544555872678756,-0.6598077245563269,-9.364970062583684,-2.8341435217335817,100,standing
1783068598135159300,0.7172629,-2.2140151888757944,-0.8788619788914919,0.9917124052628874,-0.22784985601902,-1.784730076789856,-0.1117153242230415,-0.6971840269442647,-9.362335037904977,-2.8339009451493617,100,standing
1783068598145121000,0.7272246,-1.9268492290839552,-0.384998849773407,0.96246409894675,-0.3261004090309143,-1.8878586292266848,-0.0753627195954322,-0.7402912741996347,-9.354911609905958,-2.847448408986628,100,standing
1783068598155083300,0.7371869,-1.7215549122929572,-0.5370119504928589,0.6460770131066441,-0.3093339502811432,-2.180716753005981,-0.0717179179191589,-0.7910099463067949,-9.34625425619781,-2.862210217049718,100,standing
1783068598165045200,0.7471488,-1.5724433782339096,-0.6253916602134704,-0.1518923969492316,-0.2410081028938293,-2.532039165496826,-0.0701160132884979,-0.8516858026742935,-9.338975789627431,-2.868542634941637,100,standing
1783068598175007200,0.7571108,-1.8958320133991535,-0.4707458729028702,-0.3817416015431285,-0.1620027720928192,-2.710800647735596,-0.0742897167801857,-0.9201981978863476,-9.333809200644492,-2.864196714691817,100,standing
1783068598184969200,0.7670728,-2.0633079100579024,-0.7278419808626174,-0.1090793834000825,-0.1012276709079742,-2.662027597427368,-0.0420716665685176,-0.9916935544319452,-9.330648106265068,-2.8506024891033768,100,standing
1783068598194931200,0.7770348,-2.2604447854869067,-1.1806354329675437,0.0041799160331487,-0.0520507991313934,-2.537268877029419,-0.0154381897300481,-1.0627069726794958,-9.328712754288317,-2.8312831638664004,100,standing
1783068598204893200,0.7869968,-2.3644120865702627,-1.601850089982152,-0.3842372177511453,0.0102852080017328,-2.3719418048858643,-0.0140834506601095,-1.130523786842823,-9.328279039046167,-2.806336061875522,100,standing
1783068598214855200,0.7969588,-2.292713170276582,-1.963027334663272,-0.760478468312323,0.0374811440706253,-2.1504476070404053,0.0130693409591913,-1.1929450255729257,-9.329074573338032,-2.777702672587335,100,standing
1783068598224816000,0.8069196,-2.1347082817964256,-2.1247189488321543,-1.3357105516061183,0.1095473021268844,-2.157494306564331,0.0835566148161888,-1.2559298895351587,-9.330337725141645,-2.7455054533377288,100,standing
1783068598234778000,0.8168816,-1.6688080953590572,-1.8123761699467895,-2.0845798306673764,0.2402709573507309,-2.336830377578736,0.1521362066268921,-1.3279843412682413,-9.333530383703112,-2.7003818247586486,100,standing
1783068598244740400,0.826844,-1.255961892108619,-1.285078973260522,-2.0008821412831543,0.3921902179718017,-2.413888692855835,0.2374295592308044,-1.409083684722334,-9.339340531286595,-2.638481833423674,100,standing
1783068598254702000,0.8368056,-1.1960668108552694,-0.9100310241371392,-1.8340087405622003,0.5250734090805054,-2.4243147373199463,0.3449299037456512,-1.498756502993405,-9.347028163179754,-2.560698044258356,100,standing
1783068598264664000,0.8467676,-1.0066263351477682,-0.8464139997512101,-2.0951655220896006,0.6278620362281799,-2.6136200428009038,0.4520497322082519,-1.598714130043983,-9.355428911778333,-2.467883566960692,100,standing
1783068598274626300,0.8567299,-0.9090864367634056,-0.8739204308360815,-2.456926704138517,0.6441048979759216,-2.7781636714935303,0.5636025667190552,-1.7113672802776096,-9.362488767161963,-2.363350010296702,100,standing
1783068598284588000,0.8666916,-0.8635301158554851,-0.8441554071694612,-1.723508676709235,0.581741452217102,-2.643852710723877,0.6519932150840759,-1.8309942150466143,-9.365916403523087,-2.257749555053562,100,standing
1783068598294550300,0.8766539,-0.6343037193350494,-0.9073398853570224,-0.6913257293701172,0.547666072845459,-2.270071268081665,0.7574799656867981,-1.9509850146919487,-9.364982337543369,-2.1589717854373154,100,standing
1783068598304512300,0.8866159,-0.2391150455892086,-0.8630266963779926,-0.2743289823114871,0.5800544023513794,-1.8796528577804563,0.8561128973960876,-2.0700926017619667,-9.360513667696711,-2.065404443945736,100,standing
1783068598314474000,0.8965776,0.1278434128418564,-0.4727092819303274,-0.6308117855660617,0.6516183018684387,-1.5778586864471436,0.9233822226524352,-2.1877545200683177,-9.35399157245159,-1.971535343028605,100,standing
1783068598324436200,0.9065398,-0.0624953268796205,-0.0231394680470228,-1.3899018682599067,0.7047722935676575,-1.4978201389312744,0.9685667157173156,-2.3053699688844382,-9.345820540955662,-1.8738436150833964,100,standing
1783068598334398200,0.9165018,-0.3737846511892974,0.3408352983981371,-2.367658521145582,0.6999123096466064,-1.630763292312622,0.972491979598999,-2.4241392639108,-9.335701298001409,-1.7716170201875268,100,standing
1783068598344360200,0.9264638,-0.5813163716435432,0.4309522071748972,-2.809137383031845,0.7113684415817261,-1.7608505487442017,0.794632077217102,-2.5381790461972358,-9.325112099447846,-1.664428418970108,100,standing
1783068598354322200,0.9364258,-0.2850970445632934,0.6361901176035404,-2.2242418377272783,0.7966223955154419,-1.748942494392395,0.5195376873016357,-2.6262518819257616,-9.320556335839628,-1.5493191077560184,100,standing
1783068598364284200,0.9463878,-0.5006619954779744,0.859212106525898,-1.5386564055748282,0.8648462295532227,-1.6168687343597412,0.3996558487415313,-2.6936522242426872,-9.320920492976905,-1.4265624966591597,100,standing
1783068598374246100,0.9563497,-0.3833934604033827,0.9117091864824296,-2.178523750386387,0.6986652612686157,-1.6455861330032349,0.4738658964633941,-2.756303033944964,-9.31969767318368,-1.310127489799261,100,standing
1783068598384208100,0.9663117,-0.2466886957138776,0.537808069306612,-3.4120261195361614,0.7426052689552307,-1.596968173980713,0.5440393090248108,-2.823725295832753,-9.314502442628145,-1.198757438178733,100,standing
1783068598394170400,0.976274,-0.2620616214126348,0.74119070725739,-2.9398282942593097,0.8440565466880798,-1.4619449377059937,0.5950409770011902,-2.8946932675033805,-9.307045112359525,-1.0816825990453365,100,standing
1783068598404132000,0.9862356,-0.205404206906259,1.0273369686126708,-2.9771599537879228,0.881991446018219,-1.282143235206604,0.5590083003044128,-2.9624238646879792,-9.299004429244995,-0.9607029344931244,100,standing
1783068598414094300,0.9961979,-0.1693067653477191,1.2665952220648526,-2.9114193613767623,0.820944607257843,-1.1008120775222778,0.5137619972229004,-3.0226126681908965,-9.290762086078525,-0.8461301413085311,100,standing
1783068598424056300,1.0061599,-0.1509551160991191,1.14472182354331,-2.401892214658856,0.7446089386940002,-0.8702343702316284,0.5093634724617004,-3.0777751679643988,-9.281416165584323,-0.7436397809099405,100,standing
1783068598434018000,1.0161216,-0.1202259235754609,1.019721817433834,-2.001522192752361,0.6779025793075562,-0.8067339658737183,0.4541348814964294,-3.1293039874106645,-9.27103856395483,-0.6524503475308417,100,standing
1783068598443980300,1.0260839,0.1680292927578091,1.6542665059179067,-1.7046885331660508,0.6926623582839966,-0.5641210675239563,0.2983461022377014,-3.168712160952389,-9.263187850454448,-0.568306375683844,100,standing
1783068598453942300,1.0360459,-0.4394871035471558,1.2156634917289018,-1.7644687558680772,0.730437695980072,-0.6643096208572388,0.1986038088798523,-3.1958082576707003,-9.258684109294414,-0.4836863838229328,100,standing
1783068598463904300,1.0460079,-0.4991784789219498,1.045678680989146,-2.54405436797142,0.7276906967163086,-0.3382017016410827,0.0304775908589363,-3.2091406174525616,-9.258090235054492,-0.3994667894564568,100,standing
1783068598473866200,1.0559698,0.208121649171412,1.633342375832796,-1.128932718259096,0.7579822540283203,-0.1599278599023819,-0.200678139925003,-3.202370100404322,-9.263363791543243,-0.3244969982659444,100,standing
1783068598483828200,1.0659318,0.251371008311212,1.2579326076596975,-1.965970402377844,0.634610652923584,-0.3917746245861053,-0.3906983137130737,-3.175439715641737,-9.27491803573668,-0.2507611693171784,100,standing
1783068598493790200,1.0758938,0.0532101966619491,0.9891782106101512,-2.82147430203557,0.4358756840229034,-0.3763373494148254,-0.6168845295906067,-3.1300588974311947,-9.291820655220748,-0.187588363301102,100,standing
1783068598503752200,1.0858558,0.2999465309098362,1.471256793910265,0.163061148956418,0.3692981004714966,0.0667026937007904,-0.8889394402503967,-3.0604610450699923,-9.315709480330348,-0.1467505770813673,100,standing
1783068598513714200,1.0958178,0.3585144552126527,1.48074007704854,0.6012398002535104,0.4454930126667022,0.2670605480670929,-1.103972554206848,-2.9671465092957017,-9.34629049655497,-0.1152169180407188,100,standing
1783068598523676200,1.1057798,1.0400944511160253,1.0913859546750784,-0.8116641734093427,0.5334316492080688,0.2396182864904403,-1.2743984460830688,-2.855797719658911,-9.381310372009873,-0.0764348679075483,100,standing
1783068598533638100,1.1157417,1.6805790510430931,1.1765642380058765,-1.0027344422757625,0.5772649049758911,0.3162851333618164,-1.401833176612854,-2.7301366192922,-9.418902143779396,-0.0318597902890527,100,standing
1783068598543600000,1.1257036,1.7542293936654925,1.3223533496439457,0.1416729084908962,0.5701188445091248,0.3718754053115845,-1.5062414407730105,-2.5932468534246085,-9.457550146603584,0.0130520198869635,100,standing
1783068598553562000,1.1356656,1.7758333227083083,1.2226578806608914,0.5712579189658165,0.5250624418258667,0.3648504912853241,-1.493098497390747,-2.450549424191564,-9.495373973563312,0.0555736835234332,100,standing
1783068598563524400,1.145628,1.9317256029486656,0.700837654080987,0.7316320207953453,0.4802350401878357,0.2727071046829223,-1.292202115058899,-2.3180898958563803,-9.52825859055519,0.0955645157913211,100,standing
1783068598573486000,1.1555896,2.4106997904926537,0.5748503904998302,0.027076241240371,0.3828783929347992,0.2569065690040588,-1.062204122543335,-2.206444607491046,-9.554304301437735,0.1313905017310287,100,standing
1783068598583448000,1.1655516,2.902954315370321,0.5877163018137216,0.4549333867430686,0.2979036271572113,0.335742175579071,-0.8422818779945374,-2.1160101571977137,-9.574352817732096,0.1570843578354455,100,standing
1783068598593410300,1.1755139,2.3349916385576126,0.5760977602124214,0.2392191087518818,0.2127090990543365,0.3729774355888366,-0.6429874300956726,-2.0461913555622098,-9.589220716518165,0.1742298278983682,100,standing
1783068598603372000,1.1854756,2.046365981476754,0.3316992212623357,-0.1059527575458399,0.1122784912586212,0.475770890712738,-0.5380903482437134,-1.9910005064770575,-9.600702479997278,0.1812206183674745,100,standing
1783068598613334300,1.1954379,1.9526652228638528,-0.018696517163515,-0.0177647710050456,0.0034569380804896,0.6217712163925171,-0.4863070249557495,-1.9429390708804128,-9.610634091424942,0.176380594457779,100,standing
1783068598623296300,1.2053999,2.329537757065892,-0.6601689590841532,0.465607925492525,-0.0772082433104515,0.7157593965530396,-0.4532971680164337,-1.8993292078651487,-9.619633974960443,0.1598766371687874,100,standing
1783068598633258000,1.2153616,2.6399633041530848,-1.0979781925469636,0.0556301355515606,-0.2189651131629943,0.5977195501327515,-0.4531853199005127,-1.8575087124846876,-9.628196051600575,0.1338108150799758,100,standing
1783068598643220200,1.2253238,2.7592081077367068,-0.8114870632767677,-0.1873755060017108,-0.3982012569904327,0.3759836852550506,-0.5179352164268494,-1.8115533092565836,-9.637407532060145,0.0950487208894454,100,standing
1783068598653182200,1.2352858,2.03443282096833,-0.7368208216100931,0.3101274409234523,-0.5358070731163025,0.2323641926050186,-0.6121565699577332,-1.7577530377469957,-9.647729604110122,0.0448127725316211,100,standing
1783068598663144200,1.2452478,1.0863482527688144,-0.8480717038303613,0.3249199363857507,-0.5661084055900574,0.2780831754207611,-0.7471199035644531,-1.69253047786057,-9.65948083218038,-0.0130754167455714,100,standing
1783068598673106200,1.2552098,0.7695935026600956,-0.7021224331945181,0.0763233520907815,-0.4567432999610901,0.3829778730869293,-0.8941857814788818,-1.6129511835806072,-9.672852354928851,-0.068691948463465,100,standing
1783068598683068200,1.2651718,0.856136644603312,-0.6762275289595127,-0.1694774457395076,-0.2436421662569046,0.4263551831245422,-0.9799407720565796,-1.5218747821219265,-9.687225163674354,-0.1094466275435872,100,standing
1783068598693030100,1.2751337,1.137424360011518,-0.5912035594075918,-0.4519055633544921,-0.0028940048068761,0.3956412076950073,-1.018304467201233,-1.4247289976216853,-9.701769821855423,-0.1273417012642603,100,standing
1783068598702992100,1.2850957,1.2059919925421476,-0.5530056384384632,-0.189150698980689,0.1823371946811676,0.3407272398471832,-0.9927241802215576,-1.3265999011725187,-9.715725866493582,-0.1232926633354742,100,standing
1783068598712954400,1.295058,1.1106440512441098,-0.5758534300625324,0.1875666446596384,0.1995651870965957,0.2661051750183105,-0.9492664337158204,-1.232149639366567,-9.728342771482469,-0.107510617979709,100,standing
1783068598722916000,1.3050196,0.907798004388064,-0.5074994402825832,0.5996890636801719,0.0614915452897548,0.2136306464672088,-0.8593295812606812,-1.1437765055172144,-9.739234752374887,-0.0973557557228021,100,standing
1783068598732878300,1.3149819,0.7431230635594576,-0.5366460397899151,1.076117658394575,-0.0487960800528526,0.1014777496457099,-0.719017505645752,-1.0667890543613583,-9.747945882096886,-0.0994325985294766,100,standing
1783068598742840300,1.3249439,0.4241059214767068,-0.2488227851331234,1.0002952324301004,0.0330474227666854,0.1124823689460754,-0.5149490237236023,-1.0066448937177657,-9.75430080408156,-0.1032177065587602,100,standing
1783068598752802000,1.3349056,0.3988886242423206,0.6624240445345639,1.3142097906768322,0.3675963878631592,0.236115351319313,-0.3641746342182159,-0.9643690557852388,-9.758744339486956,-0.0853855694059282,100,standing
1783068598762764300,1.3448679,0.1445018483065068,1.4658622413903477,0.8759767788439988,0.5539972186088562,0.1604935824871063,-0.2865773439407348,-0.9330918009247632,-9.762069684517384,-0.0412981063410174,100,standing
1783068598772726300,1.3548299,-0.3759397103313356,1.2848457490265368,0.6225672504425048,0.6164265275001526,0.1320859044790268,-0.3068655729293823,-0.9048082479875534,-9.764808754092456,0.0147390174176136,100,standing
1783068598782688300,1.3647919,-0.8154261562913656,0.9610556934535502,1.1610580413162708,0.5746207237243652,0.1715277135372162,-0.4586585164070129,-0.867099060383439,-9.767976862734557,0.0718064272221876,100,standing
1783068598792650200,1.3747538,-1.2382635922022165,0.4381412418961524,1.0545663363218307,0.4283556938171386,0.1662791669368744,-0.5295470356941223,-0.8192533864293247,-9.771638307851552,0.1196394928564783,100,standing
1783068598802612200,1.3847158,-1.2233812995646147,0.3661410045683383,0.94686350197196,0.257984310388565,0.2570835649967193,-0.5602153539657593,-0.7662006453514099,-9.77550433562994,0.151177060887264,100,standing
1783068598812574200,1.3946778,-0.7672149369604885,0.7143442013859749,0.728905810701847,0.1661132276058197,0.2548933923244476,-0.5346114635467529,-0.7128508210230619,-9.779240599548816,0.1693691265268251,100,standing
1783068598822536200,1.4046398,-0.2486317926056682,1.1089870778173208,0.5717839886665343,0.0987300351262092,0.3810184001922607,-0.6327098608016968,-0.6602670856963843,-9.782730779752134,0.1805943396952934,100,standing
1783068598832498200,1.4146018,0.4589787896763533,1.4795944141447543,0.6931131973087787,0.0835825055837631,0.2004571557044983,-0.5417138934135437,-0.6003862886967137,-9.786426711660624,0.189149639534764,100,standing
1783068598842460200,1.4245638,0.4054072854213416,0.1860176616519689,-0.6316881300091743,0.0156057123094797,0.0341331213712692,-0.3452737927436828,-0.5580378969846292,-9.788860660809275,0.1928008920513093,100,standing
1783068598852422100,1.4345257,1.4416884618595245,0.5097130246788263,-1.1933680732905865,0.0454815849661827,-0.2748207151889801,-0.3163715898990631,-0.5268041159396991,-9.79053765411079,0.1955847323498688,100,standing
1783068598862384000,1.4444876,1.9663442041262984,2.747308411106467,-1.244718321299553,0.3273203372955322,-0.1280857771635055,-0.7948429584503174,-0.4678731304781511,-9.793143452695013,0.2140150545915588,100,standing
1783068598872346000,1.4544496,0.6796139565274119,1.7287708350211382,-0.4251438131570815,0.205995500087738,-0.0989523753523826,-0.8919908404350281,-0.3869228766385466,-9.796033328917622,0.2416887320021167,100,standing
1783068598882308400,1.464412,0.8551951259694993,0.7455629309922456,-1.0689701247274874,0.1544958353042602,-0.0923972502350807,-0.8826999664306641,-0.2989920797292142,-9.798637373936176,0.2601788581396453,100,standing
1783068598892270000,1.4743736,0.4110127772781998,0.7691296845406294,-0.7265583707928657,0.1281166970729828,0.0689663365483284,-0.7058913707733154,-0.2193268607314676,-9.800357621857524,0.2743536600950174,100,standing
1783068598902232000,1.4843356,0.5376998962244018,-0.082836104118824,-0.7603601026296615,0.1153883710503578,0.0972870886325836,-0.484091579914093,-0.1606130251519381,-9.801176537024974,0.2855602050956338,100,standing
1783068598912194300,1.4942979,0.6701268739968538,-0.094076460057497,-0.8430547524511813,0.1693096607923507,0.1291105449199676,-0.3119371235370636,-0.1239495198090095,-9.801308638972044,0.2989725165122188,100,standing
1783068598922156000,1.5042596,0.5938651432996616,0.1905722562164068,-0.6174222887694836,0.2363366186618805,-0.0115852495655417,-0.2061346918344497,-0.1030539034323301,-9.800897720083594,0.3196427266351878,100,standing
1783068598932118300,1.5142219,0.5209277712522075,0.7188245616704225,-0.4574432872047647,0.3267954289913177,0.174979031085968,-0.0410975255072116,-0.0877268901013769,-9.800032627686855,0.3494047911597415,100,standing
1783068598942080300,1.5241839,0.3083852368986234,-1.6695260343700646,2.783706004655361,0.1341098845005035,0.4031576514244079,0.338080883026123,-0.0991917846440803,-9.798998023942112,0.3743955496292561,100,standing
1783068598952042000,1.5341456,-0.66038691268377,-2.507586631795764,0.5146306073367596,-0.0927416458725929,-0.0027326133567839,0.6939342617988586,-0.1524444322082679,-9.79831062619984,0.3745161803342401,100,standing
1783068598962004200,1.5441078,-0.5378882949359715,-0.4621791200876236,0.9185141903221606,-0.149767130613327,-0.2049896717071533,0.7116013765335083,-0.2221211858914233,-9.797423321971296,0.362683119199425,100,standing
1783068598971966200,1.5540698,-1.1933457153283058,0.492654337850213,1.351836633759737,-0.1822736710309982,-0.4477879405021667,0.5759074687957764,-0.2841759841956198,-9.79637235161364,0.3474476292099803,100,standing
1783068598981928200,1.5640318,-2.1682861417494714,0.4766279166787862,1.031883379870653,-0.3021442294120788,-0.509223461151123,0.3224455416202545,-0.3278188726976513,-9.795759772673248,0.3256294363619759,100,standing
1783068598991890200,1.5739938,-3.243875246225297,0.7996662771016358,0.642516982537508,-0.3311774730682373,-0.3292158842086792,0.0463156998157501,-0.3435367028439417,-9.796179459390045,0.295411883154884,100,standing
1783068599001852200,1.5839558,-3.174783297559619,-0.578737461066246,1.082874731439352,-0.2816816866397857,-0.1332633346319198,-0.0933511033654213,-0.3402039051594212,-9.797133983635902,0.2661088692431338,100,standing
1783068599011814100,1.5939177,-2.7287752678111192,-2.0298042843848467,0.0690226828217506,-0.2220348566770553,-0.0476294010877609,-0.2326773107051849,-0.3244303993031382,-9.798300104805827,0.2417744192578829,100,standing
1783068599021776100,1.6038797,-2.148970031382889,-1.419808930745721,-0.4271148209691047,-0.1199766546487808,0.0513250641524791,-0.4284453392028808,-0.291918469814863,-9.799718739432096,0.2251044212196022,100,standing
1783068599031738400,1.613842,-1.7163759022198617,-0.6220990484088659,-0.3514543075680733,-0.0585769452154636,0.2267125993967056,-0.5256301760673523,-0.2449242615909315,-9.80120634764135,0.2161815667093731,100,standing
1783068599041700000,1.6238036,-0.896678206089139,-0.552364417925477,-0.4321896400153636,0.0089436369016766,0.2791592180728912,-0.5133320093154907,-0.1943294533254578,-9.802407540124657,0.2131198410511948,100,standing
1783068599051662000,1.6337656,-0.1355244414642918,-0.0897059898883104,-0.6840063462674617,0.0876328572630882,0.2506279945373535,-0.4471348822116852,-0.1475897495855577,-9.803133516311645,0.2171362553520128,100,standing
1783068599061624300,1.6437279,0.5252373415470123,0.0466740728914737,-0.7451449978411198,0.1897384524345398,0.1873461306095123,-0.3582828938961029,-0.1086461156825069,-9.803343359670045,0.2302423138310201,100,standing
1783068599071586000,1.6536896,0.9985011155549436,-0.0240986684679985,-0.9093266752600668,0.2949176132678985,0.1590511053800583,-0.2644605338573456,-0.0785291733056772,-9.803051683247087,0.2537640957265161,100,standing
1783068599081548300,1.6636519,1.0532130220167335,-0.3340051601171493,-0.9293430428504944,0.3684491813182831,0.1724803149700164,-0.1823368072509765,-0.0573747004968347,-9.802295896443724,0.2864994952397421,100,standing
1783068599091510300,1.6736139,0.8985321633927523,-0.6850999867230654,-0.4164648321390152,0.2887109220027923,0.3001258671283722,-0.1187333464622497,-0.0433532533391146,-9.80135364715755,0.3193507944839075,100,standing
1783068599101472300,1.6835759,0.8878414041608571,-0.4583469945788383,0.3396925581037998,0.1492880880832672,0.3017569780349731,-0.0443010367453098,-0.0362538399799377,-9.800657481586931,0.3408590080672875,100,standing
1783068599111434200,1.6935378,0.9503046554017812,-0.1117114854693412,0.7719324670016765,-0.013492845930159,0.3046960532665252,0.0313090346753597,-0.0366175975417019,-9.800433025181292,0.3472067331261932,100,standing
1783068599121396500,1.7035001,1.1193865990176797,0.087688804847002,0.964293944722414,-0.1382875442504882,0.266071081161499,0.1095988303422927,-0.0445395816134288,-9.800665664893389,0.3396476229835301,100,standing
1783068599131358700,1.7134623,1.0548899422530085,0.3438368183016776,0.9242039263963698,-0.2449213117361068,0.2070908546447754,0.1595658510923385,-0.0586027992533752,-9.801233235648274,0.3206312262158841,100,standing
1783068599141320400,1.723424,0.78182900711596,0.3485907348304987,0.5516811118364334,-0.2978943586349487,0.1511773765087127,0.1887331157922744,-0.0764374114910839,-9.801946352353692,0.2939211331404745,100,standing
1783068599151282400,1.733386,0.3978391517220064,0.2677192087829113,-0.0058849846516735,-0.2804466784000397,0.0506702177226543,0.1365982741117477,-0.092877660460677,-9.802626735833286,0.2650574056951329,100,standing
1783068599161243400,1.743347,-0.0914001078545581,0.4856529346555471,-0.5389525996992364,-0.1935224682092666,0.0796532034873962,0.0560326166450977,-0.1017820842650718,-9.803136438921094,0.2419224859590642,100,standing
1783068599171205600,1.7533092,-0.226725629213266,-0.2295785709589719,-0.6410778896450996,-0.1429503709077835,0.13619264960289,0.0417599380016326,-0.1066670067624188,-9.803473123529551,0.2256839929395355,100,standing
1783068599181167600,1.7632712,-0.1108842317318078,-0.6818547211915255,-0.6026338849604129,-0.1201098561286926,0.1850401610136032,0.054444670677185,-0.1116268211268819,-9.80370225611031,0.2129779848950914,100,standing
1783068599191130600,1.7732342,0.0790002066172193,-0.4189128098130226,-0.1970633900676854,-0.121950626373291,0.2315892875194549,0.0705727711319923,-0.1179060475268401,-9.803878781720996,0.2011035140376537,100,standing
1783068599201091600,1.7831952,0.2762900532513856,-0.2296346850603818,0.0607400076448917,-0.149341270327568,0.2009067237377166,0.1303411275148391,-0.1282983261356595,-9.80401555984318,0.1876579031396657,100,standing
1783068599211053600,1.7931572,0.3065502400238066,-0.0974164181351661,0.159939217543602,-0.1609364002943039,0.155675858259201,0.1508040577173233,-0.1423978891640435,-9.804103822648525,0.1722559888084419,100,standing
1783068599221015600,1.8031192,0.1031679126002825,-0.0173871881306171,0.3042740569864399,-0.2246403247117996,0.6025994420051575,0.3498831391334533,-0.1634719947796314,-9.80407810368538,0.1540657589329406,100,standing
1783068599230977500,1.8130811,1.1099820802040397,-2.602887665212154,3.259036867260933,-0.4598650634288788,0.3373712301254272,0.4586706161499023,-0.2088644303627312,-9.803715700113774,0.1179853141749743,100,standing
1783068599240939500,1.8230431,-0.0752988039491698,2.251366722148657,-2.0789012005090712,-0.3882398903369903,-0.3680538833141327,0.2004570364952087,-0.2399875541074201,-9.8034251927346,0.0749538538358639,100,standing
1783068599250901500,1.8330051,-1.0360039669319987,2.4318361020237207,-1.6240262659549711,-0.2095638960599899,-0.211943119764328,0.2064464837312698,-0.2583612873236648,-9.803134685355424,0.0468458994941553,100,standing
1783068599260863500,1.8429671,-0.7110738014131784,0.005167758026719,-0.3144797909140586,-0.093497484922409,-0.1714780479669571,0.170106291770935,-0.2766841854018159,-9.802690448719265,0.0333110645263106,100,standing
1783068599270825700,1.8529293,-1.2687316495716572,0.2047135942935943,-0.6306196239948272,-0.0956700891256332,-0.1225837394595146,0.1086796820163726,-0.2903424709361046,-9.802319861841202,0.0250365954887936,100,standing
1783068599280787500,1.8628911,-0.92145075523071,-1.8405454488545656,1.9533949984431265,-0.3660984337329864,0.7970125079154968,0.5121499300003052,-0.3205412829101085,-9.801409176737067,0.0047623615572359,100,standing
1783068599290749400,1.872853,0.1215932298732921,-2.3311299946933985,2.031363204264641,-0.5400571823120117,-0.0054434677585959,0.3082426190376282,-0.3628087183404713,-9.79983973546326,-0.0432779733129311,100,standing
1783068599300711700,1.8828153,-1.4282882975384592,3.71309639377892,-3.178889563834667,-0.3950879871845245,-0.4044937491416931,0.0775612667202949,-0.3805310567095875,-9.798857738688588,-0.0893451754855923,100,standing
1783068599310673400,1.892777,-1.354223528896272,1.3629028021752834,-1.1315911238133909,-0.1829134076833725,-0.1901987642049789,0.0762384757399559,-0.3883062938209622,-9.798272632277012,-0.1159375239328481,100,standing
1783068599320635600,1.9027392,-1.0731889114663005,-0.1410831259042024,-0.9081704909622668,-0.0344343297183513,-0.1202138513326644,-0.006245236378163,-0.3923618162894621,-9.79799615342319,-0.1253765112716704,100,standing
1783068599330597600,1.9127012,-1.4810954663574696,-0.0432873530626296,-0.8724737391591072,0.0176959801465272,0.3428342044353485,0.0213264692574739,-0.3902722235990688,-9.798079740053415,-0.1254597599751781,100,standing
1783068599340559400,1.922663,-0.2616574245259165,-2.7695553142279383,2.480200612220168,-0.1638105809688568,0.2738740146160126,0.0715489611029625,-0.3986931382028386,-9.797608030888435,-0.135230089027062,100,standing
1783068599350521600,1.9326252,-0.7356927674282342,1.4673147782862186,-2.3771172543644905,-0.0832454487681388,-0.1634434163570404,-0.1413164287805557,-0.3934727001408115,-9.79764017959237,-0.1477179973414167,100,standing
1783068599360483300,1.9425869,-0.9470859125509856,0.9187760561287402,-0.7432236743897199,0.0143030509352684,0.0381359905004501,-0.1258346140384674,-0.3800499951943755,-9.798120656585692,-0.1508610446074977,100,standing
1783068599370445600,1.9525492,-0.3745090930063277,-0.550074261161685,-0.2725818281169049,0.0803097635507583,0.0351180955767631,-0.1608636975288391,-0.3664965400077402,-9.798711608216166,-0.1459544674007687,100,standing
1783068599380407600,1.9625112,-0.5916558332197368,-0.1213940905719995,-0.5935901622831821,0.071513831615448,0.0631779506802558,-0.1665302067995071,-0.3498641157671809,-9.799428232052922,-0.1384371597063727,100,standing
1783068599390369500,1.9724731,-0.1809089403361082,-0.2921358571588993,-0.1034878287370316,0.0557809360325336,0.048116710036993,-0.1335932910442352,-0.3351912280965596,-9.800021521770953,-0.1326408031862229,100,standing
1783068599400331500,1.9824351,0.0703906832393258,-0.3240098358035087,-0.230617266356945,0.0420914031565189,-0.012765921652317,-0.1022388786077499,-0.3237269637415185,-9.800469850060344,-0.1279145509824622,100,standing
1783068599410293500,1.9923971,0.1028740624865516,-0.2442155835986137,-0.2253086385548114,0.0336915291845798,-0.0802432373166084,-0.0843056812882423,-0.3149106200793757,-9.800807119190692,-0.1240953580204863,100,standing
1783068599420255500,2.0023591,-0.0101329061534255,-0.0995206969380378,-0.3597977730214595,0.0412648245692253,-0.1433395743370056,-0.076100081205368,-0.3072484148884192,-9.801102887266874,-0.119940384632349,100,standing
1783068599430217500,2.0123211,-0.1011084227872081,-0.0072328738629817,-0.3656336395680904,0.0532876625657081,-0.196397989988327,-0.062386929988861,-0.3008181261125952,-9.801361830464003,-0.1148522859794087,100,standing
1783068599440179700,2.0222833,-0.0344011955672875,-0.0231868143200874,-0.3293810074478387,0.0542239770293235,-0.2348382472991943,-0.0327035784721374,-0.296298091404885,-9.801570504778622,-0.1087575584340374,100,standing
1783068599450141400,2.032245,-0.0257672227347269,-0.061101242172718,-0.0894920640098396,0.0169112272560596,-0.2478158324956894,-0.00319628813304,-0.2947564879860729,-9.801664028280973,-0.1044378594708628,100,standing
1783068599460103400,2.042207,0.1252829329703934,-0.0500870962053537,0.1418938668983522,-0.0331020578742027,-0.2660623490810394,0.0385586507618427,-0.2967675538138486,-9.801603238004445,-0.104335157148214,100,standing
1783068599470065700,2.0521693,0.2199006420314312,-0.0012228197932243,0.2812310167849063,-0.0752782672643661,-0.2898281216621399,0.0639572143554687,-0.3022014519634656,-9.801386964905262,-0.1089986554472241,100,standing
1783068599480027400,2.062131,0.174158004771173,0.2623456990510225,0.2908429130052216,-0.0658094808459281,-0.3087841868400574,0.0513003915548324,-0.3077844579938799,-9.801143803799151,-0.1150186737885698,100,standing
1783068599489989600,2.0720932,0.0462147482840344,0.2537199095249176,0.0349491483062505,-0.059846393764019,-0.3168607652187347,0.0555590502917766,-0.3136170731374993,-9.800898304605484,-0.1200932462396565,100,standing
1783068599499951600,2.0820552,-0.0050559682153165,0.3131839058846235,0.0541717534367926,-0.0484397038817405,-0.3122617900371551,0.0614007674157619,-0.3195078847417608,-9.800655728021264,-0.1242025447220075,100,standing
1783068599509913300,2.0920169,-0.0065359045747667,0.2738140185266733,-0.0289554608494043,-0.0448854491114616,-0.2965251803398132,0.0964599549770355,-0.3276049011534079,-9.800342424288392,-0.1278644373635761,100,standing
1783068599519875600,2.1019792,0.0339124987348914,-0.0037152211308479,-0.056176636118954,-0.0307437945157289,-0.2889949083328247,0.1094209104776382,-0.3382752021191642,-9.799941442272068,-0.130720831441693,100,standing
1783068599529837600,2.1119412,-0.0612316270867362,-0.0331061507880687,-0.1190542494475841,-0.0007784371264278,-0.2761462330818176,0.0831094086170196,-0.3483264578711241,-9.79958079226613,-0.1314393549745902,100,standing
1783068599539799600,2.1219032,-0.2062979774082079,-0.0195662857353687,-0.1617763698428869,0.0198034085333347,-0.256820946931839,0.0579278916120529,-0.3554415140407159,-9.799353997772933,-0.129268541140994,100,standing
1783068599549761500,2.1318651,-0.2990758855551481,-0.0978226608484983,-0.0698795827788766,0.0188172403723001,-0.2117251008749008,0.0361552201211452,-0.3603769246162846,-9.79920786730051,-0.1265948466860223,100,standing
1783068599559723500,2.1418271,-0.290936966230534,0.1102197856068611,-0.0401402872085571,0.0162114240229129,-0.1936397403478622,0.0320369526743888,-0.3640269350238144,-9.799104991447924,-0.1241618291191291,100,standing
1783068599569685500,2.1517891,-0.2383799727803096,0.1371627375900745,-0.0447276058656629,0.0181406196206808,-0.1760599464178085,0.055245604366064,-0.3685501115366816,-9.798962952628733,-0.121968547725398,100,standing
1783068599579647500,2.1617511,-0.2343755594445392,0.1122632741332054,-0.0923573720467742,0.0346654988825321,-0.1718943566083908,0.0762947499752044,-0.3750982910711318,-9.798753693792223,-0.1187816978502087,100,standing
1783068599589609700,2.1717133,-0.3217745144994929,0.1783189238429069,-0.1003086233121808,0.0503038465976715,-0.1672950685024261,0.0670093744993209,-0.3825697229303419,-9.798519300514458,-0.1141218345467001,100,standing
1783068599599571500,2.1816751,-0.5244529131710529,0.3104822457104921,-0.1048445131761487,0.074316456913948,-0.1795229464769363,0.0281279161572456,-0.3874386806735769,-9.7984035651803,-0.1074916484177578,100,standing
1783068599609533400,2.191637,-0.7270497345063835,0.4356371501207351,-0.2149444809287786,0.1384797245264053,-0.2193910032510757,-0.0841656029224395,-0.3850570097014307,-9.79860990140736,-0.0966006813054904,100,standing
1783068599619495700,2.2015993,-0.8660354497399181,0.6539321105211973,-0.4068523696631193,0.1973308771848678,-0.2337767630815506,-0.1299972236156463,-0.3743107939552516,-9.799185070946812,-0.0791703481528908,100,standing
1783068599629457400,2.211561,-0.6980646091710776,0.3462789507567882,-0.3619593349695205,0.2119894474744796,-0.1559149920940399,-0.0249698739498853,-0.366307593306899,-9.79963456827998,-0.0580731813221238,100,standing
1783068599639419600,2.2215232,-0.8738925199158489,-0.6210632756203412,-0.276602772462368,0.1891025602817535,-0.0564417317509651,0.0297522023320198,-0.3672018022002652,-9.799698865687846,-0.0379356167711317,100,standing
1783068599649381600,2.2314852,-1.17577396441102,0.0098263974875211,-0.0431722022503614,0.1892367899417877,-0.0213668327778577,-0.0169402007013559,-0.3681866485191509,-9.799716985866429,-0.0195258053112193,100,standing
1783068599659343400,2.241447,-1.1560025114923715,0.1921931354165077,-0.1722457414090633,0.2318876683712005,-0.0049210945144295,-0.1343505531549453,-0.3617718130407855,-9.799974175497889,0.0004618633033102,100,standing
1783068599669305600,2.2514092,-0.9829705881416796,0.4893997199684381,-0.3414379404664039,0.2886324226856231,-0.0678971260786056,-0.1986073106527328,-0.3434170219870284,-9.800599613919854,0.0266004678216297,100,standing
1783068599679267300,2.2613709,-1.0091619911052283,-0.2909644752919674,-0.3586298982858658,0.2418704479932785,-0.0346393100917339,-0.1241032555699348,-0.3272513384753838,-9.801044435077904,0.0532196403437294,100,standing
1783068599689229600,2.2713332,-0.9783500156689434,-0.0524783752560615,-0.0133446256083901,0.2204849869012832,-0.0162866674363613,-0.1386673003435135,-0.3148183386860415,-9.801308638972044,0.0751446363007649,100,standing
1783068599699191600,2.2812952,-0.9825548469476402,0.2820657140433788,-0.2546995682120323,0.2532178461551666,-0.0182103849947452,-0.1567739695310592,-0.3002882387532852,-9.8015605679065,0.0980289057440124,100,standing
1783068599709153500,2.2912571,-0.8140956383399665,-0.0872024826347827,-0.2140402438317425,0.2745540142059326,0.010048683732748,-0.1700591593980789,-0.2842442453925498,-9.80174644586742,0.123808494769968,100,standing
1783068599719115500,2.3012191,-0.7257164400760084,-0.1076122334569692,-0.1018400615300051,0.2875837385654449,0.041648756712675,-0.1702143847942352,-0.2674284274091013,-9.801839969369768,0.1510705409060232,100,standing
1783068599729077500,2.3111811,-0.4741454522132873,-0.1480897897958755,-0.057733245310653,0.3106869459152221,0.0807655304670333,-0.1517693400382995,-0.2517466914894991,-9.80176281248033,0.1801365859904326,100,standing
1783068599739039500,2.3211431,-0.2122289931586943,-0.1560275970578193,-0.103293182947766,0.3322891592979431,0.1100686490535736,-0.1096219569444656,-0.2390780015144497,-9.801458276575802,0.2113310031393542,100,standing
1783068599749001500,2.3311051,0.081998118924722,0.0456540821939706,-0.1893745343318209,0.4017789959907532,0.0887343361973762,-0.0788323506712913,-0.231336392678041,-9.8008293310225,0.246236896825768,100,standing
1783068599758963700,2.3410673,0.3856664103040471,0.1047919153392314,-0.3262555323710664,0.3895434141159057,0.1099298894405365,0.041340846568346,-0.2289957661023363,-9.799813431978226,0.2857031572302803,100,standing
1783068599768925400,2.351029,0.1614188433757983,-0.7171569207191467,0.1652723952651023,0.3260595202445984,0.1043782606720924,0.0581291504204273,-0.234142590938881,-9.798625683498384,0.3201516625380143,100,standing
1783068599778887400,2.360991,-0.017065207900945,0.1203676701337099,0.1438812687227502,0.3145063519477844,0.0552691258490085,0.0668305978178978,-0.2403115070984698,-9.797432089799642,0.3506712308989838,100,standing
1783068599788849700,2.3709533,0.0061139163030311,-0.1425450151503086,-0.0903788111159577,0.3208686411380768,0.0043430933728814,0.0850487500429153,-0.2477785550435073,-9.796084766843917,0.3817231891036033,100,standing
1783068599798811400,2.380915,-0.0224619341116398,0.0789729989498853,0.0258007962107658,0.3342490196228027,-0.1041407436132431,0.0316634811460971,-0.2543675415123813,-9.794643335863949,0.4130859668230637,100,standing
1783068599808773600,2.3908772,0.1641388246579095,1.020996075153351,-0.0079506667435169,0.3141594529151916,-0.1466091126203537,0.1246908977627754,-0.2596077619871124,-9.79305168275833,0.4462398657429963,100,standing
1783068599818735600,2.4008392,0.268036567636393,-0.8011474555701017,0.372276219387725,0.1891412585973739,-0.0598913989961147,0.2276760935783386,-0.2771645527972839,-9.791400408419966,0.4712309164734557,100,standing
1783068599828697300,2.4108009,-0.1749615214400924,-0.2383288636475801,0.6688204675734043,0.1347571164369583,-0.0671333372592926,0.1717880666255951,-0.2965466045395471,-9.790084065124391,0.4865309230664744,100,standing
1783068599838659600,2.4207632,-0.4970690124873071,0.2489806060433387,0.204223764950037,0.1384117305278778,-0.0299541018903255,0.1327413916587829,-0.3106747360752895,-9.788976396143436,0.4998206492830067,100,standing
1783068599848621600,2.4307252,-0.2865889636214822,0.0115121586173772,-0.0204045266577973,0.1603641659021377,0.0150637058541178,0.1497938781976699,-0.3243814455948769,-9.787785140532254,0.5142089113259688,100,standing
1783068599858583600,2.4406872,-0.1975166319942101,0.011887421670556,-0.2818926955640315,0.1838131994009018,0.037425260990858,0.165388211607933,-0.339981677243486,-9.786365336862206,0.5308893759593367,100,standing
1783068599868545500,2.4506491,-0.3120028794065118,0.0207335759490728,-0.3831576423535123,0.2009556889533996,0.0110013773664832,0.1936478018760681,-0.3570267739381641,-9.78473685887754,0.5494047644022851,100,standing
1783068599878507500,2.4606111,-0.2402453282607719,0.1427203717172145,-0.4264636635839939,0.1808410584926605,0.0783123895525932,0.1687183678150177,-0.375962360554561,-9.782973356336354,0.5678713452674448,100,standing
1783068599888469500,2.4705731,-0.6175911425303667,0.1419552325636148,-0.2356278245279565,0.1705458015203476,0.0610191524028778,0.0914616584777832,-0.3890209083637222,-9.781459444642069,0.5848821013011037,100,standing
1783068599898431500,2.4805351,-0.7974260238941758,0.3224661134928465,-0.240754118033126,0.1285773664712906,0.0596659332513809,0.0424845069646835,-0.3959337930247187,-9.780309690085051,0.5992851225217803,100,standing
1783068599908393700,2.4904973,-0.6653193275846541,0.3106143476575613,-0.1294003234276547,0.0862994194030761,0.0442150719463825,0.0275036934763193,-0.3996515349062159,-9.77953169144988,0.6094369891040027,100,standing
1783068599918355500,2.5004591,-0.515375178626366,0.3654764031797647,-0.1904278793096542,0.0592932254076004,-0.0146994115784764,0.0095174815505743,-0.4014545292075723,-9.77902841810286,0.6162962804142386,100,standing
1783068599928317400,2.510421,-0.4646304222298786,0.1104512562751769,-0.2207048710864037,0.0110868131741881,-0.0334374159574508,0.044566810131073,-0.4037168115837499,-9.778687641841172,0.6202372731249779,100,standing
1783068599938279700,2.5203833,-0.3491591823682188,-0.504137270373106,0.3547078294713049,-0.0951962769031524,0.1408359259366989,0.1732838004827499,-0.4141421613451093,-9.778511116230488,0.6161406514611095,100,standing
1783068599948241400,2.530345,-0.1006355628447607,-1.08116266682446,1.4065467135906218,-0.2351770848035812,0.1263541877269745,0.2198278605937957,-0.4362642325105145,-9.77863620391488,0.5985969210619106,100,standing
1783068599958203600,2.5403072,-0.3722891519345342,0.8364414717912674,-1.2274223185837267,-0.1406173706054687,-0.2735429108142853,0.0605786330997943,-0.4483235036166385,-9.77923475432992,0.5796410588424652,100,standing
1783068599968165600,2.5502692,-0.5995318638244643,0.9290349998146294,-1.1097639074087142,-0.0673628747463226,-0.1436419039964676,0.0775783881545066,-0.4534680634308606,-9.779501296311617,0.5710682050799951,100,standing
1783068599978127400,2.560231,-0.3899092355055734,-0.047639703053236,0.0077461571473628,-0.0461480915546417,-0.1251139342784881,0.0494740009307861,-0.4594337669022381,-9.77951181770563,0.5661145281953737,100,standing
1783068599988089600,2.5701932,-0.531059983285889,0.0786912593990564,-0.3314683351159095,-0.0200608279556036,-0.1085978001356124,0.0177285876125097,-0.4617856272580102,-9.779547473540902,0.5635565508082508,100,standing
1783068599998051600,2.5801552,-0.3598554214928299,0.0456932451605796,-0.1089421303538605,-0.0202237106859684,-0.1055551990866661,0.0052887671627104,-0.4621038628943264,-9.779617616167664,0.5620443926796317,100,standing
1783068600008013600,2.5901172,-0.2201222123602405,0.1930529671162366,-0.0383750676343217,-0.030062761157751,-0.1068396419286727,0.0065841288305819,-0.4619259855767711,-9.779735105067491,0.5601614650098606,100,standing
1783068600017975600,2.6000792,-0.1179662350151687,0.2793763288289308,0.0467663177521899,-0.0425141341984272,-0.1400062888860702,0.0273990575224161,-0.4629268697150051,-9.77986603797078,0.5570205731682479,100,standing
1783068600027937500,2.6100411,-0.1630706109045073,0.2274550029337406,0.0483622451741248,-0.0586491636931896,-0.1683053076267242,0.0270467214286327,-0.4646591368677094,-9.780021520793438,0.5528823408523574,100,standing
1783068600037899500,2.6200031,-0.288789615470916,0.1856441521644592,0.0715724403697997,-0.0755209475755691,-0.1837835758924484,0.032763484865427,-0.4665811544388532,-9.78025883668065,0.5470299250297248,100,standing
1783068600047861500,2.6299651,-0.310680106370151,0.1338654496103525,-0.0479530798513442,-0.0863661393523216,-0.1840650588274002,0.0297192279249429,-0.4686323878802358,-9.780551682147385,0.5399617036765441,100,standing
1783068600057823500,2.6399271,-0.3860146026872098,0.0900736541569232,-0.1048117160182446,-0.0925727933645248,-0.1664968580007553,0.0233030915260314,-0.4703614401625469,-9.780905317890644,0.5320277323395014,100,standing
1783068600067785500,2.6498891,-0.4162329961445182,0.0575584549993276,-0.1228629940807819,-0.0968556925654411,-0.1433617025613784,0.0171226952224969,-0.4714172328257933,-9.781309222516416,0.5235925700146704,100,standing
1783068600077747500,2.6598511,-0.3222120656665414,0.0816530318140983,-0.1098679034292697,-0.0993424728512764,-0.11277686804533,0.0119255362078547,-0.4720644081555307,-9.781761642459037,0.5144885319849476,100,standing
1783068600087709400,2.669813,-0.1969172047963366,0.152809219533205,-0.1119709401231259,-0.0916278287768364,-0.0871261060237884,0.0308579467236995,-0.4736090437816456,-9.78213982812166,0.5058178438711911,100,standing
1783068600097671400,2.679775,-0.1208667422296479,0.2465185998439788,-0.1443594076285138,-0.0534100607037544,-0.0649764090776443,-0.0340042412281036,-0.474840558337979,-9.782473590120672,0.498102447188273,100,standing
1783068600107633700,2.6897373,-0.2282093284323811,0.5444564212799072,-0.2944049711346626,-0.0279350597411394,-0.0740439444780349,0.0010751856025308,-0.4713465056771412,-9.782782802200316,0.4953678345926106,100,standing
1783068600117595000,2.6996986,-0.2397564122326672,-0.6141045425236225,-0.1429611216705292,-0.0692243352532386,-0.0310324262827634,0.0393447652459144,-0.4743143790394067,-9.782866973352432,0.4908689522707835,100,standing
1783068600127557000,2.7096606,-0.2449554787131026,0.1415811385542154,0.0329904154539108,-0.0613624118268489,-0.0417244881391525,0.0326541028916835,-0.4774948357064276,-9.783031224003434,0.4844564914125949,100,standing
1783068600137519000,2.7196226,-0.2498719288598745,0.0269067116260528,-0.1536941856741905,-0.0053842030465602,-0.0307394228875637,-0.0296873729676008,-0.4790127659887075,-9.783128839159012,0.4809517712272703,100,standing
1783068600147481000,2.7295846,-0.3269046804621816,0.4516097952783107,-0.241788648712635,0.034448429942131,-0.054666593670845,-0.0561496093869209,-0.4726089633610099,-9.783310040944814,0.4836023953339085,100,standing
1783068600157443000,2.7395466,-0.4476672681976109,-0.4303343675374984,-0.1992927382886409,-0.0076131732203066,-0.0056915706954896,0.0124639989808201,-0.4706585964782163,-9.783329914689064,0.4851002326762303,100,standing
1783068600167405000,2.7495086,-0.3263660070082173,-0.0475292284160852,-0.0225894329488277,-0.0092385001480579,-0.006127796601504,-0.0025365222245454,-0.4712025671618059,-9.783362063392996,0.4839218365466222,100,standing
1783068600177367000,2.7594706,-0.3289855053242296,0.1767699408352375,-0.1811246289134025,0.022479897364974,0.0045650154352188,-0.0022114512976258,-0.4708275233043357,-9.783354464608433,0.4844396864082664,100,standing
1783068600187329000,2.7694326,-0.2455636737393215,-0.0153384389072656,-0.1683819786529987,0.0569838099181652,0.0228942222893238,-0.0438656881451606,-0.4697041087649762,-9.783232299533486,0.4880084848057478,100,standing
1783068600197291000,2.7793946,-0.3156033515838906,0.3736731536388397,-0.1430325064063072,0.0968023613095283,0.015138772316277,-0.0683483332395553,-0.4622128396941348,-9.783184953260422,0.4960272848820313,100,standing
1783068600207253000,2.7893566,-0.3171627463877201,-0.5161649772971868,-0.1404022309679538,0.0656020939350128,0.0509899817407131,-0.0235670171678066,-0.4590075043141842,-9.782941792154311,0.5037216387769207,100,standing
1783068600217215000,2.7993186,-0.1145782000120729,0.0163315415978431,0.0447837291002273,0.0619209185242652,0.0216647088527679,-0.021845331415534,-0.4568879548769444,-9.782728441664576,0.509773230433464,100,standing
1783068600227177200,2.8092808,-0.0642793607521802,0.0830991389691829,-0.1075625490963459,0.0694651156663894,0.0065653850324451,-0.0075257807038724,-0.4554120005728677,-9.78245897707343,0.5162229910947382,100,standing
1783068600237139000,2.8192426,-0.0187394429897889,0.0115156657487154,-0.0875473505496978,0.0707953795790672,-0.0093045532703399,0.0014264590572565,-0.4551627750521525,-9.78210300324261,0.5231427804205566,100,standing
1783068600247101200,2.8292048,-0.1364981362015009,0.0675707304477691,-0.06458499263525,0.0629129633307457,-0.0190972611308097,0.002033659722656,-0.4553185136031359,-9.781744691324231,0.5296588112510741,100,standing
1783068600257063000,2.8391666,-0.1758977245779708,0.0615764584690332,-0.0270212048511952,0.0556881986558437,-0.0217027030885219,-0.0016484293155372,-0.455124123542197,-9.78143723281026,0.5354895632311701,100,standing
1783068600267025000,2.8491286,-0.154376066991128,0.0731166741371154,-0.067141618315503,0.0474363937973976,-0.0170917063951492,0.0023060985840857,-0.45494840164911,-9.781156662303207,0.5407444515520706,100,standing
1783068600276987100,2.8590907,-0.1210066986896097,0.1347884096741676,-0.1051987791070714,0.0408618710935115,-0.0155057711526751,0.0137794353067874,-0.4556965896679088,-9.78087609179616,0.545133882150054,100,standing
1783068600286948900,2.8690525,-0.12657898239661,0.1277560268193483,-0.1731810129651799,0.0503794737160205,-0.0168040599673986,0.0122113665565848,-0.4570074896033853,-9.78057798563242,0.5493701314803212,100,standing
1783068600296911000,2.8790146,-0.1301952001323923,0.4653939904808998,-0.1853601110586896,0.1060517132282257,-0.0427993945777416,-0.0696940347552299,-0.4523438451739028,-9.78033424000442,0.5575088316092267,100,standing
1783068600306873000,2.8889766,-0.3041438730018213,-0.194402628159523,-0.2794960827510804,0.0569459535181522,0.0069987857714295,0.0142458723857998,-0.4497304112724959,-9.779992294698951,0.565602742748335,100,standing
1783068600316834800,2.8989384,-0.1352783851481974,-0.1438128431290388,0.0353402665156871,0.0342273265123367,-0.0052653374150395,0.0076404344290494,-0.4508520357135683,-9.779705294451118,0.5696444558871909,100,standing
1783068600326797000,2.9089006,-0.0986834789289161,0.1079991869479417,-0.2147158598046749,0.048805471509695,-0.0275890175253152,0.0259198378771543,-0.452431961848773,-9.779377962192893,0.5739955272361635,100,standing
1783068600336759000,2.9188626,-0.0430708242351189,-0.1114957968920469,-0.1685772820293903,0.0485915802419185,-0.0347295813262462,0.0348151139914989,-0.4552223962849006,-9.778951261213422,0.579033777131699,100,standing
1783068600346721000,2.9288246,-0.1743275526518002,-0.0125637134969234,-0.1383762050330639,0.0502568520605564,-0.032129269093275,0.0279265828430652,-0.458040851239115,-9.77852397571206,0.583996696768701,100,standing
1783068600356683000,2.9387866,-0.190386560918577,0.0109697223037481,-0.1342050568282604,0.0523987226188182,-0.023256542161107,0.0196710973978042,-0.4602378498267382,-9.77811539491117,0.589103408790566,100,standing
1783068600366645000,2.9487486,-0.1408252786856144,0.3009966244846582,-0.087410499362275,0.0906758084893226,-0.0347222499549388,-0.0800776034593582,-0.4568274933939799,-9.777846514841912,0.596177950286679,100,standing
1783068600376607000,2.9587106,-0.2422775282081216,0.08299275598526,-0.2260975969754159,0.0556114800274372,0.0015636687166988,0.008153554983437,-0.452639540184848,-9.777566528856754,0.6039324368709698,100,standing
1783068600386569000,2.9686726,-0.0525913341112434,-0.2728776144593954,0.0118424134850502,0.0324475727975368,0.0142232719808816,0.0302519332617521,-0.4548296706402674,-9.777232766857743,0.6076579967327416,100,standing
1783068600396531200,2.9786348,-0.052274084855616,0.1802460925132036,-0.1078605821948498,0.05147360637784,0.0089366640895605,0.0479489304125309,-0.4585886578476056,-9.776806065878272,0.6116907959127799,100,standing
1783068600406493000,2.9885966,-0.0532685757856816,-0.0214104522973299,-0.0476385340094566,0.0489811524748802,0.0259822271764278,0.059180811047554,-0.4640285108139738,-9.776261291477084,0.6162612821660935,100,standing
1783068600416455000,2.9985586,-0.1402872262861579,0.0687982264161109,-0.0177238727390766,0.050146784633398,0.0381455086171627,0.0725825652480125,-0.4706830367997288,-9.775639944708349,0.6210629833593965,100,standing
1783068600426417200,3.0085208,-0.1533850466597825,0.0716910252481698,-0.0852409002382308,0.055145539343357,0.0502780713140964,0.0813715308904647,-0.4785345174850895,-9.774940856528282,0.6260313463564962,100,standing
1783068600436379000,3.0184826,-0.1636019047696143,0.0674386285007,-0.1128594133954495,0.0646310523152351,0.0534052699804306,0.0928661376237869,-0.4876209833255037,-9.774131878232955,0.6316530586957931,100,standing
1783068600446341000,3.0284446,-0.1849219023045152,0.0921177272051572,-0.1590120927613228,0.0752514749765396,0.0659652724862098,0.0971937775611877,-0.4972760793667286,-9.773222946694492,0.6381520653262734,100,standing
1783068600456303000,3.0384066,-0.1550238999079912,0.2380769347131252,-0.239375815417245,0.1286151111125946,0.0448020324110984,0.0327407792210578,-0.5045784382693469,-9.772235689222812,0.6474373416744172,100,standing
1783068600466265000,3.0483686,-0.2776389471096918,0.1338549282163381,-0.4174900835335254,0.1344652771949768,0.0365270599722862,0.0641365200281143,-0.5091555369265377,-9.771115160760283,0.6606507512517273,100,standing
1783068600476227000,3.0583306,-0.4490402735838666,-0.3266898686677217,-0.0890950914483517,0.0959182009100914,0.0746312364935875,0.083970658481121,-0.5173197002902626,-9.769958976462483,0.6713345692861825,100,standing
1783068600486189000,3.0682926,-0.4835463177651166,0.1109106904804706,-0.0702864922124892,0.0920931026339531,0.0782347545027732,0.0605761148035526,-0.5247118563681841,-9.768969965425134,0.6799102360602468,100,standing
1783068600496151000,3.0782546,-0.4516078590495511,0.0695984368830919,-0.1442765151180327,0.0874232351779937,0.0771371647715568,0.0520997792482376,-0.5306131163012237,-9.768058695799112,0.6883587693233043,100,standing
1783068600506113000,3.0882166,-0.3453365188075229,0.0811924285650253,-0.069014499515295,0.0720314979553222,0.0713676959276199,0.0483620353043079,-0.5360288577396423,-9.767233935412763,0.6958458371430635,100,standing
1783068600516075000,3.0981786,-0.3079028967417776,0.0931552535593509,-0.0787724348764866,0.0713855177164077,0.0536323115229606,0.0454352907836437,-0.5411410861868411,-9.76647931765318,0.7024622596081346,100,standing
1783068600526037000,3.1081406,-0.3028419600903987,0.0868108529686927,-0.0692727851253002,0.0551508925855159,0.0364711657166481,0.0328864753246307,-0.5453039780199528,-9.765821146005392,0.7083747715875506,100,standing
1783068600535999000,3.1181026,-0.3025716187164187,0.1293091014802455,-0.0044189124207943,0.0328397527337074,0.019615164026618,0.0207984372973442,-0.5481180125273764,-9.765373402237891,0.7123543427430092,100,standing
1783068600545961200,3.1280648,-0.2126097909035161,0.3154419139444828,-0.0439607953447848,0.0439472682774066,-0.015524978749454,-0.0364312976598739,-0.5463519892355427,-9.76520622897744,0.7159834199603646,100,standing
1783068600555923000,3.1380266,-0.300058028460294,-0.0654267041563987,-0.1203391016263514,0.0096566714346408,0.0212540738284587,0.0273130610585212,-0.5461426938664168,-9.765014505797623,0.7187398790616542,100,standing
1783068600565885200,3.1479888,-0.2053818124113604,-0.0541916089147329,0.0551519053142517,-0.0045917723327875,0.0290600657463073,0.0260398052632808,-0.548941348141618,-9.764877143153548,0.7184745061237364,100,standing
1783068600575847000,3.1579506,-0.2313973473513498,0.1320885030657053,-0.1570084978539496,0.0032872916199266,0.0301433820277452,0.034204863011837,-0.5519555813962593,-9.764708800849318,0.7184492255520075,100,standing
1783068600585809000,3.1679126,-0.2204241179162636,0.0263870716661214,-0.1125402644436806,0.0019352046074345,0.0356270968914032,0.0301539283245801,-0.5554470767738298,-9.764504218187929,0.71857277886644,100,standing
1783068600595771100,3.1778747,-0.3205513659127056,0.0940402197003364,-0.079863225787878,-0.0079981973394751,0.0446248948574066,0.0244357101619243,-0.5584199551047757,-9.764370362675187,0.7180673135623336,100,standing
1783068600605732900,3.1878365,-0.3321087153786793,0.1251221711844205,-0.0529413896579295,-0.0157455988228321,0.0492231100797653,0.024356348440051,-0.561077922267653,-9.764327108055353,0.7165843815281987,100,standing
1783068600615695000,3.1977986,-0.2684015284912661,0.1551461380481719,-0.0825275496263057,-0.0129770161584019,0.0527591630816459,0.0346508473157882,-0.5643316998992115,-9.764273916563392,0.7147467908374965,100,standing
1783068600625657000,3.2077606,-0.2359975711558014,0.1515788009554147,-0.132897992817685,-0.0099311592057347,0.0543876886367797,0.0395627804100513,-0.5684542962545529,-9.764149997922775,0.7131927663285285,100,standing
1783068600635618800,3.2177224,-0.2213577089719474,0.265071324622631,-0.119084717651084,0.0280082244426012,0.0406149663031101,-0.038866925984621,-0.5691774228973314,-9.764065826770665,0.713743970470503,100,standing
1783068600645581000,3.2276846,-0.3365147683179005,0.1648416026324033,-0.2515969260215759,0.0306053403764963,0.0653810277581214,0.0018139253370463,-0.5675958527943119,-9.763944246217608,0.716670087050274,100,standing
1783068600655543000,3.2376466,-0.2515097226621583,-0.1888473321199417,-0.0515851527433842,-0.0002422586549073,0.0753719955682754,0.0450408793985843,-0.5705994185244664,-9.763700500589607,0.7176222732085734,100,standing
1783068600665505000,3.2476086,-0.2077851106934249,0.0923673180520534,-0.0730885440211743,-0.0013365517370402,0.0573344081640243,0.0497757121920585,-0.5757177479188889,-9.763446818089484,0.7169786415427922,100,standing
1783068600675467000,3.2575706,-0.1642099536653607,0.1005593923360109,-0.0537245028596371,0.0104295928031206,0.0486862659454345,-0.0100255263969302,-0.5793395186126232,-9.763259186562896,0.7166190875153988,100,standing
1783068600685429000,3.2675326,-0.2311723429564386,0.3713017483323812,-0.0523765953820198,0.020233754068613,0.0201731342822313,-0.0308469198644161,-0.5761228581210598,-9.763307117357847,0.7185637918423861,100,standing
1783068600695391000,3.2774946,-0.3406392643693834,-0.2168546984642743,-0.022862989193201,-0.0156368874013423,0.0524875447154045,-0.0038071365561336,-0.5749931965040043,-9.763374921897054,0.7185288666594773,100,standing
1783068600705353000,3.2874566,-0.2362753286512568,0.0891536167025566,0.0148060125309973,-0.0318920239806175,0.0418306402862072,0.0214372333139181,-0.5759574018936604,-9.763525144022704,0.7157254996765404,100,standing
1783068600715315200,3.2974188,-0.1790425619423389,0.0444762705862522,-0.0775461810171604,-0.0272789914160966,0.0275946892797946,0.0304742101579904,-0.5787224826928228,-9.763588272386787,0.7126082444388419,100,standing
1783068600725277000,3.3073806,-0.1597364249804988,0.0271194775938987,-0.0444774396300315,-0.0230261888355016,0.0222324151545763,0.0325749143958091,-0.5820172864545137,-9.763589441430568,0.7099161558106541,100,standing
1783068600735239000,3.3173426,-0.2255960041288286,0.0125736503690481,-0.0251672475475817,-0.022797642275691,0.014757465571165,0.0333830118179321,-0.5854395525207743,-9.763557877248523,0.7075141361702233,100,standing
1783068600745201200,3.3273048,-0.2624051741532981,-0.0371779302716255,-0.0807353324472904,-0.0108504360541701,0.0099954679608345,0.0295192971825599,-0.588733589097485,-9.763486565577985,0.7057713110908865,100,standing
1783068600755163000,3.3372666,-0.2868581359516829,-0.0562871198892593,-0.1166519375462084,-0.0020465578418225,0.0058422675356268,0.025268891826272,-0.5913649605143815,-9.76338076711595,0.7050269224643707,100,standing
1783068600765125000,3.3472286,-0.307255611814186,-0.0016302315503358,-0.1067043978970497,0.0005092779174447,0.0073858355171978,0.0129275387153029,-0.5932637798730284,-9.763272046044468,0.7049551724024117,100,standing
1783068600775087000,3.3571906,-0.3181158823940903,0.0882750803023576,-0.0828559047978371,-0.000226991251111,0.0050034327432513,-0.0030097204726189,-0.5937759306462481,-9.763245158037543,0.7048993505619466,100,standing
1783068600785049000,3.3671526,-0.2855468706900254,0.4605921431571245,-0.0410685810346156,0.0393574349582195,-0.0093195801600813,-0.0721043646335601,-0.5881867688696831,-9.763411162254211,0.7072551929730921,100,standing
1783068600795011000,3.3771146,-0.3751734386665746,-0.1143102697908878,-0.1056780505239963,-0.0011333911679685,0.0290321018546819,0.0160255208611488,-0.5857994353417307,-9.763417591995,0.7091666526176035,100,standing
1783068600804973000,3.3870766,-0.1372820165881887,-0.0184726452797651,0.0991886154394596,-0.0168305952101945,0.0198436640202999,0.0343560576438903,-0.5887594176584854,-9.763336927974224,0.707806543245539,100,standing
1783068600814935000,3.3970386,-0.1546672684900462,0.1799555851340293,-0.0247032102324068,-0.0155417192727327,0.0125090302899479,0.05123071372509,-0.5930713991060853,-9.763194889155027,0.7061528577543794,100,standing
1783068600824897000,3.4070006,-0.1526765695968642,0.0964589712798595,0.0378946271736174,-0.0035886529367417,0.01820526458323,0.0038568070158362,-0.597157718571648,-9.763049343204498,0.704756727220863,100,standing
1783068600834859000,3.4169626,-0.3082820687850937,0.50996729170084,-0.0434649746518582,0.0258907526731491,-0.0034322026185691,-0.0255917217582464,-0.5946311957687139,-9.763108964437246,0.7060602110348642,100,standing
1783068600844821000,3.4269246,-0.4363272878093645,-0.187261524233222,-0.0806733000617474,0.0005531727802008,0.0203460976481437,0.0101953046396374,-0.5943767826162278,-9.763041744419931,0.7072058008734137,100,standing
1783068600854783000,3.4368866,-0.3297787380611524,0.0690635993540287,0.0076419661205261,-0.0016760102007538,0.0096870148554444,-0.004357635974884,-0.5948321617009118,-9.763035899201036,0.706877737962827,100,standing
1783068600864745200,3.4468488,-0.3365765815077349,0.1284714816123247,-0.0651964755970984,0.0072296001017093,-0.0038114830385893,-0.0036042276769876,-0.5943187688186764,-9.763037068244817,0.7072919447869062,100,standing
1783068600874707000,3.4568106,-0.3085239512495696,-0.0280891994088888,-0.0178490334887057,-0.0029185707680881,-0.0049145286902785,0.0097142402082681,-0.594688442381285,-9.762997320756316,0.7075290414784103,100,standing
1783068600884669200,3.4667728,-0.3173323308009654,-0.0154261171907186,0.0211679487783461,-0.0169214718043804,-0.00752788875252,0.0300927478820085,-0.5968037540348247,-9.762944129264357,0.706520083631575,100,standing
1783068600894631000,3.4767346,-0.2454796121850609,0.0530079520881175,0.0112531423550099,-0.0120550850406289,-0.0157694928348064,0.0373004488646984,-0.5999728855902329,-9.76284125341177,0.7052111929900944,100,standing
1783068600904593000,3.4866966,-0.2628328980460763,0.0408703550487756,-0.0294049581825733,-0.0023494609631597,-0.0296610742807388,0.0330519080162048,-0.6032697717111557,-9.762675833716989,0.7047200484722852,100,standing
1783068600914555100,3.4966587,-0.303578494204022,-0.0089490301311016,0.0191513482589274,0.0011080899275839,-0.0374659076333045,0.0199493467807769,-0.6057693699745461,-9.762537302029132,0.7044962496537714,100,standing
1783068600924516900,3.5066205,-0.3384111765237524,-0.0053220718055963,-0.0231448018092662,0.0039214533753693,-0.0500283055007457,0.013870682567358,-0.6071486955037341,-9.762421566694975,0.7048935053430497,100,standing
1783068600934479000,3.5165826,-0.3127870155215263,0.0168102650254964,-0.0889911926824599,0.0137691013514995,-0.0486805588006973,0.0167468022555112,-0.6083822193540632,-9.762257316043971,0.7060966705877334,100,standing
1783068600944441000,3.5265446,-0.2578737778013572,0.0418137733787298,-0.0911023396175354,0.0280103553086519,-0.0418735183775424,0.0266907792538404,-0.6103237818758934,-9.761973822927477,0.7083575281918049,100,standing
1783068600954402800,3.5365064,-0.2197743122380226,0.073865446677804,-0.0819452196937054,0.0332163982093334,-0.0278963912278413,0.0396658629179,-0.6134080116268247,-9.761554720732567,0.711470472580567,100,standing
1783068600964365000,3.5464686,-0.1621424266763031,0.1140127481490373,-0.0626186609983444,0.043891679495573,-0.0115818660706281,0.0545910149812698,-0.6180682585228234,-9.761000009459256,0.7150390517823397,100,standing
1783068600974327000,3.5564306,-0.058457595796138,0.2571621589332818,-0.058801733058691,0.0854310989379882,-0.0147381480783224,0.0016393009573221,-0.6214955295577645,-9.760347098508475,0.7209487142175436,100,standing
1783068600984289000,3.5663926,-0.0997599125213921,0.3468921142190694,-0.1461187819838524,0.0957700237631797,-0.029372751712799,0.0459281988441944,-0.6231392051115632,-9.759546303519606,0.7303040601272136,100,standing
1783068600994251000,3.5763546,-0.0079421911761164,-0.1696487106531858,-0.0107588560320436,0.0601515807211399,-0.0514341108500957,0.092064268887043,-0.6299628405865282,-9.758505270034076,0.7382967393815517,100,standing
1783068601004213000,3.5863166,-0.0531161617029458,0.0328834479480981,0.0757985336322337,0.0313250347971916,-0.0721420869231224,0.1083152815699577,-0.6392573962196707,-9.757533210131523,0.7431688023973256,100,standing
1783068601014175000,3.5962786,-0.1733271069049835,0.0351408714860677,0.1125532700557261,0.0129054505378007,-0.076029397547245,0.1152942553162574,-0.6498294975079596,-9.75664882851243,0.7456189720284193,100,standing
1783068601024137000,3.6062406,-0.2729924730107188,0.084667411199212,0.0945263957820832,0.0097240377217531,-0.0718823224306106,0.0966856852173805,-0.6592494330864399,-9.755893626230954,0.747184321649,100,standing
1783068601034100000,3.6162036,-0.3693382662396878,-0.0357236398100852,0.0359024304430931,0.0081647308543324,-0.0425590835511684,0.0872291699051857,-0.6679496760882437,-9.75521324275136,0.7483483239270746,100,standing
1783068601044061000,3.6261646,-0.3624687457963824,-0.0059638768404722,-0.0085224022168666,0.0162253212183713,-0.0312539637088775,0.0715924203395843,-0.6754176008161157,-9.75459774120152,0.7496778189651667,100,standing
1783068601054024000,3.6361276,-0.2914134611684829,0.0304857391566038,-0.0980943904619663,0.0393417850136756,-0.0243197567760944,0.0601145401597023,-0.6818293675545603,-9.753938400509952,0.7524595586381853,100,standing
1783068601063986200,3.6460898,-0.1596003409780561,0.0290524914830923,-0.1533504137378186,0.0553095638751983,-0.0262319054454565,0.0796126052737236,-0.6883963248547166,-9.75310370325148,0.757287563316524,100,standing
1783068601073948000,3.6560516,-0.1369615159295499,-0.0216565360128879,-0.1345955905158072,0.0663812607526779,-0.024677800014615,0.0852769985795021,-0.6962205156743526,-9.752072022116185,0.7633730937752872,100,standing
1783068601083910000,3.6660136,-0.2049902192778885,0.0216635502755641,-0.0957961234569549,0.0747156217694282,-0.0274059418588876,0.0829102471470832,-0.7043577910311519,-9.750950909131763,0.7702130227979272,100,standing
1783068601093872000,3.6759756,-0.2432789603356271,-0.003728080612421,-0.0367383698105812,0.0663669034838676,-0.0237065181136131,0.0845586508512497,-0.7124564148779958,-9.749800570052862,0.7772945785567164,100,standing
1783068601103833900,3.6859375,-0.2862726642139256,0.0166419227212667,0.044900414282456,0.0507549196481704,-0.023083072155714,0.0769617110490799,-0.7201900048047304,-9.748770057961345,0.7830443011898547,100,standing
1783068601113796000,3.6958996,-0.242884846451506,0.2735182504504919,0.0126256728172302,0.0801441520452499,-0.0665724501013755,-0.0117302117869257,-0.7216788551229983,-9.748122407707571,0.7897307201512157,100,standing
1783068601123758300,3.7058619,-0.3328619083661586,-0.028506548038125,-0.0874620103538036,0.0477720983326435,-0.0175170246511697,0.0443341210484504,-0.72298116989322,-9.747467743191123,0.7965950529627501,100,standing
1783068601133720000,3.7158236,-0.3091137338362634,-0.0666296502053737,0.0897837312996387,0.0157659798860549,0.0210770796984434,0.076431892812252,-0.7295206546645611,-9.746754041963817,0.7993631294365972,100,standing
1783068601143682300,3.7257859,-0.3244070914927869,0.248538122972846,-0.1089175439018756,0.0241176523268222,0.0167683530598878,0.0814719274640083,-0.7372715610522776,-9.74603624908328,0.8009911690298468,100,standing
1783068601153644300,3.7357479,-0.3092229663643985,0.0868506004571914,-0.1395475868999958,0.0318659543991088,0.0231678690761327,0.0784319937229156,-0.7452730812001973,-9.745209735131263,0.8036388339944184,100,standing
1783068601163606300,3.7457099,-0.4183150631155818,0.034836335581541,-0.1344739368975162,0.0480827428400516,0.032156303524971,0.0588084980845451,-0.7521504196237773,-9.744371530741452,0.8073949716575444,100,standing
1783068601173568300,3.7556719,-0.4617660823073238,0.0455710800856351,-0.1932615683656185,0.0595310851931571,0.0366882756352424,0.0374555625021457,-0.757032492576912,-9.743585348799824,0.8123118236631155,100,standing
1783068601183530200,3.7656338,-0.4542996188841759,0.0382575422018766,-0.1711152030091732,0.0608094036579132,0.0484240278601646,0.0267477910965681,-0.7604587406985461,-9.742855865481497,0.8178487072631716,100,standing
1783068601193492200,3.7755958,-0.4020455539032816,0.0816343271136283,-0.1173872660834342,0.0463583618402481,0.0521274544298648,0.0188808068633079,-0.7630329751007259,-9.742237441322208,0.8227783456850797,100,standing
1783068601203454200,3.7855578,-0.3367714830253273,0.107360889044404,-0.0622188480257987,0.0253207217901945,0.0576612390577793,0.0211740545928478,-0.7654592523995787,-9.741778007116912,0.8259695429418236,100,standing
1783068601213416400,3.79552,-0.2396872194539755,0.151059745517373,-0.0503798686068505,-0.0048389350995421,0.0645568221807479,0.0315544754266738,-0.7685710277445614,-9.74148457712829,0.8265499731782824,100,standing
1783068601223378200,3.8054818,-0.1646979563780128,0.211336811825633,-0.0681774641692638,-0.0346421040594577,0.0647589564323425,0.0541023947298526,-0.773380254657194,-9.741306882473824,0.8241466383635997,100,standing
1783068601233340200,3.8154438,-0.1366441936086863,0.1750947010993957,-0.1096937889713794,-0.054438516497612,0.0646215006709098,0.089072898030281,-0.7809336657114326,-9.741127434253691,0.8191254492007195,100,standing
1783068601243302400,3.825406,-0.1491558846574276,0.1428103880882263,-0.1049065546948462,-0.0723410844802856,0.0665091425180435,0.1037722155451774,-0.7911666712384671,-9.740864983925222,0.812392414618656,100,standing
1783068601253264100,3.8353677,-0.1962020787969231,0.1798287438839673,-0.126561994729191,-0.0700697600841522,0.0503401942551136,0.0465805083513259,-0.7997858118280768,-9.740772044944762,0.8050188901759684,100,standing
1783068601263226400,3.84533,-0.3411994555354118,0.1817185031533241,-0.1768705516654998,-0.0706652402877807,0.0471444018185138,0.0448483899235725,-0.8038273423038422,-9.741016375094652,0.7980159526113421,100,standing
1783068601273188400,3.855292,-0.5033472890391946,-0.0742448013842105,-0.1553659182786941,-0.076325386762619,0.0896002873778343,0.044829249382019,-0.8089745689991861,-9.741234401759504,0.7901288526233285,100,standing
1783068601283150000,3.8652536,-0.5248678506474942,0.1517839681386947,-0.2798831823725253,-0.0680653229355812,0.1118073165416717,0.0442311055958271,-0.813939863256365,-9.741458273643255,0.7822169104550033,100,standing
1783068601293112300,3.8752159,-0.5337813710737973,0.1661778196722269,-0.3319815453350543,-0.0635182783007621,0.1150698661804199,0.032659713178873,-0.818643510902673,-9.741638306385278,0.775058709263429,100,standing
1783068601303074300,3.8851779,-0.4951890439596026,0.2549006437420845,-0.2866858481246978,-0.0694355592131614,0.1131902113556861,0.0249003246426582,-0.8222202734109014,-9.741924722111223,0.7676211796738207,100,standing
1783068601313036300,3.8951399,-0.4182432399883866,0.2437409518241882,-0.2352139464974403,-0.0829506516456604,0.1017710044980049,0.0329680442810058,-0.825694160066545,-9.74228712568283,0.7592448348641395,100,standing
1783068601322998300,3.9051019,-0.3163143859300762,0.1768932749539613,-0.2367840453583747,-0.0959958806633949,0.0768392905592918,0.0476588383316993,-0.8303585716810077,-9.742625563856958,0.7497412395901978,100,standing
1783068601332960300,3.9150639,-0.2974103634957224,0.169741649633646,-0.2032686561822891,-0.0942250341176986,0.0213143732398748,0.0415662750601768,-0.8351966593619435,-9.74295698776841,0.7400180832814425,100,standing
1783068601342922200,3.9250258,-0.3047875412002205,0.2335503971993923,-0.2174726111669093,-0.0972130969166755,-0.0319027751684188,0.0009405513410456,-0.837396142167598,-9.743467859899996,0.7307292998019606,100,standing
1783068601352884200,3.9349878,-0.3425676751486957,0.2303267589777708,-0.1408919872462749,-0.1158402487635612,-0.047177605330944,-0.0113964974880218,-0.8364270048744976,-9.744285606023668,0.7208878508757799,100,standing
1783068601362846500,3.9449501,-0.3483480851810425,0.0891460179179906,-0.0761152714312076,-0.1402302831411361,-0.0576092079281806,0.0002636204590089,-0.8352852144282311,-9.745260588535666,0.7089326246660203,100,standing
1783068601372808200,3.9549118,-0.3143028999771922,0.0003477905243635,-0.0381670143742114,-0.1663808524608612,-0.0697055980563163,0.0162456482648849,-0.8358118686508387,-9.746244338876007,0.6946276204597205,100,standing
1783068601382770200,3.9648738,-0.306587795555219,0.0518161119550466,0.0467652583062648,-0.1965669691562652,-0.0927318260073661,-0.0060910820029675,-0.835895163020119,-9.7474350099653,0.6776303084295242,100,standing
1783068601392732400,3.974836,-0.3201444656122476,0.1399731188356876,0.0899216784656047,-0.2252371311187744,-0.1310071796178817,0.0358967967331409,-0.8356562396977096,-9.748802206665276,0.6579666267342865,100,standing
1783068601402694100,3.9847977,-0.265484070141986,-0.0164326638847589,0.0295369870644062,-0.234798401594162,-0.1659779399633407,0.0702334642410278,-0.8403378216426819,-9.749814014056325,0.6366490403521806,100,standing
1783068601412656400,3.99476,-0.2291740087460726,0.2313239533215761,-0.0855867910664528,-0.2245950549840927,-0.2172580063343048,0.0723203048110008,-0.8459725395940244,-9.750670923146606,0.6157526750568301,100,standing
1783068601422618400,4.004722,-0.313245426813513,0.2443909401655197,-0.2037292594313621,-0.1971080303192138,-0.2909756302833557,0.070987656712532,-0.8515336077872663,-9.751316819834708,0.5975761266468093,100,standing
1783068601432580400,4.014684,-0.3834307967390865,0.1815501608490943,-0.1922820192763581,-0.1830649375915527,-0.2930094599723816,0.051664613187313,-0.855418559461832,-9.751921799990534,0.5819385586624964,100,standing
1783068601442542300,4.0246459,-0.4626587933633476,0.0648702393174171,-0.1014846904873847,-0.1824776977300644,-0.2788196206092834,0.0423837639391422,-0.858491610231623,-9.752558344328405,0.5665586552336812,100,standing
1783068601452504000,4.0346076,-0.3533705895181745,0.1685176607966423,-0.0845476572770625,-0.1742734014987945,-0.2874534726142883,0.0299257598817348,-0.860339868446812,-9.75325392537713,0.551566947404854,100,standing
1783068601462466300,4.0445699,-0.1337279408358037,0.1678483832329511,-0.0706675639519467,-0.1529944837093353,-0.3139327466487884,0.027328910306096,-0.8610625566981732,-9.753931970769166,0.5382850757012143,100,standing
1783068601472428300,4.0545319,0.0799982503443956,0.123728086477518,-0.0651250908613205,-0.1435224264860153,-0.3110456168651581,-0.0076191653497517,-0.8612561795741319,-9.754553902059794,0.5266078261826187,100,standing
1783068601482390300,4.0644939,0.2017705996442586,0.4155781124323606,0.1759364126205444,-0.1732603460550308,-0.317139983177185,0.0010129385627806,-0.8579312729351222,-9.755508426305653,0.5141924351152032,100,standing
1783068601492352300,4.0744559,0.1760305206447839,-0.2553033793240785,0.1822293752849101,-0.2502072155475616,-0.3114864230155945,0.1049947589635849,-0.8624179898951202,-9.75605086261928,0.4960776268297806,100,standing
1783068601502314200,4.0844178,0.2229655094947665,0.0366103595167398,0.3624492373783141,-0.3044946789741516,-0.3058285415172577,0.104052796959877,-0.8713455388467758,-9.756471133857964,0.471630985174328,100,standing
1783068601512276200,4.0943798,-0.0592008153788745,0.2474567574769258,0.3143126176536083,-0.3320160806179046,-0.2923761308193207,0.0924180746078491,-0.8794756538104266,-9.75707611401379,0.4431533344371244,100,standing
1783068601522238200,4.1043418,-0.2022119867362082,0.1395493404656648,0.2164063336422667,-0.3426958918571472,-0.2417390793561935,0.0659915283322334,-0.8862517238166183,-9.75780501281023,0.4125198573729023,100,standing
1783068601532200400,4.114304,-0.2895928216125816,0.2343956158518791,0.0790694450616836,-0.3235693275928497,-0.1795373558998108,0.040406621992588,-0.89044932163693,-9.7586794575572,0.3816646638493984,100,standing
1783068601542162200,4.1242658,-0.2439781215809285,0.1981090814620256,-0.1240811376988887,-0.2844932973384857,-0.0941651985049247,0.0280697923153638,-0.8931177371285856,-9.75950363342166,0.3533258005283772,100,standing
1783068601552124200,4.1342278,-0.1253650400295853,0.1795563566833734,-0.2035421758940443,-0.229838490486145,-0.0038760309107601,0.0352349616587162,-0.895911605630815,-9.760105106446147,0.3287895808933302,100,standing
1783068601562087400,4.144191,-0.0204443837441503,0.0750093560159206,-0.2805470896413549,-0.175385907292366,0.0870200544595718,0.0651683583855629,-0.9008745618004352,-9.76030442841053,0.3086790322134271,100,standing
1783068601572049400,4.154153,0.0277001270260661,-0.0440489850848913,-0.2731832828750833,-0.1268659681081771,0.1615526527166366,0.0880696699023246,-0.9087664840940386,-9.760058344694972,0.2929359032290987,100,standing
1783068601582011100,4.1641147,-0.0433756889332085,-0.1430921276390552,-0.2817231476834044,-0.0770004019141197,0.2451801747083664,0.1051666289567947,-0.918644611768797,-9.759476745414734,0.2812747645950876,100,standing
1783068601591973400,4.174077,-0.1031342843253165,-0.259239549729228,-0.2320949011614546,-0.0141860703006386,0.3126936852931976,0.1219548359513282,-0.9305626477733254,-9.75855027821958,0.2741431043505668,100,standing
1783068601601935400,4.184039,-0.1894365301847457,-0.267936066403985,-0.2398316876922734,0.0501122251152992,0.3467467427253723,0.1239788383245468,-0.943619259353727,-9.757333888167144,0.2727518509215675,100,standing
1783068601611897300,4.1940009,-0.2879936427876353,-0.2499544195115566,-0.202569586268533,0.1032104864716529,0.3567587733268738,0.1068417057394981,-0.9559439764630048,-9.75601228417456,0.2770887658810242,100,standing
1783068601621859300,4.2039629,-0.354522755227983,-0.1920207014590501,-0.1508580854654312,0.1680880188941955,0.3102522492408752,0.0373995192348957,-0.9649813424646854,-9.75483973326385,0.2868784298210404,100,standing
1783068601631821300,4.2139249,-0.2735115284487605,0.0250847568958997,-0.263238282242883,0.1997738778591156,0.2587117552757263,0.0239285267889499,-0.9678819592770188,-9.754072256022692,0.3027429749616421,100,standing
1783068601641783300,4.2238869,-0.3738435417696833,-0.1692383762866258,-0.023458032476902,0.1828449666500091,0.2755192518234253,0.0582707859575748,-0.9727451813992112,-9.753081491419673,0.3186933900211006,100,standing
1783068601651745300,4.2338489,-0.3951275181431323,0.0709527741014957,0.0774678185513243,0.166103720664978,0.2783069312572479,0.0853739753365516,-0.981239161239192,-9.751756380295753,0.3328383813600987,100,standing
1783068601661707300,4.2438109,-0.4267690762713551,0.2486456750005483,0.1149929182928055,0.1480522900819778,0.2306757569313049,0.0624127388000488,-0.9894009134501218,-9.750482122576235,0.3457411175530404,100,standing
1783068601671669200,4.2537728,-0.3886570800200104,0.1773176378458738,0.2612205309459939,0.108536921441555,0.1805861741304397,0.0251956693828105,-0.9939946709811688,-9.74963631940186,0.3563334213791415,100,standing
1783068601681631200,4.2637348,-0.4204406769674271,0.1841015988975763,0.4490133125117048,0.0667077228426933,0.1604542732238769,-0.006836830638349,-0.995579602085054,-9.749234752863645,0.3627706513524055,100,standing
1783068601691593200,4.2736968,-0.2498983054101467,0.1828589053601026,0.3482593109190464,0.045445043593645,0.1193869933485984,-0.0225516110658645,-0.994637645059824,-9.749190913721918,0.3665592665130272,100,standing
1783068601701555200,4.2836588,0.0072667030673474,0.1024649336963891,0.1843582040071487,0.0370180048048496,0.0773207619786262,-0.0272755268961191,-0.9924808323521166,-9.74930197288096,0.3694504579098895,100,standing
1783068601711517400,4.293621,0.2026462865002453,0.0064092825204133,0.1009785310635343,0.0217602215707302,0.0600520335137844,-0.0282734129577875,-0.990039722810313,-9.749464469966291,0.3717272072028368,100,standing
1783068601721479200,4.3035828,0.2884662287354469,-0.0325596228212118,0.0484475488374009,0.0037338170222938,0.0636672750115394,-0.0278190784156322,-0.9874238412234932,-9.749700616809726,0.3724833227997645,100,standing
1783068601731441200,4.3135448,0.3137643361210823,-0.0397936657279729,0.041725474040769,-0.018829558044672,0.0745234638452529,-0.0204747505486011,-0.9854872471377252,-9.749946700525284,0.3711246381998062,100,standing
1783068601741403400,4.323507,0.3441919884148985,-0.0122895727306604,0.0923497458627447,-0.0470809042453765,0.105003073811531,-0.0061626574024558,-0.9843416572991758,-9.750216749638318,0.3670372592883184,100,standing
1783068601751365000,4.3334686,0.4093267238873988,0.0118219552189111,0.1103915619771927,-0.0617711581289768,0.1339366436004638,0.0125738848000764,-0.9851320039592684,-9.750385091942547,0.3603681933205575,100,standing
1783068601761327400,4.343431,0.4553156640589237,-0.0232335760712623,0.1347065766096115,-0.0775205641984939,0.1709026545286178,0.0410265661776065,-0.9884747385159134,-9.75034651349783,0.3522141129594296,100,standing
1783068601771289300,4.3533929,0.3746220518615096,0.0330377617269754,0.2360989126384258,-0.1052681133151054,0.2078098356723785,0.0529960170388221,-0.9936726724851876,-9.750204474678634,0.3413523080095648,100,standing
1783068601781251000,4.3633546,0.2656948633484542,0.1333674369603395,0.2380617006113752,-0.1199967265129089,0.2293905019760131,0.0668053030967712,-1.0002659332703798,-9.749977095663548,0.3283169949455186,100,standing
1783068601791213300,4.3733169,0.2079912277247756,0.1505126330286264,0.1605845297098159,-0.1155414953827858,0.2475596815347671,0.0812248736619949,-1.008253059566766,-9.74961527661383,0.3143651515584439,100,standing
1783068601801175300,4.3832789,0.1381983642481267,0.1532733299136161,0.0712461858238093,-0.0992357581853866,0.2471045553684234,0.0880364403128624,-1.0173192863367495,-9.749083361694217,0.3013508082171902,100,standing
1783068601811137300,4.3932409,0.0330194954179227,0.1884498572349548,-0.0487631541252136,-0.0499806441366672,0.2525917291641235,-0.0219969525933265,-1.0230221741534768,-9.74879636144638,0.2911764010095968,100,standing
1783068601821099300,4.4032029,-0.1929655080284923,0.37385903159976,-0.2195464217662811,-0.0300165228545665,0.2651184201240539,-0.0224310476332902,-1.020295964059979,-9.749253457564114,0.2853865655617788,100,standing
1783068601831061200,4.4131648,-0.3115880149953067,-0.3270107711851596,-0.144116173457168,-0.0385170206427574,0.316444456577301,-0.0072871455922722,-1.020336296070367,-9.749436997437476,0.2789401659013703,100,standing
1783068601841023200,4.4231268,-0.2805688996143639,0.0796609812140464,-0.1795475888550281,-0.0210344363003969,0.3342671394348144,-0.0278582014143466,-1.0196321663890031,-9.74969243350327,0.2724732531758956,100,standing
1783068601850985200,4.4330888,-0.3547922928843647,0.1208481471270322,-0.2736357028177008,0.001847977284342,0.3437397480010986,-0.0364213287830352,-1.017534244261682,-9.75002911811173,0.2682483106909319,100,standing
1783068601860947500,4.4430511,-0.396405575254932,0.0418862540930509,-0.2304921786725521,0.0115972766652703,0.3413064181804657,-0.0346351452171802,-1.014976230341941,-9.750373986026643,0.2653581422073766,100,standing
1783068601870909200,4.4530128,-0.4945332834646105,0.0615039777547121,-0.2093629179367795,0.0152549277991056,0.3384412229061126,-0.0308472216129302,-1.0124671701304615,-9.750687289759515,0.2633820198288187,100,standing
1783068601880871200,4.4629748,-0.586381765274331,0.0248754980593919,-0.1288742171943187,-0.0049243764951825,0.3396969139575958,-0.0125403841957449,-1.011448421541974,-9.750870829632875,0.2605554181007668,100,standing
1783068601890833400,4.472937,-0.5909381134044379,0.1528162337958812,-0.0012274594357237,-0.0316784903407096,0.324290782213211,-0.037291269749403,-1.0098848985522986,-9.751171858406066,0.2553119644893333,100,standing
1783068601900796200,4.4828998,-0.6093358668170868,0.2621849555313587,-0.0180394780268892,-0.0439069271087646,0.2888782024383545,-0.0582878962159156,-1.0060022849652916,-9.751753457686304,0.2483320607404224,100,standing
1783068601910758100,4.4928617,-0.5828834017645568,0.1748515399932861,-0.1091769985556602,-0.0502878651022911,0.2668219208717346,-0.0817793756723404,-0.9999830977410078,-9.752556006240845,0.2410077274680137,100,standing
1783068601920720400,4.502824,-0.5555912710174918,0.2330243274986743,-0.1697755701695568,-0.0545830130577087,0.2606947720050812,-0.0935667976737022,-0.9919609001312404,-9.753566644588112,0.2330720573642291,100,standing
1783068601930682000,4.5127856,-0.465221483458206,0.2481897479265928,-0.2006418330763466,-0.0568595603108406,0.2414281815290451,-0.1037508472800254,-0.9829713187940418,-9.754666130262612,0.2250330182175151,100,standing
1783068601940644400,4.522748,-0.3988931542869657,0.1818535277098417,-0.2136684513772837,-0.0589661225676536,0.2311427742242813,-0.1046589836478233,-0.9732838913857936,-9.755818222907186,0.2171094404103234,100,standing
1783068601950606300,4.5327099,-0.3146366619762033,0.1656061572641134,-0.1652291406452655,-0.0615303888916969,0.23165825009346,-0.0986349210143089,-0.9638672437429427,-9.7569282299757,0.2090733969382941,100,standing
1783068601960568000,4.5426716,-0.2403724983043968,0.153465637615323,-0.0832429130877368,-0.0686649978160858,0.2334436327219009,-0.0882078409194946,-0.9552319557361304,-9.75795640397966,0.2005593424246646,100,standing
1783068601970530300,4.5526339,-0.2232940107967704,0.1292436350286006,-0.0093219550967216,-0.0809552818536758,0.2414042353630066,-0.073134459555149,-0.9477696570314468,-9.758872349780797,0.1911310408766381,100,standing
1783068601980492300,4.5625959,-0.2235028312418609,0.1321317576855421,0.0487327772532589,-0.0984850078821182,0.2446596920490265,-0.0578979849815368,-0.941725189235434,-9.759666715028882,0.1802127930318005,100,standing
1783068601990454300,4.5725579,-0.226889551070705,0.1531406434446573,0.10692074406147,-0.1237516775727272,0.2544284760951996,-0.0404862575232982,-0.93729122537598,-9.76032371763289,0.1672157478852197,100,standing
1783068602000416300,4.5825199,-0.234209153369069,0.1521475407540798,0.1146726642293389,-0.1348868757486343,0.2533791661262512,-0.0233541410416364,-0.9346099504027516,-9.76082640645802,0.1521312654727138,100,standing
1783068602010378200,4.5924818,-0.2571225575752556,0.1879196958810091,0.0080523552860133,-0.1045089140534401,0.2483657896518707,-0.0532148964703083,-0.9320474795036018,-9.761283502575754,0.1378445275754667,100,standing
1783068602020340200,4.6024438,-0.3903459098897874,0.4127782525807619,-0.1626923339103348,-0.0704430863261222,0.2306680232286453,-0.0405654124915599,-0.9261657279886304,-9.76198492884338,0.1273780512192752,100,standing
1783068602030302200,4.6124058,-0.4436225959166884,-0.4762620059758424,-0.3038718876600265,-0.0813986286520958,0.249092549085617,0.0187525656074285,-0.9263096665039658,-9.76209189634919,0.1178719351946841,100,standing
1783068602040264400,4.622368,-0.5082684518937021,-0.1268815820723772,-0.1427051650149282,-0.0820319280028343,0.2355964481830597,0.004189068917185,-0.9278035583235325,-9.762070269039272,0.1075403098650742,100,standing
1783068602050226200,4.6323298,-0.7085711709424853,0.0279518367648124,-0.1528676717221737,-0.0702463239431381,0.2502382695674896,-0.0100310426205396,-0.9277163184314966,-9.762176652023197,0.0981004731428809,100,standing
1783068602060188400,4.642292,-0.7386231948569416,0.0137818571150302,-0.1177706302446778,-0.0580210871994495,0.2672593295574188,-0.0164561849087476,-0.926543986716494,-9.76237363590002,0.0893387731442693,100,standing
1783068602070150400,4.652254,-0.7058441571313887,0.0614250672996044,-0.126660048276186,-0.0440462157130241,0.2798804640769958,-0.0174390040338039,-0.9250563054420052,-9.762580556648969,0.0817685936183203,100,standing
1783068602080112000,4.6622156,-0.6132693338084966,0.1519938114970922,-0.0662006111383438,-0.0136893726885318,0.2999263405799866,-0.0808107852935791,-0.9220124807666986,-9.762917241257428,0.0756273874495644,100,standing
1783068602090074400,4.672178,-0.6023183892704546,0.5354933626234532,-0.0559913518130779,0.000672256341204,0.2991023659706116,-0.074914813041687,-0.912911986400932,-9.763794024091958,0.0729000722443685,100,standing
1783068602100036400,4.68214,-0.5286978572644293,-0.3164122202813625,-0.0550806712755234,-0.0303676854819059,0.3318605720996856,0.0059379581362009,-0.9102175596851856,-9.76407401007712,0.0688473262548446,100,standing
1783068602109998300,4.6921019,-0.3466844628177583,0.0484819990962743,0.0540390487015247,-0.0430578924715518,0.3151285648345947,0.0166361518204212,-0.9114686557248234,-9.764002698406577,0.0622298306441167,100,standing
1783068602119960000,4.7020636,-0.357066594491899,0.1777121901214122,-0.0517956582554848,-0.0331365540623664,0.3160478770732879,0.0361898764967918,-0.9141049225125462,-9.763795777657627,0.0555368814772693,100,standing
1783068602129922000,4.7120256,-0.3336271205849945,0.0483399602770805,-0.0922808088123798,-0.0322872921824455,0.311364084482193,0.0493522770702838,-0.918540347676724,-9.763412915819885,0.0496335620178841,100,standing
1783068602139884300,4.7219879,-0.4163566225241869,0.0369756856977939,-0.1140051493644714,-0.0261574927717447,0.3130820989608764,0.046848639845848,-0.923498408475518,-9.76297101727128,0.0441247354685328,100,standing
1783068602149846000,4.7319496,-0.484009112971276,0.037350364229083,-0.0780804340243339,-0.0227742847055196,0.3149418532848358,0.0344964303076267,-0.9276721870288251,-9.76259750778377,0.0388749525810126,100,standing
1783068602159808300,4.7419119,-0.4714423307344317,0.0399555782914161,-0.0838251151561737,-0.0170088075101375,0.3152816593647003,0.0196405202150344,-0.9303627412870524,-9.762360776418449,0.0338458358400035,100,standing
1783068602169771300,4.7518749,-0.391648516920954,0.0469797778397798,-0.0898000979125499,-0.0264768227934837,0.314826488494873,0.017838867381215,-0.9321957288678736,-9.762202370986342,0.0287473139744601,100,standing
1783068602179733000,4.7618366,-0.2868575514297932,0.0690858111858367,-0.0698339992046356,-0.0244411025196313,0.3117489218711853,0.0256299450993537,-0.9343351520493626,-9.762011232328414,0.0232970469286432,100,standing
1783068602189695200,4.7717988,-0.1941254917185753,0.0928624080926179,-0.0406640188217163,-0.0273948777467012,0.3123149871826172,0.0414788350462913,-0.9377332700550556,-9.761697344073651,0.0179187765399576,100,standing
1783068602199657200,4.7817608,-0.1778964606471359,0.1015466498076915,-0.0249357038140296,-0.0362051464617252,0.312695562839508,0.054134976118803,-0.9424404978979378,-9.7612525229156,0.0119178853074787,100,standing
1783068602209619000,4.7917226,-0.1973867585368454,0.1195750584512948,0.0217079739391803,-0.056049957871437,0.3238946795463562,0.0566005297005176,-0.9479395337056368,-9.760727037736771,0.0044785724694491,100,standing
1783068602219581200,4.8016848,-0.2297812539242207,0.1095721353530883,0.0200730662137269,-0.0661609172821044,0.3365947604179382,0.0639979913830757,-0.9538523379459976,-9.760151283675432,-0.0046604989139814,100,standing
1783068602229543200,4.8116468,-0.205323104494065,0.1256681146293878,-0.0145025726050138,-0.0849491953849792,0.3587098717689514,0.0740226432681083,-0.9605032472025602,-9.759486682286855,-0.0154248305575747,100,standing
1783068602239505200,4.8216088,-0.2120280820254236,0.1643885981678962,-0.0318885939751402,-0.0909325182437896,0.3879327178001404,0.0889491289854049,-0.9681638449583202,-9.758704007476569,-0.0276676152792409,100,standing
1783068602249467100,4.8315707,-0.1559343658164143,0.1517512349128723,-0.0856225199669599,-0.0817608684301376,0.4214111566543579,0.1062432900071144,-0.977420698929578,-9.757736039227249,-0.0400733731519198,100,standing
1783068602259429000,4.8415326,-0.1269807315979153,0.0892541544675827,-0.1315542500585317,-0.0638351291418075,0.4462435245513916,0.1184240579605102,-0.9882682561583817,-9.75659154536724,-0.0514523338436847,100,standing
1783068602269391000,4.8514946,-0.145047426425293,0.0352127676784992,-0.1646539711058139,-0.042009100317955,0.4699436724185943,0.1195196583867073,-0.99968031540215,-9.755373401749134,-0.0611493556307628,100,standing
1783068602279353000,4.8614566,-0.2153546691648662,-0.0433294386386871,-0.1624795496761798,-0.0274219010025262,0.4761962294578552,0.1085282638669014,-1.0106262915041295,-9.754192667531967,-0.0690097320086322,100,standing
1783068602289315300,4.8714189,-0.2759173474814743,-0.0319505510121583,-0.1146843546671327,-0.0230863522738218,0.4901032149791717,0.0926193594932556,-1.020093646420911,-9.753150465002657,-0.0764027740025427,100,standing
1783068602299277000,4.8813806,-0.2787868385031819,0.0129459908127784,-0.0866577173667494,-0.0307133793830871,0.4943408370018005,0.0833321213722229,-1.0279985743265598,-9.752260238164665,-0.0839294979792553,100,standing
1783068602309239000,4.8913426,-0.333657442658022,0.0591425093203783,-0.096350825597113,-0.0317877978086471,0.4945249259471893,0.0675602704286575,-1.0347783706597984,-9.751468795526026,-0.0920430088679771,100,standing
1783068602319201300,4.9013049,-0.3624919074762612,0.1213958441376686,-0.1448053704308811,-0.0318666286766529,0.4926530122756958,0.0365429669618606,-1.0396128781441598,-9.750876090329886,-0.1001512681928463,100,standing
1783068602329163000,4.9112666,-0.3696403909914195,0.1150128651022911,-0.1854758098602295,-0.0338043086230754,0.5012633204460144,0.0359639637172222,-1.0424896756894886,-9.750478615444898,-0.1085618714651558,100,standing
1783068602339125200,4.9212288,-0.415337727805227,0.1125192947208881,-0.1552063255365006,-0.0352344252169132,0.5207944512367249,0.0328038558363914,-1.0452743379719556,-9.750077048906684,-0.1172833764506969,100,standing
1783068602349087200,4.9311908,-0.3573090980108827,0.1374596747100353,-0.1943956138968467,-0.036082275211811,0.5273763537406921,0.0221483614295721,-1.0474885799553244,-9.7497304274261,-0.1261280328918714,100,standing
1783068602359049000,4.9411526,-0.348655324499309,0.1305593938022851,-0.1430745919823646,-0.0417870320379734,0.5348659753799438,0.02757029235363,-1.049259023693949,-9.74941420108378,-0.1355509367455728,100,standing
1783068602369011200,4.9511148,-0.3010303806237876,0.1058008001208305,-0.1526876115806866,-0.0363952778279781,0.5363990664482117,0.0311867892742156,-1.0513939898960292,-9.749044783249497,-0.1450912199012469,100,standing
1783068602378973200,4.9610768,-0.2650243436757475,0.0823842686980962,-0.2289560368801467,-0.0316085144877433,0.5370760560035706,0.0281731560826301,-1.0535821475900708,-9.748673027327657,-0.1539669747335836,100,standing
1783068602388935200,4.9710388,-0.2984462824147194,0.0923018516004085,-0.2510983471159823,-0.0221052430570125,0.5437262654304504,0.0118076046928763,-1.054726568384841,-9.748417591261862,-0.1622009336641989,100,standing
1783068602398898200,4.9810018,-0.3214576671026647,0.1040104095727205,-0.2411579495936632,-0.0113391485065221,0.5434221029281616,0.0050991023890674,-1.0546095909416675,-9.748303609493377,-0.1695971996616572,100,standing
1783068602408860200,4.9909638,-0.2939359653834253,0.0874094033837318,-0.2232242517624981,-0.0140020521357655,0.5393230319023132,-0.0091627929359674,-1.0534013111304492,-9.74831296184361,-0.1764581897386349,100,standing
1783068602418822100,5.0009257,-0.2626337952774017,0.0731704501509666,-0.1939373304690234,-0.0163006279617548,0.5307703018188477,-0.0195131693035364,-1.051034508933872,-9.748438049528,-0.1834483956858515,100,standing
1783068602428784000,5.0108876,-0.260103911473602,0.0788596017032861,-0.1791676496267318,-0.0225227903574705,0.5186817049980164,-0.016844842582941,-1.048327149671316,-9.7485911942631,-0.1907363607369363,100,standing
1783068602438746000,5.0208496,-0.2177150416206568,0.0270534266203641,-0.1840887394160032,-0.0211661774665117,0.5085030794143677,-0.0128644835203886,-1.0458249575920402,-9.748709267684816,-0.1982352103260345,100,standing
1783068602448708000,5.0308116,-0.221960277974978,-0.0136205290734767,-0.186157362383604,-0.0254619922488927,0.5107041597366333,-0.0022046957165002,-1.0441234874363987,-9.748736740213632,-0.2057436497273854,100,standing
1783068602458670000,5.0407736,-0.2219442766882479,-0.0062666591793298,-0.1668599749838002,-0.0305294543504714,0.5226633548736572,0.0154920099303126,-1.0436908681727946,-9.74860989896357,-0.2138181620462797,100,standing
1783068602468632300,5.0507359,-0.212895001053065,0.0020832360148429,-0.1682394101108424,-0.0303484611213207,0.5292941927909851,0.0322219096124172,-1.0449583308253436,-9.748279059574008,-0.2224643002406693,100,standing
1783068602478594000,5.0606976,-0.2131939839996397,-0.0106587566584348,-0.2500110998685471,-0.0154395531862974,0.5282017588615417,0.046291921287775,-1.047652465280145,-9.74780735040903,-0.2303259735264815,100,standing
1783068602488556000,5.0706596,-0.2507246001664548,0.0026899697363376,-0.2919084598775021,-0.0091709587723016,0.5325716733932495,0.0535581931471824,-1.0514219738814978,-9.747239779654144,-0.2370603232827969,100,standing
1783068602498518300,5.0806219,-0.3379547014605253,0.0014957915157079,-0.2949316253572702,0.0054189031943678,0.5332931280136108,0.0558695532381534,-1.0556202292889356,-9.746644736370444,-0.2428661782836541,100,standing
1783068602508480000,5.0905836,-0.4247944151975214,-0.0032324060499668,-0.3109218427041545,0.0131239267066121,0.526799201965332,0.0465562418103218,-1.0594609034303577,-9.746107560753822,-0.2476752955984324,100,standing
1783068602518442200,5.1005458,-0.4877615243073552,0.047357963502407,-0.3442974215507507,0.0188334770500659,0.5226060748100281,0.0414437726140022,-1.0624837583828717,-9.745670338380336,-0.2518590658227913,100,standing
1783068602528404200,5.1105078,-0.4840296443026513,0.095633626371622,-0.3550076526680961,0.0325296521186828,0.5198568105697632,0.0416711419820785,-1.0650189028836785,-9.745314949071409,-0.2549150741262361,100,standing
1783068602538366000,5.1204696,-0.4505266762167215,0.1082639753639698,-0.3408282841354608,0.0333171486854553,0.5199244618415833,0.0472211688756942,-1.0679955806069077,-9.744925657492876,-0.2572732911575585,100,standing
1783068602548328200,5.1304318,-0.3882698342680931,0.1557990489989519,-0.291619706063997,0.0251987315714359,0.5196774005889893,0.0593416765332222,-1.071893976284936,-9.744426475799084,-0.2599442456661723,100,standing
1783068602558290200,5.1403938,-0.3260092659924179,0.1887093849539756,-0.2960059765905141,0.0294214393943548,0.5004462003707886,0.0667790919542312,-1.0766937047168612,-9.74381857303381,-0.2628905830500647,100,standing
1783068602568252200,5.1503558,-0.3335102162070572,0.1376461371928453,-0.3494061793992296,0.0363662093877792,0.4783968925476074,0.0671880915760994,-1.0819122430827468,-9.74318495130539,-0.2650061869645491,100,standing
1783068602578214100,5.1603177,-0.3930548765875399,0.1132528696924447,-0.3524959255754947,0.0326271317899227,0.4592548906803131,0.0600606724619865,-1.086861024596542,-9.742582309237122,-0.2668545182449743,100,standing
1783068602588176100,5.1702797,-0.4419406341791153,0.1103214924156665,-0.3524421495616436,0.0481422506272792,0.452229231595993,0.0552893318235874,-1.0913960376776757,-9.7420451336205,-0.2679559036156162,100,standing
1783068602598138000,5.1802416,-0.5034465116299689,0.0720054980248212,-0.3250467411031946,0.0513700023293495,0.4486853778362274,0.0525531992316246,-1.0954309192169458,-9.741586283937096,-0.2681168115320615,100,standing
1783068602608101000,5.1902046,-0.5538946231674403,0.066470660251379,-0.2577589375163428,0.0535956770181655,0.447039395570755,0.0530116371810436,-1.0994514069046823,-9.741139709213376,-0.2679180740895681,100,standing
1783068602618063000,5.2001666,-0.5631921014100313,0.0584171176552772,-0.2114975370789878,0.0601694211363792,0.4466505646705627,0.0527764782309532,-1.1033218185972422,-9.740717684409022,-0.2673428862838074,100,standing
1783068602628025000,5.2101286,-0.5123823169533163,0.0321072028785944,-0.2102653466692194,0.0666491016745567,0.4531759023666382,0.0506827272474765,-1.1072949600119144,-9.740294490560888,-0.2663306587676518,100,standing
1783068602637987000,5.2200906,-0.4180786240112036,0.0772387225031852,-0.2120885069757699,0.075121946632862,0.4522765576839447,0.0465356558561325,-1.110918557336554,-9.73993734768629,-0.2643572032702155,100,standing
1783068602647949300,5.2300529,-0.335832521674782,0.0621112959980964,-0.209925227994658,0.0831025540828704,0.4377613067626953,0.0483883023262023,-1.114305642491579,-9.739625212997195,-0.2615827883871272,100,standing
1783068602657911000,5.2400146,-0.2326021565638482,0.0398199692130088,-0.1911322281867265,0.0916113555431366,0.4165452420711517,0.0492447763681411,-1.1177277989599854,-9.739329444921015,-0.2579302754952572,100,standing
1783068602667873000,5.2499766,-0.1411255768064409,0.0495300468444824,-0.1839186070134863,0.1115473359823226,0.3895426094532013,0.0534441620111465,-1.1216658690612762,-9.739012049534916,-0.2527237563607283,100,standing
1783068602677835300,5.2599389,-0.0545157993678003,0.0594651654034852,-0.1484632992833852,0.1147953271865844,0.3708163201808929,0.0673642382025718,-1.1265739532385022,-9.738623927000164,-0.2458316952920518,100,standing
1783068602687797000,5.2699006,0.0324655147969722,0.068583706882596,-0.098084563187696,0.1059319376945495,0.3525371551513672,0.0900593474507331,-1.133200020314753,-9.73801719327867,-0.2393482332905754,100,standing
1783068602697759200,5.2798628,0.0889465498231351,0.0485275918036699,-0.1662316322186961,0.1057029068470001,0.3373281061649322,0.1119619831442833,-1.14224593494907,-9.737114691480992,-0.2330014580797404,100,standing
1783068602707721200,5.2898248,0.1136581625577062,0.0319838687598705,-0.2636538590401411,0.0939061492681503,0.3236443698406219,0.1217663064599037,-1.1530411044035107,-9.73598305710256,-0.2270075696934946,100,standing
1783068602717683200,5.2997868,0.0711821989431977,0.1301204178631305,-0.3135603379815816,0.0826020911335945,0.2960417568683624,0.1229399666190147,-1.1642851136039942,-9.734759652787446,-0.2219929564018733,100,standing
1783068602727645200,5.3097488,0.0932725232634693,0.1271007777810096,-0.4815513445556163,0.0802465081214904,0.2614548206329345,0.1142131760716438,-1.1753016707241537,-9.733535079428552,-0.2175558690035715,100,standing
1783068602737607200,5.3197108,0.1570767407845705,0.1640665266066789,-0.624206249821186,0.0768224820494651,0.2396038472652435,0.1136850714683532,-1.185984977301955,-9.732343823817372,-0.2128665238772518,100,standing
1783068602747569200,5.3296728,0.2255306838076561,0.1765647736519575,-0.745575205951929,0.08945182710886,0.2002065926790237,0.1021715104579925,-1.1960799625977874,-9.731225048920512,-0.2074664366656914,100,standing
1783068602757531100,5.3396347,0.2489536449711769,0.0460632475167512,-0.8971382248163223,0.0775174051523208,0.1540822386741638,0.0806867256760597,-1.2045394556462763,-9.730309687641263,-0.2013514609167352,100,standing
1783068602767493000,5.3495966,0.2767130279038101,-0.0056458969324827,-1.022080947780609,0.0640916600823402,0.0858978629112243,0.0503699406981468,-1.2109003689803182,-9.72962696607411,-0.1961188940254971,100,standing
1783068602777455000,5.3595586,0.3428716265313327,-0.0910913067668676,-1.208497837883234,0.0478082932531833,0.0509313605725765,0.058579932898283,-1.216455518889427,-9.729024908527732,-0.1915111627680249,100,standing
1783068602787417000,5.3695206,0.4030570690333843,-0.1585351959645748,-1.341284260085225,0.0488744899630546,-0.0049875956028699,0.0463908575475215,-1.2215749077297746,-9.728469612732528,-0.1871141516517847,100,standing
1783068602797380000,5.3794836,0.39039464440234,-0.276888019144535,-1.539120369824767,0.0412770248949527,-0.0664530918002128,0.0120427384972572,-1.224624577623978,-9.728181443440914,-0.1821607852944173,100,standing
1783068602807342000,5.3894456,0.3618684418156743,-0.3018085253894328,-1.5146300716906784,0.023271594196558,-0.1210279762744903,-0.0372587740421295,-1.2234813989382236,-9.728399470105767,-0.1780706116376444,100,standing
1783068602817304000,5.3994076,0.3831356862500309,-0.3212263425648212,-1.5429823059499264,0.0215791556984186,-0.1800606697797775,-0.0823167935013771,-1.2178145322829483,-9.729183313959837,-0.1741091058618389,100,standing
1783068602827266300,5.4093699,0.6052232438664883,-0.1161912612318992,-1.6287608932614326,0.0585801117122173,-0.2669472992420196,-0.1678623110055923,-1.2052701080083847,-9.730860307261349,-0.1674890484012663,100,standing
1783068602837228000,5.4193316,0.7303809978209436,-0.2153980699151754,-1.6896119600653647,0.0730578526854515,-0.308051586151123,-0.1317202895879745,-1.190815831524506,-9.732810272285342,-0.1573653667339123,100,standing
1783068602847190000,5.4292936,0.932928207860887,-0.348004459375143,-1.523005101326108,0.1002411991357803,-0.3561964631080627,-0.1054201200604438,-1.180279313006252,-9.734278006750344,-0.1454543084594421,100,standing
1783068602857152300,5.4392559,1.0062820517547428,-0.0533849687069654,-1.5715297705203293,0.1359786987304687,-0.4212140738964081,-0.0942995622754097,-1.1711826180327682,-9.73560779404938,-0.1291015414104797,100,standing
1783068602867114000,5.4492176,0.9998312681801615,0.0865314515054225,-1.409916482284665,0.1445552706718444,-0.4669942557811737,-0.0817467644810676,-1.1630861861430108,-9.736810155576467,-0.1102517607808578,100,standing
1783068602877076200,5.4591798,0.9853845174156128,0.2566699915021658,-1.2832663708806038,0.1420628279447555,-0.5131663084030151,-0.0761948749423027,-1.1559713857017455,-9.737859372368456,-0.0907059972437098,100,standing
1783068602887038200,5.4691418,0.9474757886514068,0.3608405600726604,-1.1524965491980317,0.1282794624567031,-0.5586354732513428,-0.0886977016925811,-1.1482895259622483,-9.7389278783828,-0.0713890237940242,100,standing
1783068602897000200,5.4791038,0.8713170434046537,0.404318467271328,-1.0298930828362702,0.0944341495633125,-0.6126153469085693,-0.1002560853958129,-1.1396169746849685,-9.740058928239344,-0.0539316930366447,100,standing
1783068602906962200,5.4890658,0.92514529889971,0.45685178758502,-1.0293629214823246,0.0545999072492122,-0.6654630899429321,-0.1064071506261825,-1.129849760038778,-9.741267719507215,-0.0394984182415995,100,standing
1783068602916924200,5.4990278,1.0201898733370005,0.4816875381559133,-1.1219476816773415,0.0175380259752273,-0.7129321098327637,-0.1045786291360855,-1.1198486635714768,-9.742459559640288,-0.0284665699374745,100,standing
