time,seconds_elapsed,acc_x,acc_y,acc_z,gyr_x,gyr_y,gyr_z,grav_x,grav_y,grav_z,fs_hz,activity
1783066271582574600,0.0,-0.2991397445715963,0.00453179821074,-0.0270376445293426,0.0011042292462661,-0.0106168333441019,0.0024713741149753,-0.5455645651848986,-9.725888364067671,-1.1313071192402393,50,standing
1783066271602500400,0.0199258,-0.348205461839959,-0.0399257676750421,0.0394610727727413,-0.0009904261678457,0.0041499263606965,-0.0199171248823404,-0.5433354544259608,-9.726022804102302,-1.1312170298039912,50,standing
1783066271622425600,0.039851,-0.2744988589856773,0.0593652121603488,-0.0294675020247697,-0.0026482527609914,-0.019362611696124,-0.020347187295556,-0.5393800678636879,-9.726253690248727,-1.1311217527359725,50,standing
1783066271642351600,0.059777,-0.225151840557903,0.0644949762642383,-0.0469593195736408,-0.0110422186553478,-0.0303142741322517,-0.0027873194776475,-0.5381495762206614,-9.726146138221026,-1.1326342031255363,50,standing
1783066271662276600,0.079702,-0.1846752340670674,0.1513128434956073,-0.0728700058996677,-0.0126849990338087,-0.028494942933321,0.0157941672950983,-0.5407678689602762,-9.72572528246045,-1.1350050239101053,50,standing
1783066271682202600,0.099628,-0.191098435514979,0.1058078143835067,-0.1083878940045833,-0.0094311572611331,-0.0251819677650928,0.0158299766480922,-0.5451187211135402,-9.72526117208004,-1.1368960252884774,50,standing
1783066271702128400,0.1195538,-0.2973095700023695,0.0912631562024354,-0.1158950547643005,-0.0021084211766719,-0.0151209728792309,-0.00666523585096,-0.5467961528064683,-9.725082892903686,-1.1376192980617283,50,standing
1783066271722053600,0.139479,-0.2572844336060807,0.0832253956973552,-0.0941787513881921,-0.0056548821739852,0.0046705128625035,-0.0089513333514332,-0.5450723977537826,-9.725124393957852,-1.1380868425082415,50,standing
1783066271741979600,0.159405,-0.1617356725063174,0.0983271032392978,-0.1030640686333179,-0.023502318188548,0.0119751626625657,0.0198513586074113,-0.5459005922062322,-9.72466379070878,-1.1416211541142314,50,standing
1783066271761904400,0.1793298,-0.098630068241246,0.1534112770795822,-0.1506540142606943,-0.0051558716222643,-0.0286145452409982,0.0302193500101566,-0.5519940502431243,-9.72393255382478,-1.1449080668304117,50,standing
1783066271781830700,0.1992561,-0.2399965045988559,0.0603957242518663,-0.121235539009422,0.0245644394308328,-0.0082352748140692,0.0145253986120224,-0.5577215975770726,-9.72384136840999,-1.1429025722268968,50,standing
1783066271801756700,0.2191821,-0.2517053913647308,0.1731406444221735,-0.0122468295674771,0.0348782390356063,-0.0027162279002368,0.0188763346523046,-0.561126108790934,-9.724358670282363,-1.1368205488994716,50,standing
1783066271821681400,0.2391068,-0.1659113142231479,-0.015897241833806,-0.1339005209237337,0.0075265262275934,-0.0237890034914016,0.0357086844742298,-0.5671633065959438,-9.724463299700616,-1.132931432506442,50,standing
1783066271841607700,0.2590331,-0.2302514287192374,0.0389379256814718,-0.0994715240340679,0.0100879538804292,-0.0229535698890686,0.0248523075133562,-0.573751343216747,-9.724231244510412,-1.1315973343584689,50,standing
1783066271861533400,0.2789588,-0.2696566431188956,0.0889373436033725,-0.0318844269733876,0.0162167064845561,-0.0260046049952507,0.0183487776666879,-0.5787884240685031,-9.72425170277655,-1.1288544653911143,50,standing
1783066271881458400,0.2988838,-0.2453925549561157,0.0501309353470802,-0.0658702832054346,-0.0002967014443129,-0.0012079917360097,0.0049281646497547,-0.5818040820952505,-9.724351071497797,-1.12644228968285,50,standing
1783066271901384700,0.3188101,-0.2799074400309473,0.1057891096830368,0.0715864688951522,-0.0325907282531261,0.0286051649600267,0.0002593052340671,-0.5817059189504012,-9.723895144423842,-1.130421787773073,50,standing
1783066271921309400,0.3387348,-0.1496943389156833,0.1469528947204351,-0.0085622227706015,-0.024366158992052,0.0098760146647691,0.0321176759898662,-0.5841285795200616,-9.723011931848523,-1.1367640694718808,50,standing
1783066271941235500,0.3586609,-0.0036162542684003,0.15761165137887,-0.153044197332859,0.0173788201063871,-0.0491251908242702,0.0595077984035015,-0.5943357564860955,-9.722297646099328,-1.1375802081603557,50,standing
1783066271961161700,0.3785871,-0.1170751313943415,0.1090776298344135,-0.1530424437671899,0.0187924914062023,-0.0330100655555725,0.0512452274560928,-0.6074702556082978,-9.722096570569276,-1.1323442072030157,50,standing
1783066271981086500,0.3985119,-0.3850450270026922,0.0497305378526449,0.0333475583285093,-0.0149220628663897,0.0001217897515743,0.0068798922002315,-0.6137858319632709,-9.721706694468857,-1.1322860472749918,50,standing
1783066272001012500,0.4184379,-0.345718138536252,-0.0501250901281833,-0.0581090746194124,-0.0113556440919637,-0.0057405829429626,-0.0168798305094242,-0.6122618372663855,-9.72150971059203,-1.1348017564229669,50,standing
1783066272020937500,0.4383629,-0.2118568536443635,-0.0800502727925777,-0.0920966844171285,-0.005139859393239,-0.0166899394243955,-0.0178643465042114,-0.6092047512507066,-9.721512048679587,-1.136428334711492,50,standing
1783066272040863500,0.4582889,-0.1726617748640477,0.0198322431951761,-0.0785597419738769,0.0005672615952789,-0.0110504664480686,-0.0209210664033889,-0.6062020988360047,-9.72158628295958,-1.1373951339170336,50,standing
1783066272060789500,0.4782149,-0.2043683245198801,0.1418026723504066,-0.0398493414379656,0.0150320213288068,-0.0183794125914573,-0.0254325736314058,-0.6021784693431109,-9.72205214690566,-1.135553963029757,50,standing
1783066272080714500,0.4981399,-0.1298754301261156,0.2087088014096021,-0.0490086533188819,0.0056563331745564,-0.002412867732346,0.0010396430734544,-0.6000567279487848,-9.72251801085174,-1.1326792113110422,50,standing
1783066272100640500,0.5180659,-0.0638539384143427,0.1219131460100412,-0.0703729283869266,-0.0116975074633955,-0.0111596267670392,0.0174172203987836,-0.6032304260814562,-9.722212890425324,-1.133611450659856,50,standing
1783066272120566500,0.5379919,-0.1670316600225865,0.0733458067178726,-0.0761513656578957,-0.0346543118357658,-0.0059309992939233,0.0025649738963693,-0.6053975409874692,-9.7215284152925,-1.138307499521598,50,standing
1783066272140491500,0.5579169,-0.1932476859707385,0.1212257482677698,0.0190817170888185,-0.0125242350623011,-0.0202666632831096,-0.0058846320025622,-0.6053681687625124,-9.720926942268012,-1.14345823334828,50,standing
1783066272160417500,0.5778429,-0.1557429348975419,0.0195592714726924,-0.0962146411299705,0.0051103476434946,-0.0060959211550652,-0.0123984171077609,-0.6041167073966935,-9.721014036029576,-1.1433831953506917,50,standing
1783066272180342500,0.5977679,-0.2593390645809471,0.0310141469448804,0.0124614221662282,-0.00974409468472,0.0014695973368361,-0.0309541430324316,-0.5997305282017216,-9.721246091219784,-1.1437217065900565,50,standing
1783066272200268500,0.6176939,-0.1654044606795534,0.0981418098002672,-0.088304306396842,-0.0039709713310003,-0.0190187022089958,-0.0119863431900739,-0.5955027544388547,-9.721336107590794,-1.145158826721087,50,standing
1783066272220194600,0.63762,-0.0880543136911466,0.1042342814564704,-0.0775539259321987,0.0227253381162881,-0.0499968789517879,0.0016209727618843,-0.5962384483022615,-9.721593881744148,-1.1425911681901664,50,standing
1783066272240119600,0.657545,-0.1726096793506294,0.0982937854915857,-0.0882984611779451,0.0062348106876015,-0.0330764465034008,-0.0018885966856032,-0.5980238704143092,-9.721936996093392,-1.138730254978314,50,standing
1783066272260046000,0.6774714,-0.3069476783761754,0.0402624522835016,0.0027139351338148,-0.029832812026143,-0.0095469327643513,-0.030283011496067,-0.5952173616262152,-9.721965053144096,-1.1399596506427974,50,standing
1783066272279970800,0.6973962,-0.2643009978372603,0.0258276842176914,0.0476993973512202,-0.0544371604919433,0.0092974007129669,-0.0324788987636566,-0.5889325822683051,-9.721296360102295,-1.148882377288863,50,standing
1783066272299896800,0.7173222,-0.0900952814668416,0.0367190805882215,-0.1290063191413879,-0.0290932524949312,-0.0007715510437265,-0.0129724657163023,-0.5847704210875555,-9.720516607901454,-1.1575776518546044,50,standing
1783066272319823000,0.7372484,-0.0991694723475724,0.0739618927896022,-0.1717944905102252,-0.0018774704076349,0.0071871816180646,-0.0036674609873443,-0.5840759725499898,-9.720200381559131,-1.160578441105783,50,standing
1783066272339747800,0.7571732,-0.1767777222828939,0.1426291863024234,-0.1873562167793512,0.015615127980709,0.0261730179190635,-0.0095807192847132,-0.5829323189401999,-9.72048329015374,-1.158783958904445,50,standing
1783066272359673900,0.7770993,-0.1584475176811218,0.1642629259616136,-0.0884228912752121,0.0187759306281805,0.0311528891324996,0.0062662507407367,-0.5821090198585763,-9.720867905557157,-1.1559633485257623,50,standing
1783066272379600100,0.7970255,-0.0456509038561955,0.0868786575078964,-0.1416904441475868,0.0400057099759578,0.009903117083013,0.0194369945675134,-0.5846227197125554,-9.721445413184163,-1.1498317869681864,50,standing
1783066272399524900,0.8169503,-0.1524768092410638,-0.0233130710482597,-0.1008861400723457,0.0287890955805778,0.0155452471226453,-0.0021257570479065,-0.5867329533321782,-9.722135149013996,-1.1429016954440625,50,standing
1783066272419451000,0.8368764,-0.2863748459467664,0.0380155501395463,0.0185917416147887,-0.0058149928227066,0.0306119117885828,-0.0332088582217693,-0.582720575885661,-9.722562434515355,-1.1413225364938375,50,standing
1783066272439376000,0.8568014,-0.2015137022737413,0.0543108513802289,0.0246020148802548,-0.0121595114469528,0.026070486754179,-0.0300891902297735,-0.5751054977720603,-9.722695120984316,-1.1440410016722975,50,standing
1783066272459302000,0.8767274,-0.0180046989744529,0.1204167699724435,0.0008516483932733,0.0079934913665056,0.0003518796293064,0.0136398039758205,-0.5732134004151448,-9.722661803236605,-1.1452801880784331,50,standing
1783066272479228000,0.8966534,-0.0221290854280814,0.1348065298527479,-0.124578565827012,0.0090853720903396,-0.0117937512695789,0.0254556108266115,-0.5782170904539525,-9.72268635315597,-1.1425520782887937,50,standing
1783066272499153000,0.9165784,-0.2718681086232885,0.1001326913565397,-0.0152670541714876,-0.0224245097488164,0.010715658776462,-0.0180878974497318,-0.5800187695810571,-9.72242857900262,-1.1438255322907118,50,standing
1783066272519079000,0.9365044,-0.2995109159715473,0.0898486132293939,-0.0480943880181759,-0.024799570441246,-0.0118031520396471,-0.0338014662265777,-0.5737740299725905,-9.722170220327376,-1.1491560065984725,50,standing
1783066272539005000,0.9564304,-0.0434872960815206,0.0986380688846111,-0.0852606278520077,-0.0035678169224411,-0.0237669087946414,0.0057515916414558,-0.5707750673523172,-9.721981419757007,-1.1522422091107816,50,standing
1783066272558930000,0.9763554,0.0726086150171235,0.0687625705808401,-0.0830687438309192,0.0110188741236925,-0.0251057744026184,0.0464685335755348,-0.5774858901025727,-9.72173475151956,-1.150992647441104,50,standing
1783066272578856000,0.9962814,-0.144848140993528,0.1140852288633584,-0.0682242259204387,0.0157076902687549,-0.0094730984419584,0.0190836358815431,-0.5858321685675532,-9.72156757825911,-1.1481794166512789,50,standing
1783066272598782000,1.0162074,-0.3635965077172964,0.1071773491710424,-0.0095077599924057,0.0084595996886491,0.017344631254673,-0.0265908520668745,-0.5855549225287512,-9.721841719025372,-1.1459938893057404,50,standing
1783066272618707000,1.0361324,-0.2872707353405654,0.0739309131294488,-0.0036871640801429,-0.0022581990342587,0.0227823611348867,-0.0306344609707593,-0.5788317882861942,-9.722264328351615,-1.145829346393794,50,standing
1783066272638633000,1.0560584,-0.111538466989994,-0.0010135609567165,-0.0574082328736782,-0.0126813501119613,0.0220623034983873,0.0042764265090227,-0.5751485331961885,-9.722288293749092,-1.147473898730427,50,standing
1783066272658558000,1.0759834,-0.0179005810128524,0.0308048881083726,-0.0376584072649478,-0.0074519570916891,0.0127275455743074,0.0398586876690387,-0.5799017556052655,-9.721635382798311,-1.1506140964522955,50,standing
1783066272678484000,1.0959094,-0.1068146168058738,0.1366501118928194,-0.1307832656860351,0.0239454191178083,-0.0025806697085499,0.0317893289029598,-0.5879528505159541,-9.721386960995195,-1.1486180272642523,50,standing
1783066272698410000,1.1158354,-0.290055288025178,0.0972825626224279,-0.0325952786564826,0.0176931712776422,0.0180065501481294,0.0009625589009374,-0.5919086389370263,-9.721673961243033,-1.1441549834407865,50,standing
1783066272718335000,1.1357604,-0.3015087021926417,0.0416261418521404,-0.0291420694626867,-0.0073839854449033,0.0210190825164318,-0.0248002726584672,-0.5891345345811918,-9.721983173322675,-1.142969134657085,50,standing
1783066272738261000,1.1556864,-0.1748060568837449,-0.0182715697497129,0.0419118269257247,-0.035713892430067,0.0336102396249771,-0.0057360343635082,-0.5849041304698214,-9.72164122801721,-1.148032920852676,50,standing
1783066272758187000,1.1756124,0.0272069366816431,0.1419154850751161,-0.0164794256359338,-0.0111916540190577,-0.026921285316348,0.0345887616276741,-0.5880488217037171,-9.720817052152752,-1.153387141362205,50,standing
1783066272778112000,1.1955374,-0.0266470012439414,0.1338362235158681,-0.115186468103528,0.0066541340202093,-0.0265765935182571,0.0427464358508586,-0.5970426042919978,-9.720369308385251,-1.152543164818734,50,standing
1783066272798038000,1.2154634,-0.235565609479323,0.1709995407402515,0.0792401254534721,-0.0224610939621925,0.0160785131156444,0.0240209996700286,-0.604051058281958,-9.719823949462176,-1.1534883367143571,50,standing
1783066272817964000,1.2353894,-0.2402759425947442,0.1182201367110013,0.0319780235409736,-0.049640629440546,0.0202417057007551,0.0164225306361913,-0.6072715546984225,-9.718819156333804,-1.160245702020079,50,standing
1783066272837889000,1.2553144,-0.1050406659359112,-0.0012748422414064,-0.0156850603878498,-0.051132183521986,-0.0018464615568518,0.035258263349533,-0.6117235291386023,-9.717238609144092,-1.1710909211613236,50,standing
1783066272857815000,1.2752404,-0.0286958600651472,0.0767009623646736,-0.1127520805634558,-0.0036481327842921,-0.0502969250082969,0.0571502745151519,-0.6205819218441844,-9.716057290405034,-1.176226457418874,50,standing
1783066272877740000,1.2951654,-0.0889684693939983,0.0167091427385807,-0.1407932030469179,0.0137140955775976,-0.0283809546381235,0.0670560076832771,-0.6345293447844684,-9.71547043042779,-1.1736232161179183,50,standing
1783066272897666000,1.3150914,-0.2535699065949767,-0.0385930577665567,-0.0053980596512556,-0.0376315489411354,0.0476344041526317,0.0325000993907451,-0.6448543394438923,-9.714486680087449,-1.1761406057663262,50,standing
1783066272917592000,1.3350174,-0.3441261566370725,0.1091518641144037,-0.0119793377377092,-0.0234009865671396,0.0331168100237846,-0.0330906435847282,-0.6433325367040932,-9.71364263047874,-1.1839243184451014,50,standing
1783066272937516800,1.3549422,-0.1409253780592232,0.1491185483217239,-0.1707055262297391,0.0472674630582332,0.0213377922773361,-0.0176134966313838,-0.6367413217455148,-9.71425345585346,-1.1824676898960025,50,standing
1783066272957443000,1.3748684,0.0410647816423326,0.0889729994386434,-0.1591210330285132,0.0821816250681877,0.004775321111083,0.0248106680810451,-0.6370715766131878,-9.715909406366944,-1.1686134251318872,50,standing
1783066272977369000,1.3947944,-0.0478980617284774,0.1150859303385019,-0.0763591631896793,0.0331541374325752,0.0376840978860855,0.0420153476297855,-0.6437269428491592,-9.716882635313272,-1.1568045485902576,50,standing
1783066272997293800,1.4147192,-0.1851806993711739,0.2198182244449854,0.0961580155719071,-0.0278219822794199,0.0308973267674446,0.0289181414991617,-0.6496474189393222,-9.71641852493286,-1.157388266762346,50,standing
1783066273017220000,1.4346454,-0.1395494865961372,0.1423281575292349,-0.0007820902884006,-0.0234456732869148,0.0183255355805158,0.0428226143121719,-0.6559239419255405,-9.71524422045648,-1.1636975229743869,50,standing
1783066273037146000,1.4545714,-0.1210805676434189,0.0235790285080671,-0.0891658185970038,0.0333175398409366,-0.0154254306107759,0.0350628532469272,-0.6636189534075558,-9.714857851487398,-1.162552882983908,50,standing
1783066273057070800,1.4744962,-0.2078072494599968,-0.0723164636701345,-0.0392523984581232,0.0676430314779281,0.00234464276582,0.0105069810524582,-0.6687698333647102,-9.715778473463654,-1.1518631466653195,50,standing
1783066273076997000,1.4944224,-0.3281656403087079,0.0176835407286882,0.0201601599752902,0.0417981222271919,0.0136730838567018,-0.0304771680384874,-0.6660265990711748,-9.717342654040456,-1.1401972587909548,50,standing
1783066273096923000,1.5143484,-0.2777628292176872,0.0024959084689617,0.0858516525477171,-0.0189565066248178,0.0288693979382514,-0.031214939430356,-0.658968716448918,-9.718016607779264,-1.1385521949976682,50,standing
1783066273116847900,1.5342733,-0.0383615140330046,0.1428168178290128,0.0043885903477668,-0.0449788831174373,0.0002113010268658,0.0184150617569684,-0.6574533434499055,-9.717229256793855,-1.146123360904306,50,standing
1783066273136774100,1.5541995,0.0312453253522515,0.0881429783552885,-0.1173135432600974,-0.0304004643112421,-0.0244526341557502,0.0421481616795063,-0.664362099925056,-9.715826404258609,-1.1540072460219264,50,standing
1783066273156700000,1.5741254,-0.1428472129672765,0.1748988862663507,-0.0483528197586536,0.0165830161422491,-0.0153543427586555,0.0204095020890235,-0.6717798288356512,-9.715193951573967,-1.1550327166121452,50,standing
1783066273176625000,1.5940504,-0.2638844529256224,0.1675473544597625,-0.0620726444881409,0.0258157178759574,0.0126551073044538,-0.0027415016666054,-0.6734454239603131,-9.715622990640997,-1.15044085877724,50,standing
1783066273196551200,1.6139766,-0.2541136580828577,0.0712830289691686,-0.038426469027996,0.019841119647026,0.0262917727231979,-0.0128356060013175,-0.6712453566327691,-9.716324416908622,-1.145805527126789,50,standing
1783066273216476000,1.6339014,-0.093409666711837,0.1135813709944486,-0.0768225429177284,0.0083861825987696,0.0174274109303951,0.0207405090332031,-0.6710887778315693,-9.716574592277407,-1.1437718293420969,50,standing
1783066273236402000,1.6538274,-0.0251872674223035,0.0366962842345237,-0.0986645185001194,0.0156158423051238,-0.0078011294826865,0.0361224859952926,-0.6775111390292644,-9.716305127686262,-1.1422807870667426,50,standing
1783066273256327000,1.6737524,-0.1309896749783307,0.0966132850587368,-0.0112473702013492,0.0165442209690809,-0.0008657249854877,0.0211877431720495,-0.6842359903048724,-9.71621628035903,-1.1390163784433156,50,standing
1783066273276252000,1.6936774,-0.2624178144391626,0.0031090719312429,-0.0357727396488189,0.0114099904894828,0.0241321064531803,-0.0142391920089721,-0.6855362592484802,-9.716385207185148,-1.1367874503474682,50,standing
1783066273296178000,1.7136034,-0.2768175842568278,0.1389338389158249,-0.0319417101185768,0.0006996185984462,0.0309232398867607,-0.0301780570298433,-0.6802643832601607,-9.716936995849013,-1.1352314530771226,50,standing
1783066273316104000,1.7335294,-0.1293337244648486,-0.0041939445585012,0.0049317573137581,-0.0231267511844635,0.0114006595686078,0.0002668204833753,-0.676464698716253,-9.716862177047132,-1.138137622847408,50,standing
1783066273336029000,1.7534544,-0.0505848165944218,0.0460883819580078,-0.0604362023927271,-0.0096140373498201,-0.0307779796421527,0.0180475860834121,-0.6788985017344356,-9.71627005637288,-1.1417527446046472,50,standing
1783066273355955000,1.7733804,-0.1334841221425682,0.0800046800851821,-0.0496108569957315,-0.0091146398335695,-0.0113295251503586,0.017958490177989,-0.6836867589242756,-9.715769705635308,-1.1431505556385964,50,standing
1783066273375881000,1.7933064,-0.2398238514456898,0.1214250702321529,-0.0044697658251971,-0.0201823823153972,0.0089687779545784,-0.0088946297764778,-0.6841882056403905,-9.715439450767636,-1.1456444913461803,50,standing
1783066273395806000,1.8132314,-0.1990820912126451,0.1479740544617176,-0.056952451930195,-0.0331276170909404,0.0069347796961665,-0.0038878067862242,-0.6824330325361341,-9.714905782282353,-1.1512217069566248,50,standing
1783066273415732000,1.8331574,-0.0538560933500528,0.1013981812477111,-0.092237554192543,-0.0305588953197002,-0.0154320700094103,0.0231088288128376,-0.6843061329316348,-9.713968209171297,-1.1579847713507712,50,standing
1783066273435657700,1.8530831,0.0297830707799643,0.1168809970617294,-0.0944329453449696,-0.0078238602727651,-0.0280924476683139,0.0405166745185852,-0.691629973013699,-9.713139941653608,-1.1605776373881846,50,standing
1783066273455583000,1.8730084,-0.1131998243309557,0.0205436063349246,-0.0783678726635873,-0.0073483129963278,-0.0021533449180424,0.0241588708013296,-0.699332144888863,-9.712420395207404,-1.1619780057054012,50,standing
1783066273475509000,1.8929344,-0.2797828638032079,0.0356008902132511,-0.0498528490580618,-0.0239316206425428,0.0251864623278379,-0.0270656589418649,-0.6991464861236513,-9.712067343986034,-1.1650550750631838,50,standing
1783066273495434800,1.9128602,-0.2952351383484899,0.0052864159703254,-0.0634149259425699,-0.0179571323096752,0.029784619808197,-0.0428252294659614,-0.6914754400391131,-9.71197966570258,-1.1703474093176425,50,standing
1783066273515360000,1.9327854,-0.073531027091667,0.0737304221212863,-0.1649380487442016,0.0167098380625247,-0.002717723371461,-0.0073391827754676,-0.6860295226581394,-9.71233739309907,-1.1705776378769426,50,standing
1783066273535286000,1.9527114,-0.0143449708905071,0.059907648473978,-0.1755536969132721,0.0349179096519947,-0.0148027148097753,0.0155448419973254,-0.6877547390155494,-9.712880998456477,-1.1650495221052315,50,standing
1783066273555211800,1.9726372,-0.1771823940936475,0.125134446144104,-0.0708002138882875,0.0128140160813927,0.0040429700165987,-0.0040629524737596,-0.6893688962139188,-9.713463182258604,-1.1592210351474583,50,standing
1783066273575137000,1.9925624,-0.2749164998758584,0.0840273597300052,0.0939935310143977,-0.0323670767247676,0.0179939027875661,-0.0281772874295711,-0.6865051042806357,-9.713356214752793,-1.1618076175745575,50,standing
1783066273595062800,2.0124882,-0.1698854420185089,0.007182020458579,-0.0098316581845283,-0.0251745022833347,-0.005089399870485,-0.027369687333703,-0.680654770817235,-9.712976275524497,-1.1684151260808109,50,standing
1783066273614988800,2.0324142,-0.0172074476495385,0.0321715002864599,-0.1126313767932355,0.0098346685990691,-0.0322992615401744,-0.000803735863883,-0.6775600196722894,-9.712975106480718,-1.1702115079782902,50,standing
1783066273634914000,2.0523394,0.0272637814354151,0.1416413443088531,-0.0834369926214218,0.016203686594963,-0.0257056262344121,0.0196402836591005,-0.6808809077233076,-9.71321066880226,-1.1663362739801406,50,standing
1783066273654839800,2.0722652,-0.1468606133271008,0.1560275970578193,-0.0163362177729606,-0.0183538105338811,0.0241182036697864,0.0093252062797546,-0.6849747529082,-9.71293243638277,-1.166249764740467,50,standing
1783066273674764800,2.0921902,-0.2326752948652952,0.2174281144380569,0.0061135144442319,-0.0348384715616703,0.0180104319006204,-0.0120685203000903,-0.6841541572403163,-9.712233348202703,-1.1725387818820774,50,standing
1783066273694690800,2.1121162,-0.2029741302151232,0.01851940703094,-0.0788753837943077,-0.0086560035124421,-0.0070965299382805,-0.0240635126829147,-0.680486282382533,-9.711893740984795,-1.1774823026988654,50,standing
1783066273714616800,2.1320422,-0.138830597737059,-0.0118728086233139,-0.1080957791902124,0.0278824735432863,-0.0256439372897148,-0.0249861683696508,-0.6760957923386246,-9.712477678352592,-1.1751966759797186,50,standing
1783066273734541800,2.1519672,-0.0356210562184453,0.074807111442089,-0.0581653348512947,0.040175974369049,-0.0220801383256912,0.0135999051854014,-0.6751576347056776,-9.713415251463651,-1.167965263421461,50,standing
1783066273754467800,2.1718932,-0.021341186453402,0.0802905112892389,-0.1335457161366939,0.0154311992228031,-0.0045991670340299,0.0479242205619812,-0.6821053349517285,-9.71366016613543,-1.1618669465463607,50,standing
1783066273774393900,2.1918193,-0.2279429325811564,0.0691138682365417,-0.0649028994780033,-0.0151220951229333,0.0130183985456824,0.018447883427143,-0.6894852160699665,-9.713107208427786,-1.1621257436130197,50,standing
1783066273794318800,2.2117442,-0.3879967894803732,0.0948544586926698,-0.0542143322031944,0.0017897968646138,0.0432031042873859,-0.0312289837747812,-0.6871493935335428,-9.712960493433474,-1.1647335880238563,50,standing
1783066273814244900,2.2316703,-0.2575334033984691,0.0362719213426113,-0.097834351286292,0.034223448485136,0.0390023030340671,-0.0366572737693786,-0.6790484315991401,-9.713934306901692,-1.161366011286899,50,standing
1783066273834171000,2.2515964,-0.0734743284683674,0.001831307080388,-0.076592971945554,0.0351629592478275,0.0240226350724697,-0.0165976677089929,-0.673217314292863,-9.715108611378072,-1.1549245800625532,50,standing
1783066273854096000,2.2715214,-0.0207512577362358,0.0609317308247089,-0.043758477705717,0.0224385242909193,-0.0060337935574352,-0.004837158601731,-0.6716219348601996,-9.715849200612306,-1.149601558408886,50,standing
1783066273874022000,2.2914474,-0.0715996206376701,0.1655003588020801,-0.0103624040603637,0.0189222358167171,-0.0067421868443489,0.0072341416962444,-0.6723986183211207,-9.71627005637288,-1.1455880849838256,50,standing
1783066273893948000,2.3113734,-0.0898335617907345,0.1269838734030723,-0.002494301033765,-0.000564161222428,-0.001674224040471,0.0135524049401283,-0.6752635062329471,-9.716361241787672,-1.1431314125467091,50,standing
1783066273913873000,2.3312984,-0.2290866227235645,0.0136614456057548,-0.0173695794086903,-0.00798693113029,0.0105838868767023,-0.0128462128341197,-0.6759214586850255,-9.716163088867068,-1.144416410855949,50,standing
1783066273933799000,2.3512244,-0.2715387670710683,0.0930202290028333,-0.0083876699212938,-0.0048681972548365,-0.0010693947551771,-0.0347391329705715,-0.6707290776737034,-9.71636241083145,-1.1457671678777783,50,standing
1783066273953725000,2.3711504,-0.165484722841531,0.011885668104887,-0.0497720389068126,0.0070712468586862,-0.0100225778296589,-0.0156536027789115,-0.6653032532326877,-9.716782097548244,-1.1453835023224352,50,standing
1783066273973649700,2.3910751,-0.0495063006427139,0.103574940764904,-0.0594205956093966,0.0186623893678188,-0.0308943036943674,0.0178494974970817,-0.6665094872172922,-9.717041625267267,-1.1424688569847494,50,standing
1783066273993576000,2.4110014,-0.1025169561445712,0.1199731178581714,-0.0888490807980298,-0.0059757125563919,-0.0078103002160787,0.0167633444070816,-0.6714087305009365,-9.71698083499074,-1.1401249972723424,50,standing
1783066274013502000,2.4309274,-0.2785984032589942,0.1998077020734548,0.0042893677569925,-0.0144894495606422,-0.0045994473621249,-0.010170224122703,-0.6723485686343162,-9.716608494547009,-1.1427326224874703,50,standing
1783066274033426700,2.4508521,-0.1638396590482443,0.1223579671680927,-0.0625963761013001,-0.0109423687681555,-0.0262163076549768,-0.0026259156875312,-0.6714374451387674,-9.716372347703576,-1.1452779230561108,50,standing
1783066274053353000,2.4707784,-0.0854996973048895,-0.0313093304991722,-0.0963659592341631,0.0052255354821681,-0.021281499415636,0.0129541540518403,-0.6736116473726927,-9.71623323149383,-1.145177239160612,50,standing
1783066274073279000,2.4907044,-0.1726493537738919,0.0396580566495657,-0.0681662851881235,-0.0068573057651519,-0.003194976132363,0.0007057136390358,-0.6753468006022274,-9.71612275685668,-1.1450951869003474,50,standing
1783066274093203700,2.5106291,-0.2001038354758173,0.1897995182782411,-0.045037996122241,-0.0128533961251378,0.0066336821764707,0.0084500610828399,-0.6754257110573351,-9.71587901122868,-1.1471247199665755,50,standing
1783066274113129700,2.5305551,-0.0338756007906049,0.1534872649252414,-0.1259323185235261,0.0153009872883558,-0.0132616125047206,0.0514548756182193,-0.6815417097195983,-9.715479782778024,-1.1468848467960953,50,standing
1783066274133056000,2.5504814,-0.0198484636776149,0.1154822361797094,-0.2075970407754182,0.031492605805397,-0.0083177089691162,0.0694528967142105,-0.6943718190677464,-9.715183430179954,-1.1416850861959158,50,standing
1783066274152980700,2.5704061,-0.2730028482742607,0.0145446581810712,-0.0526386803843081,0.0089290831238031,0.0300753246992826,0.0320684872567653,-0.7042806341417134,-9.714953128555416,-1.1375788199208676,50,standing
1783066274172906800,2.5903322,-0.3086218586660921,0.0093178634434938,-0.0027729718446731,-0.0175072774291038,0.0422788970172405,0.0130282305181026,-0.7071181956551968,-9.714513568094372,-1.1395604221921414,50,standing
1783066274192833000,2.6102584,-0.1156809736222028,0.0309276377052068,-0.0911776698760688,0.017748437821865,-0.005662661511451,0.0181086733937263,-0.709121425236389,-9.71427508316338,-1.140339736001566,50,standing
1783066274212757800,2.6301832,-0.0071218877691775,0.0654898325204849,-0.1133556724797934,0.0636921301484108,-0.0078235249966382,0.0528587587177753,-0.7162262157402932,-9.71472048884332,-1.132078468938917,50,standing
1783066274232683800,2.6501092,-0.0220949274301528,0.151557758167386,-0.1312625005703419,0.0749518796801567,0.016181057319045,0.0654617697000503,-0.7283375823598355,-9.715494980347156,-1.1176130134738982,50,standing
1783066274252610000,2.6700354,-0.1845685588221997,0.087395959380269,-0.0527041468359529,0.0224131699651479,0.0635640025138855,0.0370361357927322,-0.737797776883468,-9.715828742346169,-1.1084840967312457,50,standing
1783066274272534500,2.6899599,-0.2174105787813663,0.1794727700531482,0.0361187766075134,-0.0073613575659692,0.0496687293052673,0.0105083426460623,-0.7407190711576491,-9.71557798245549,-1.108721339553222,50,standing
1783066274292460800,2.7098862,-0.0485003384705632,0.035392215898633,-0.0223526285182684,-0.0105242729187011,0.0389830321073532,0.0361037626862525,-0.7444291777219623,-9.7149993057847,-1.1113016383700072,50,standing
1783066274312386800,2.7298122,-0.0047078854300081,-0.0131149176388978,0.007817980274558,0.0060335230082273,0.0289382431656122,0.056978765875101,-0.7532064314827323,-9.714227152368426,-1.1121435690868646,50,standing
1783066274332311600,2.749737,-0.0920409356418997,0.0384083488494157,0.0114344172060489,0.0168781261891126,0.0374055802822113,0.0532906986773014,-0.7632876805141567,-9.71367653274834,-1.1100737040102482,50,standing
1783066274352237800,2.7696632,-0.2079917391814291,0.0864917040169239,-0.006048047992587,-0.0046275416389107,0.0571892969310283,0.0313963443040847,-0.7706382624726742,-9.713127666693923,-1.1097992709830402,50,standing
1783066274372163800,2.7895892,-0.2220960331838578,0.1901449707150459,0.02476253920421,-0.0216071531176567,0.0498412810266017,0.0105814738199114,-0.7735928014293313,-9.71248469261527,-1.1133763257522136,50,standing
1783066274392088600,2.809514,-0.1387115014020353,0.0427536845773458,-0.0466482808630913,-0.0162660982459783,0.0403228364884853,0.0095200035721063,-0.774227299940586,-9.711886142200232,-1.1181305345419794,50,standing
1783066274412014800,2.8294402,-0.0269535464424639,0.1066127010256051,-0.0283541339553892,0.0049734748899936,0.0242112930864095,0.031442005187273,-0.7776478489737957,-9.71140274259746,-1.1199649103622882,50,standing
1783066274431940900,2.8493663,-0.0187003896210342,0.0504834020465612,-0.1025438441514968,0.0090154251083731,0.009113504551351,0.0324507690966129,-0.784105281484872,-9.71108710077703,-1.1181995081249625,50,standing
1783066274451865600,2.869291,-0.1483204567465931,0.0893652136266231,0.0272300983615219,-0.047925017774105,0.0338558070361614,0.0220353733748197,-0.7893085492163896,-9.710313778316976,-1.121230838644877,50,standing
1783066274471791900,2.8892173,-0.2112929726839065,0.033750878432393,0.0569691108040511,-0.0810085162520408,0.0213489644229412,0.0121502764523029,-0.7915784669097512,-9.708571318563818,-1.134659425342828,50,standing
1783066274491718000,2.9091434,-0.1262549015413969,0.0097200145035982,-0.0918003318190574,-0.0514148324728012,0.0151341632008552,0.0221104398369789,-0.7940162885159253,-9.706685650947689,-1.148994313230738,50,standing
1783066274511642600,2.929068,-0.0725210463315248,0.0729489163547754,-0.1679290472537279,-0.0092707639560103,0.0291411504149436,0.0525740683078765,-0.8016617617677897,-9.705271107974648,-1.1556154118709263,50,standing
1783066274531568600,2.948994,-0.0737790105033665,0.177244572609663,-0.1444634159922599,-0.0245713833719491,0.030442539602518,0.0552556179463863,-0.8126742272347212,-9.7040722535789,-1.1579825063284486,50,standing
1783066274551495000,2.9689204,-0.2900854274351149,0.14401567222476,-0.0557493597507476,-0.0461461506783962,0.0641877502202987,0.022281102836132,-0.8193279129702598,-9.702566525191068,-1.1658924026701598,50,standing
1783066274571419600,2.988845,-0.2453244216233491,0.2520627899676561,-0.048754970818758,-0.0157888494431972,0.0857298597693443,0.0304455943405628,-0.8223399542678147,-9.701378192189337,-1.1736347604252395,50,standing
1783066274591345700,3.0087711,-0.1817211335018277,0.0030862755775451,-0.1567903981238603,0.0178876295685768,0.0875103175640106,0.0271470751613378,-0.8260882008854299,-9.700949737644194,-1.174535216396302,50,standing
1783066274611271700,3.0286971,-0.2049672767937183,0.0890671074628829,-0.0977092636018991,0.0248734690248966,0.0667701214551925,0.0195388607680797,-0.828430014771223,-9.701188222575189,-1.1709181218776852,50,standing
1783066274631196700,3.0486221,-0.1181132422704249,0.0512163924962282,-0.0562912115424871,0.0019274614751338,0.0507692396640777,0.045034222304821,-0.8332826424341648,-9.701046183755992,-1.168642139769718,50,standing
1783066274651122700,3.0685481,-0.1502253405198454,-0.0365630132436752,-0.0222888425670564,-0.0201818123459815,0.0586749836802482,0.0339830741286277,-0.8405250878430902,-9.700055419152974,-1.1716699631582943,50,standing
1783066274671047700,3.0884731,-0.2760741454783827,0.0715939946144819,-0.0281593420356512,-0.0439015217125415,0.0751303881406784,-0.0029672170057892,-0.8417187546070665,-9.69897814531028,-1.1797156877741215,50,standing
1783066274690973700,3.1083991,-0.230157028434053,0.0088099139213562,-0.0233931505471467,-0.0350370816886425,0.0653231590986251,-0.01726152934134,-0.8372079991843551,-9.69829367017746,-1.1885220214989036,50,standing
1783066274710899700,3.1283251,-0.0390722195856273,-0.0318307240247726,-0.088854341495037,0.0014286513905972,0.0396292358636856,0.0162395890802145,-0.8354098637212067,-9.697905547642709,-1.192941226180643,50,standing
1783066274730824700,3.1482501,0.0582793896850198,0.0612082096785306,-0.1313819622315466,0.0292939096689224,0.0163824427872896,0.045671209692955,-0.8416323184326291,-9.697721423247456,-1.1900678627014158,50,standing
1783066274750750700,3.1681761,-0.1447711667671799,0.155050860980153,-0.0393747096635401,0.0251091346144676,0.0459030419588089,0.022574421018362,-0.8483736093863844,-9.697741296991705,-1.1851099480330944,50,standing
1783066274770676700,3.1881021,-0.2803880631547421,0.2258534129559993,-0.0007752221561968,0.0043447967618703,0.0686624646186828,0.0039665736258029,-0.8495257020309567,-9.69791489999294,-1.1828582966487855,50,standing
1783066274790601700,3.2080271,-0.2475617522213608,0.049430093601346,-0.0488560200404375,-0.0032010371796786,0.0479987226426601,-0.008131880313158,-0.847935071838647,-9.697912561905383,-1.1840082704015076,50,standing
1783066274810527700,3.2279531,-0.2204649979159235,0.0073299044966697,-0.0494943910092115,-0.0079582324251532,0.0602805502712726,-0.0132983438670635,-0.8443562635038048,-9.69801076158285,-1.1857635896362364,50,standing
1783066274830453800,3.2478792,-0.1733616667617112,0.0486871662795543,0.0356090735197067,-0.0162513479590415,0.0470193028450012,0.0020809350535273,-0.8419294747482985,-9.69776876952052,-1.189464489980787,50,standing
1783066274850378800,3.2678042,-0.1266200085267424,0.0637462037235498,-0.0656951458342373,-0.0265286099165678,0.0539588443934917,0.0196151081472635,-0.8428822454284877,-9.69711702761352,-1.1941038402192294,50,standing
1783066274870304800,3.2877302,-0.2032373842611908,0.081789809936285,0.0172239603929221,-0.0198840573430061,0.011721096932888,-0.0027975034900009,-0.8445252633951604,-9.696306295752525,-1.1995110330250114,50,standing
1783066274890230500,3.3076559,-0.2455327306117862,0.0999444753080606,-0.04692578263022,0.0116230510175228,0.0092387972399592,-0.0120026348158717,-0.8426317777987569,-9.69635188845992,-1.2004529900502412,50,standing
1783066274910155800,3.3275812,-0.2293774954289197,0.0653361032634973,-0.0497426666818559,0.01468794234097,0.0381283611059188,-0.0167858563363552,-0.8402320962458848,-9.696908937820792,-1.197636325194314,50,standing
1783066274930081500,3.3475069,-0.2822352984566241,0.0277349791437387,-0.0121785135716199,0.0036340458318591,0.0421877726912498,-0.0398943088948726,-0.8337619503837078,-9.697616209307313,-1.196444411996007,50,standing
1783066274950007600,3.367433,-0.1925588269237428,0.0637836131244897,-0.0188235045440495,-0.0126381339505314,0.0231797266751527,-0.0289010442793369,-0.8261739794727414,-9.698052262637018,-1.1981794190950692,50,standing
1783066274969932800,3.3873582,-0.0898827346947044,0.0121609779149293,-0.1238536125533282,0.0003565789666026,0.0200233049690723,-3.41777340508e-05,-0.8230562127783894,-9.69820190024078,-1.1990920769605784,50,standing
1783066274989858600,3.407284,-0.1398499308474362,0.0224865570962429,-0.0890070478387177,0.0104848314076662,0.0451597981154918,-0.0056072142906486,-0.8226192826658487,-9.698354460453986,-1.1981757658332586,50,standing
1783066275009784600,3.42721,-0.3200214968197047,0.120011111781001,-0.0977894892312586,0.0296468567103147,0.0337361991405487,-0.0515575744211673,-0.8172242917545139,-9.699063485506176,-1.1961275280665606,50,standing
1783066275029709800,3.4471352,-0.2475209087543189,0.1686369032621383,-0.0679660133756697,0.0605757050216198,0.0237579680979251,-0.0602568089962005,-0.8056287657026201,-9.701002344614269,-1.1882416701875629,50,standing
1783066275049635600,3.467061,-0.0759474405836314,0.0500555320233106,-0.1009971992313861,0.0614150539040565,0.0261720549315214,-0.0164414457976818,-0.797337688023597,-9.70317735056579,-1.176010330450162,50,standing
1783066275069561600,3.486987,-0.047348245825991,0.0193406602859497,-0.0148111270975321,0.0319131575524807,0.010748827829957,-0.0053249192424118,-0.7955603761527686,-9.70433470390737,-1.1676254370078445,50,standing
1783066275089486800,3.5069122,-0.2475490388702601,-0.0141617963433265,-0.0191805012881755,0.0274570770561695,0.0331779010593891,-0.0411279536783695,-0.7912353525605053,-9.70524948066473,-1.1629568606749177,50,standing
1783066275109412600,3.526838,-0.3187112910039723,0.1319564011186361,-0.0289992999911308,0.0610302090644836,0.0140658393502235,-0.0636346265673637,-0.7797783581964671,-9.707117028102278,-1.155083277755603,50,standing
1783066275129338600,3.546764,-0.1793416179541498,0.0676619158625602,-0.0734841922752559,0.089265689253807,0.015548525378108,-0.0419445410370826,-0.7686125287987291,-9.709709382683036,-1.140675543827191,50,standing
1783066275149263600,3.566689,-0.0850591139305382,0.1344429572373628,-0.0746026749111711,0.0582431554794311,0.0056583192199468,-0.0123681016266345,-0.7635358100563288,-9.71184931732118,-1.1257901824496686,50,standing
1783066275169189600,3.586615,-0.1777586596116423,0.0988496658086776,0.0032867665857076,0.0164389703422784,-0.0139609407633543,-0.0270459521561861,-0.7601699138198047,-9.71291606976986,-1.1188348834190518,50,standing
1783066275189115600,3.606541,-0.278515839542076,0.0864542946159839,0.0102400928549468,0.008688130415976,-0.011342903599143,-0.0430710799992084,-0.7532355845119804,-9.713689976751803,-1.1168104649193584,50,standing
1783066275209040600,3.626466,-0.1952082454539835,0.0698339992046356,-0.0055056116789579,0.033314011991024,-0.0267622917890548,-0.0373470894992351,-0.7454138048451393,-9.714725749540328,-1.1130355494905262,50,standing
1783066275228966700,3.6463921,-0.1019306076239794,0.0288607683032751,-0.0071780749358236,0.0407313518226146,-0.019649364054203,-0.0196230523288249,-0.7408285228814929,-9.715951491943,-1.1053778012789786,50,standing
1783066275248892700,3.6663181,-0.1767832387082278,0.111107674357295,0.0152536832332611,0.0298262201249599,-0.0074160178191959,-0.0332314483821392,-0.7367544053103774,-9.71709364771545,-1.0980315301693977,50,standing
1783066275268818400,3.6862438,-0.2022861479509621,0.1811211217820644,0.0081178400039672,0.0147973196581006,-0.0180516466498374,-0.038164909929037,-0.72995626960285,-9.718124159806964,-1.0934398184649643,50,standing
1783066275288744400,3.7061698,-0.0752483524035662,0.1493009191513061,-0.0436770830325782,-0.0048108776099979,-0.0288410317152738,-0.0108064785599708,-0.7248639148999005,-9.718624510544538,-1.092371166320145,50,standing
1783066275308670200,3.7260956,-0.0094543493047356,0.108798812893033,-0.0396001889824867,-0.0267095640301704,-0.0178912319242954,0.0115823997184634,-0.7258646894402802,-9.718226451137662,-1.0952508864749222,50,standing
1783066275328595500,3.7460209,-0.1314270434822887,0.0771025289028883,0.0360661696374416,-0.0462626107037067,-0.0320569351315498,-0.006963063031435,-0.7271934538260102,-9.717355513522028,-1.1020847510829568,50,standing
1783066275348521200,3.7659466,-0.1762758006427437,0.0166167882800102,-0.035737083813548,-0.0384891889989376,0.0128303980454802,-0.016129694879055,-0.7252906889446079,-9.716575176799298,-1.1101871743220837,50,standing
1783066275368447200,3.7858726,-0.1510539002984762,0.0276584067761898,-0.0820038910783827,-0.0119230058044195,-0.007025375496596,-0.0235902089625597,-0.7214831864204257,-9.716245506453513,-1.1155462171372026,50,standing
1783066275388372500,3.8057979,-0.1276263360250741,0.1492278539150953,-0.118557917298004,0.026940181851387,-0.0165708623826503,-0.0294375661760568,-0.7164793867837638,-9.7167563785851,-1.1143064462091774,50,standing
1783066275408298200,3.8257236,-0.1071631014499813,0.1448638134866952,-0.0781482385635375,0.0316212847828865,0.006816535256803,-0.0172960236668586,-0.7121028521999716,-9.71777987641394,-1.1081788301743567,50,standing
1783066275428224300,3.8456497,-0.095989527137205,0.1459597920298576,-0.0131143331170082,0.0293549709022045,-0.0008196227718144,-0.00308248703368,-0.710557303258404,-9.718426942145824,-1.1034814661383627,50,standing
1783066275448149500,3.8655749,-0.0858856278825551,0.1909685620576143,-0.0480721031211316,0.0259372610598802,-0.0231585763394832,0.0062484350055456,-0.7115330894879996,-9.71899217481315,-1.0978524472754447,50,standing
1783066275468075300,3.8855007,-0.2076296278707683,0.0542512301474809,0.0194563956201076,0.0044538062065839,-0.0048972801305353,-0.0114453397691249,-0.7117439557597041,-9.719344056990742,-1.094602359438315,50,standing
1783066275488001300,3.9054267,-0.2758941127363592,0.0061900868117809,0.0508984125882387,-0.0142325777560472,-0.0080587733536958,-0.0287761781364679,-0.7079730589188635,-9.719466222065687,-1.0959669257897884,50,standing
1783066275507926500,3.9253519,-0.1644981960222125,-0.105807229861617,0.0029874913781881,0.0025913170538842,-0.0345458649098873,-0.0273872092366218,-0.7025020801618694,-9.719697108212111,-1.097436925277114,50,standing
1783066275527852300,3.9452777,-0.1381663616746664,-0.0558756164789199,-0.0710953974425792,0.0097559327259659,-0.0250868033617734,-0.0283856932073831,-0.6981582057386636,-9.720248312354087,-1.09532979693003,50,standing
1783066275547778300,3.9652037,-0.2513160632535815,0.0758171652674675,-0.0073234747558832,-0.003583441954106,-0.0095954500138759,-0.042091004550457,-0.6917000425752252,-9.72085855320692,-1.0940094350464642,50,standing
1783066275567703300,3.9851287,-0.1629132649183273,0.1530307533293962,-0.0270603678178042,-0.0139826703816652,-0.0247666724026203,-0.0226557962596416,-0.6859807881455868,-9.72100819081068,-1.096268977476284,50,standing
1783066275587629300,4.0050547,-0.0756417356353253,0.0768704737126827,-0.0972831471443176,0.0183181595057249,-0.0546156205236911,-0.0069093694910407,-0.6848166397370398,-9.721163673633336,-1.0956276838980614,50,standing
1783066275607555300,4.0249807,-0.0664439183749258,0.0902566095083951,-0.1015222460187971,0.0519592501223087,-0.043993167579174,0.0015517747960984,-0.6859339533291756,-9.721981419757007,-1.087648083321005,50,standing
1783066275627480300,4.0449057,-0.1067435608636587,0.0797545047163963,-0.0564409952767193,0.0580996833741664,-0.0355557575821876,-0.0121470987796783,-0.68723371081613,-9.723151048058272,-1.0763156651847063,50,standing
1783066275647406300,4.0648317,-0.2062100433964282,0.0703846188247203,-0.078406597238779,0.0344930775463581,-0.0318335480988025,-0.0388026721775531,-0.6829365981440991,-9.724553900593518,-1.0663213637843727,50,standing
1783066275667332400,4.0847578,-0.1710734096940606,0.0405541287064552,-0.0022539164066314,0.0115041332319378,-0.037941638380289,-0.0475746653974056,-0.6745286160871387,-9.725698394453524,-1.0612203873835504,50,standing
1783066275687257300,4.1046827,-0.0596100537668913,0.0049988312005996,-0.0317735870100557,-0.0255438275635242,-0.0321791544556617,-0.026602042838931,-0.6682273239858448,-9.726057290893792,-1.0619282433919608,50,standing
1783066275707183400,4.1246088,-0.0146641198422759,0.0468289711922407,-0.0258814602315425,-0.0455051995813846,-0.0349355712532997,-0.0036852108314633,-0.6666359631411731,-9.72538918237388,-1.0690165942177177,50,standing
1783066275727109400,4.1445348,-0.1423069686107337,0.0692062226951122,-0.0735907213896513,-0.0354400500655174,-0.0325341969728469,-0.0166825018823146,-0.6657360916920005,-9.72457260529399,-1.0769727408539502,50,standing
1783066275747034400,4.1644598,-0.2704982450421899,0.1707879438161849,-0.0861339766204357,0.0206913091242313,-0.0360396727919578,-0.034347578883171,-0.6611454759661108,-9.72470003106594,-1.0786453502412885,50,standing
1783066275766960400,4.1843858,-0.144824212128669,0.1676058066487312,-0.2463632631517946,0.0566884689033031,-0.0362608507275581,-0.0105385836213827,-0.6569342880118638,-9.726008191055058,-1.0694004059035331,50,standing
1783066275786886400,4.2043118,-0.0984738182336091,0.0733557435899972,-0.1355424429118633,0.0248646643012762,-0.0201477482914924,0.0091681396588683,-0.6574955020911991,-9.726926474943756,-1.0606606346089391,50,standing
1783066275806811400,4.2242368,-0.1770094486795365,0.1657733305245637,-0.0440994000978767,-0.0352270118892192,0.0021047212649136,0.0206610355526208,-0.6608114947713911,-9.726569916591048,-1.0618723484862596,50,standing
1783066275826737400,4.2441628,-0.2332205076579004,0.0743821640282869,-0.0670214260019362,-0.0389120019972324,-0.0163492392748594,0.0030385425779968,-0.6641561290241778,-9.725410225161909,-1.0703744385674596,50,standing
1783066275846663200,4.2640886,-0.2613173058513551,0.0636667087465524,-0.1494173851378262,0.0233315527439117,-0.033384520560503,-0.0233664084225893,-0.6629943187031895,-9.725318455225228,-1.071924882879853,50,standing
1783066275866588400,4.2840138,-0.2040709855411201,0.0812666628450155,-0.1088660329103469,0.0615248829126358,-0.0164477378129959,-0.0192367248237133,-0.6594876988217234,-9.726607325991989,-1.0623474186521022,50,standing
1783066275886514400,4.3039398,-0.1627708607729524,0.005889642560482,-0.1039834485005587,0.0461308993399143,-0.016930827870965,-0.0118808168917894,-0.657093424096331,-9.727993811914324,-1.051069214921072,50,standing
1783066275906439400,4.3238648,-0.162138919544965,0.0788069947332143,-0.0846690916996449,0.015941759571433,-0.0110809979960322,-0.0012753414921462,-0.6560794247481971,-9.728785839074847,-1.044346774798259,50,standing
1783066275926365400,4.3437908,-0.1891502605892717,0.0752151077210903,-0.0932663127183914,-0.0158789344131946,-0.0191799812018871,-0.0016864682547748,-0.6567510403994471,-9.72863620147109,-1.0453264334853738,50,standing
1783066275946291500,4.3637169,-0.2430837300244718,0.0775222156196832,-0.0765711254399269,0.0005220863968133,-0.0404362082481384,-0.0291847568005323,-0.655041021611169,-9.728548523187635,-1.04720771718733,50,standing
1783066275966216400,4.3836418,-0.1688232926797121,0.0252045838832855,-0.0727760440059006,0.0367892235517501,-0.0298500414937734,-0.0185293387621641,-0.6511908489890397,-9.729204356747864,-1.0435204800419509,50,standing
1783066275986142500,4.4035679,-0.0521580572605133,0.0691091920614242,-0.1648953786462545,0.0581350736320018,-0.0385076440870761,-0.000409160827985,-0.650540129995346,-9.730311441206933,-1.033552335996181,50,standing
1783066276006068500,4.4234939,-0.1342862323056906,0.0261468331694602,-0.1454968506932258,0.0455646999180316,-0.0244208350777626,-0.0022751323413103,-0.6517601002443582,-9.73134253782034,-1.0230228317406027,50,standing
1783066276025993500,4.4434189,-0.2360316926211118,0.1534831732720136,-0.0729687900990247,0.0384593978524208,-0.0248955432325601,-0.0220711361616849,-0.6499727053709328,-9.73223510274589,-1.0156452887099237,50,standing
1783066276045919500,4.4633449,-0.1908931587338447,0.0927379049301147,-0.1007394250780343,0.0278801620006561,-0.026276746764779,-0.0246159229427576,-0.6463293804325163,-9.733140527153015,-1.0092727580033245,50,standing
1783066276065845200,4.4832706,-0.1781239127274602,0.0310258373826742,-0.0232322608970105,0.0112321618944406,-0.0226226784288883,-0.0244234260171651,-0.6420396473493427,-9.733826171329618,-1.0053763350866731,50,standing
1783066276085770500,4.5031959,-0.1039314991176128,0.0802431650161743,-0.0404026644717901,0.0095208929851651,-0.0227908995002508,0.0049637514166533,-0.6402161582492292,-9.734112587055565,-1.003768826824799,50,standing
1783066276105696500,4.5231219,-0.0476928945451974,0.0922843159437179,-0.1013227779239416,0.0189250875264406,-0.0515779070556163,0.0150970937684178,-0.6436329809553921,-9.734183314204216,-1.0009077383052558,50,standing
1783066276125622300,4.5430477,-0.1688648667991161,0.1330021107792854,-0.0901069719046354,0.0217830277979373,-0.0514439716935157,-0.0042937430553138,-0.646510509153083,-9.734498956024646,-0.995962610053271,50,standing
1783066276145547300,4.5629727,-0.2221837114673107,0.0724193395227193,-0.0310107859440147,0.0044236970134079,-0.0156860295683145,-0.0215271096676588,-0.6445173625744879,-9.734969496145844,-0.9926605728331952,50,standing
1783066276165473500,4.5828989,-0.1238601884245872,0.1051274309039115,-0.0505312597762793,-0.0085179731249809,0.0002570820506662,-0.0076182326301932,-0.641685573214665,-9.73505483634174,-0.9936400123246012,50,standing
1783066276185399300,4.6028247,0.026637831556797,0.1131564235806465,-0.146140847685188,0.00567695684731,-0.0290387365967035,0.0265108160674572,-0.6444913513503968,-9.734853176289796,-0.9937983446914702,50,standing
1783066276205324300,4.6227497,-0.0940655733373016,0.0448129551947116,-0.1669393786292523,0.0130073623731732,-0.0151054244488477,0.0101764369755983,-0.6493340421412139,-9.734745039740204,-0.9917045872826128,50,standing
1783066276225250300,4.6426757,-0.278250393538922,0.1494143163979053,-0.031126302082464,0.0134800793603062,0.0060998825356364,-0.01506416965276,-0.649203401498869,-9.73504899112284,-0.9888030936874448,50,standing
1783066276245176300,4.6626017,-0.1965147249426692,0.0482762473911047,-0.1067202530533075,0.0023713789414614,0.0267996881157159,-0.0070251962170004,-0.6465436807703226,-9.73536580198705,-0.9874298325728624,50,standing
1783066276265101300,4.6825267,-0.1178816254716366,0.0591641366302967,-0.0458288542389869,0.0282994285225868,-0.0037768082693219,0.004201675299555,-0.6460181955914944,-9.7356294213593,-0.9851743817962706,50,standing
1783066276285027600,4.702453,-0.0965721493307501,0.0339957931041717,-0.0702006405599415,0.0503173805773258,-0.0056226449087262,0.0214246045798063,-0.6492216678079217,-9.736199914723636,-0.97741236949265,50,standing
1783066276304953600,4.722379,-0.1957808577101677,0.0485696773797273,-0.0672749623715877,0.0462618470191955,-0.0059618698433041,0.0148090859875082,-0.6540112401720136,-9.736856332805752,-0.967618997491896,50,standing
1783066276324878300,4.7423037,-0.2822825716644525,0.0685638331383466,-0.0365707581587135,0.0142009211704134,0.0146309612318873,-0.0102196084335446,-0.6542993363983929,-9.737398769119382,-0.961961190925911,50,standing
1783066276344804600,4.76223,-0.2594466166086495,0.0903477949231863,0.0606733721494674,-0.0033176976721733,0.0202157851308584,-0.0191467851400375,-0.6507988539967685,-9.737633746919036,-0.9619405865292996,50,standing
1783066276364730400,4.7821558,-0.0625252105612307,0.1369657537132501,-0.0482166261583566,0.0123050007969141,-0.0039944066666066,0.0109588084742426,-0.6497497102700174,-9.737714410939812,-0.961837491481006,50,standing
1783066276384655400,4.8020808,-0.0233324333358556,0.0210544784665107,-0.0823345843374729,0.0312701314687728,-0.0256378185003995,0.018063573166728,-0.6534785215348005,-9.73792191621065,-0.9571978489816187,50,standing
1783066276404581600,4.822007,-0.1384896022796631,0.0525099394381046,-0.0664168111722916,0.0244005843997001,0.0051265549845993,-0.0100417993962764,-0.6551881019316613,-9.738401808682084,-0.951118675198406,50,standing
1783066276424507400,4.8419328,-0.2488034228455275,0.0683341160356998,-0.0266097014408558,0.0205638390034437,0.0008454616763629,-0.0490142740309238,-0.6488725621093064,-9.739262224903705,-0.9466332734126596,50,standing
1783066276444432400,4.8618578,-0.1432902074944227,0.0619072978585958,0.0292716871917247,0.0155494604259729,0.0138315241783857,-0.038401510566473,-0.6399130105841905,-9.740168233832716,-0.943408173886314,50,standing
1783066276464358700,4.8817841,0.0480672808155417,0.12848024944067,-0.0551612576644867,0.0229431074112653,-0.0129752783104777,0.0012789920438081,-0.6365918302722275,-9.740750417634844,-0.9396293859999626,50,standing
1783066276484284400,4.9017098,0.0536075984816998,0.1545598625928163,-0.0859073282577097,0.0298487152904272,-0.0005071213236078,0.0215708911418914,-0.6400375137466937,-9.74109411650598,-0.9337230845656246,50,standing
1783066276504209400,4.9216348,-0.1584992478683591,0.1468295606017112,-0.046321021670103,0.0290168207138776,0.0168844554573297,-0.0008294574799947,-0.6422117159806191,-9.741443076074123,-0.9285678937595336,50,standing
1783066276524135700,4.9415611,-0.2102287044532597,0.1229249534010887,-0.0565004703789949,0.0181810464709997,0.0229365993291139,-0.0071687465533614,-0.6404610729210078,-9.741929398286342,-0.9246734436042606,50,standing
1783066276544060400,4.9614858,-0.1401421187270432,-0.0027928455889225,0.0104132574647665,0.0030957197304815,0.0169894993305206,-0.0092220529913902,-0.6385720443040133,-9.742206461662054,-0.9230532219912856,50,standing
1783066276563986400,4.9814118,-0.1000793537341058,0.0134188690215349,0.0053431876588612,-0.0018628356046974,-0.0045027607120573,-0.003393031656742,-0.6373346114635468,-9.742256730544566,-0.9233699597902596,50,standing
1783066276583912400,5.0013378,-0.0950084802106022,0.0325473478615283,-0.0047538434635847,0.0185581184923648,-0.031162092462182,-0.0023907134309411,-0.6379162838090211,-9.74238123370707,-0.9216530728697776,50,standing
1783066276603837400,5.0212628,-0.1861244099620729,0.0182528650492429,0.011516250270605,0.0287167001515626,-0.0114299887791275,-0.0204262230545282,-0.636582989378646,-9.74305109579265,-0.9154772337790578,50,standing
1783066276623763500,5.0411889,-0.2787471640799194,0.0814811823785305,0.0330974560249596,-0.0098386043682694,0.0294754579663276,-0.0317132361233234,-0.6311989582527429,-9.743580672624706,-0.9135653357431291,50,standing
1783066276643689500,5.0611149,-0.1575820599582046,0.122124158412218,0.0329237799584865,-0.0497853383421897,0.019931761547923,-0.0099512264132499,-0.6265188376124948,-9.743223529750107,-0.9205738993309438,50,standing
1783066276663614500,5.0810399,-0.0542427545800805,0.0464899484962224,-0.0808001413118094,-0.0295704025775194,-0.0148402545601129,0.0001175319775938,-0.6266081233311445,-9.742407537192106,-0.9291043387237936,50,standing
1783066276683540500,5.1009659,-0.1038812302350997,0.0914092866748571,-0.0755688895948231,0.011314595118165,-0.0155324023216962,-0.0048854919150471,-0.6269490457233041,-9.74228771020472,-0.9301457375355064,50,standing
1783066276703466500,5.1208919,-0.1753776827592402,0.0711754769414663,-0.036439240733534,0.0342320650815963,-0.0016478333855047,-0.0355351530015468,-0.6232384277023375,-9.743003164997695,-0.9251322202224284,50,standing
1783066276723391500,5.1408169,-0.173029585263133,0.1250719023019075,0.012239888370037,0.028313785791397,0.0209480747580528,-0.0337181501090526,-0.6158600078888237,-9.74407634718716,-0.9187444919466972,50,standing
1783066276743317200,5.1607426,-0.0296095773765817,0.0408013814657926,-0.0291617240112274,0.0089949425309896,0.0022738573607057,-0.0075737023726105,-0.6115875182013958,-9.744649763160943,-0.9155003223937004,50,standing
1783066276763243500,5.1806689,-0.0187927075469866,0.008218962290883,-0.0311976137530058,0.0088852364569902,-0.0143096288666129,-0.0031061440240591,-0.6111814581511542,-9.744837979209423,-0.9137639270551502,50,standing
1783066276783168500,5.2005939,-0.1298323947019874,0.0373830974549055,0.0611434008140116,0.0069225570186972,0.0074475365690886,-0.0071073174476623,-0.6110234180452302,-9.74497241924405,-0.9124318747337908,50,standing
1783066276803094300,5.2205197,-0.1690227973071858,0.06818447843194,0.0311228680163621,0.0063025178387761,0.004218800459057,-0.0221937131136655,-0.6087933574382215,-9.745248313575985,-0.9109922703847289,50,standing
1783066276823020500,5.2404459,-0.2109595029458403,0.0751250913500785,0.0284685541152954,-0.0033935501705855,0.0070547638460993,-0.0380988530814647,-0.6027698958976194,-9.745604871928691,-0.9111807056289166,50,standing
1783066276842945500,5.2603709,-0.1258142816344276,0.1210322715222835,0.0013543372184038,-0.0076806358993053,-0.0075008049607276,-0.0193489100784063,-0.5961870103759691,-9.745872582954169,-0.9126473441153764,50,standing
1783066276862871300,5.2802967,0.0130879565667361,0.124804191276431,-0.0598322451502084,-0.0064546344801783,-0.0165451578795909,0.0301459301263093,-0.598021386196278,-9.7456042874068,-0.9143081899996848,50,standing
1783066276882797600,5.300223,-0.0720558765051886,0.0846522136300802,-0.0861848300248384,-0.0040698214434087,-0.011109946295619,0.025017661973834,-0.6047550053002313,-9.745106274756788,-0.9151900143355132,50,standing
1783066276902722300,5.3201477,-0.2575089630769565,0.0915507409721612,-0.0019153321020305,-0.0099177779629826,0.0127259474247694,-0.0073309270665049,-0.6072465663876384,-9.744820443552731,-0.9165604989711196,50,standing
1783066276922648300,5.3400737,-0.2271907625069841,-0.0025017536878585,-0.003787701845169,-0.0136234499514102,0.0056919991038739,-0.0101767713204026,-0.6047942413320765,-9.744742117619516,-0.9190271082803606,50,standing
1783066276942574600,5.36,-0.0571888545019552,-0.0423679001301527,-0.0985666110835969,-0.0104603273794054,-0.0105826444923877,0.0053114760667085,-0.6042092445183544,-9.74452876712978,-0.9216622790895402,50,standing
1783066276962499300,5.3799247,-0.0950837008712813,0.0272720378071069,-0.0546820227801799,-0.0056638401001691,0.0011776199098676,0.0020345710217952,-0.6059685458084568,-9.744289113155007,-0.9230497148599476,50,standing
1783066276982425300,5.3998507,-0.1793051949338987,0.1835287674456834,-0.0184698688007891,0.0016528032720088,0.0054164491593837,-0.0141495391726493,-0.6049456690341234,-9.744325353512169,-0.923349355393648,50,standing
1783066277002350600,5.419776,-0.1063626717872917,0.1528676717221737,-0.005253682744503,0.0012556709116324,0.0174249894917011,-0.0040916996076703,-0.6029197161644697,-9.74448843511939,-0.9229482272468508,50,standing
1783066277022276400,5.4397018,-0.0464594802927225,0.0644903000891208,-0.0462764518760144,-0.0049446299672126,0.0133273880928754,0.009871213696897,-0.6032669221669436,-9.74439608066082,-0.9236742764990776,50,standing
1783066277042202400,5.4596278,-0.0557234581245109,0.0625935265570879,-0.071096712616831,0.00227712537162,0.0159613266587257,0.0175452679395675,-0.6056748966241255,-9.744147658857704,-0.9247416134696452,50,standing
1783066277062127600,5.479553,-0.0315232655107974,0.1350163732111454,-0.0257275848440825,0.0256803203374147,-0.001259216107428,0.0421279929578304,-0.6114695543775335,-9.743994514122605,-0.9225260563120246,50,standing
1783066277082053400,5.4994788,-0.0689643036980181,0.0307984583675861,-0.1158072303503751,0.0304556190967559,-0.0111890966072678,0.03356609120965,-0.6198176594734192,-9.744074593621493,-0.9160934659812598,50,standing
1783066277101979400,5.5194048,-0.3052993631798774,-0.0119692547351121,0.0473082060765475,0.007638273295015,0.0112794172018766,-0.0153598403558135,-0.6218553027808665,-9.744254041841623,-0.9128120331577956,50,standing
1783066277121904400,5.5393298,-0.254487021439895,0.0555675734430551,0.049812370917201,-0.0182889085263013,0.0125608136877417,-0.0243062861263752,-0.6165533969804644,-9.74445277928412,-0.9142683694459496,50,standing
1783066277141830400,5.5592558,-0.0593874239921569,0.0372954191714525,0.0597907440960407,-0.0193057507276535,0.0098249148577451,-0.0053444006480276,-0.6136826638497412,-9.744286775067447,-0.917962547788769,50,standing
1783066277161756400,5.5791818,-0.0116840811181813,0.0752735599100589,-0.0548626400440931,-0.014703988097608,-0.0119571229442954,0.0054963286966085,-0.6142500884741544,-9.743957689243556,-0.9210743231337516,50,standing
1783066277181681400,5.5991068,-0.0977758990973234,0.051132805866003,0.0135732558656483,-0.0311142187565565,-0.0090825939550995,-0.005693344399333,-0.6155464849602431,-9.743459092071651,-0.9254646670471876,50,standing
1783066277201607400,5.6190328,-0.1201921674363315,0.1268424191057681,0.0268507436551153,-0.0133497072383761,-0.0189665108919143,-0.0331267714500427,-0.6115357149489223,-9.743302440205216,-0.9297641178067771,50,standing
1783066277221533400,5.6389588,0.0093558938989415,0.0915285291403532,-0.0975398983843624,-0.0196391083300113,-3.07072186842e-05,-0.0108284214511513,-0.607008665978536,-9.743304778292774,-0.93271507656686,50,standing
1783066277241458400,5.6588838,0.058834648947604,0.1014876130968332,-0.1067379348404705,-0.0114184534177184,-0.0102216936647892,0.0109483171254396,-0.6077053795384243,-9.742938867589832,-0.9360862335003912,50,standing
1783066277261384000,5.6788094,-0.0226339296776801,0.1379728849291801,-0.1361440620668232,0.0171718541532754,0.0084963915869593,0.0199779476970434,-0.6110814683753997,-9.742762926501037,-0.9357104589905588,50,standing
1783066277281310200,5.6987356,-0.104655904402025,0.0778711751878261,-0.131101391724497,0.0346649177372455,0.0258159711956977,-0.0015137346927076,-0.6128564786912873,-9.743114808678628,-0.9308764629628508,50,standing
1783066277301235000,5.7186604,-0.1554635334342718,0.0954255365788936,-0.0872895033311098,0.0353752188384532,0.0392973273992538,-0.0074365893378853,-0.6106811074135825,-9.74390800488293,-0.92396134981215,50,standing
1783066277321161000,5.7385864,-0.0557941487405449,0.070717211779952,-0.1221662439882755,0.0311294849961996,0.0245856344699859,0.0163474883884191,-0.6106917018728331,-9.74448901964128,-0.9178146637506782,50,standing
1783066277341087000,5.7585124,0.0073464903052896,0.0404044911026954,-0.0645049862015992,0.0413087904453277,-0.007485325448215,0.0356473177671432,-0.6159227709267288,-9.744703539174797,-0.9120303812608124,50,standing
1783066277361012000,5.7784374,-0.0908388663757592,0.1166658930063247,-0.0935468832254409,0.074298121035099,0.0131283076480031,0.0233554113656282,-0.6218849672667682,-9.745396782135964,-0.9004958646811544,50,standing
1783066277380938000,5.7983634,-0.1885883158575743,0.0632809242993593,-0.0188918205399066,0.0479610785841941,0.0485352054238319,0.007423457223922,-0.6246921336419881,-9.746331432637572,-0.8883614825122058,50,standing
1783066277400863000,5.8182884,-0.2088488674674183,0.0778764358848333,0.0436216265182942,0.0199323650449514,0.0414957851171493,-0.0004659264232032,-0.6243333833321929,-9.746861009469628,-0.882789381468296,50,standing
1783066277420789000,5.8382144,-0.0868655788306146,0.1071592289924621,-0.0334720614910125,0.0208042785525321,0.0116431033238768,0.0192185267806053,-0.6257086902733892,-9.747112938404085,-0.8790184846274555,50,standing
1783066277440715000,5.8581404,-0.0393963369734585,0.1219055472254753,0.0102256259381771,0.0382104776799678,-0.0046108225360512,0.0361317805945873,-0.6312792569473386,-9.7473444090724,-0.8724380833238363,50,standing
1783066277460640000,5.8780654,-0.1320627110373228,0.0070019877165555,0.0318413184840232,0.0051973611116409,0.030794670805335,0.0195461306720972,-0.6370744992226361,-9.7473613602072,-0.8680159560326486,50,standing
1783066277480566000,5.8979914,-0.278785158002749,0.067802201116085,0.1042879844050854,-0.0415616631507873,0.0327396541833877,-0.0122693013399839,-0.6368475585989654,-9.746962131756543,-0.8726772258419543,50,standing
1783066277500491800,5.9179172,-0.1456547446686774,0.0641238048642873,0.0278203193396329,-0.0473710037767887,0.0105303134769201,0.0171570237725973,-0.6366507208526134,-9.7461256809324,-0.8821016914650798,50,standing
1783066277520417000,5.9378424,0.0264057763665914,0.0861924288094043,-0.0061076692253351,-0.0282896645367145,-0.0256789047271013,0.0391082502901554,-0.6417155299615115,-9.745150113898514,-0.8891736026126891,50,standing
1783066277540343000,5.9577684,-0.1131677486922591,0.0260696762800216,-0.0639601387351751,-0.0396096669137477,0.0092964274808764,0.0151064563542604,-0.6472906266801058,-9.744283852458,-0.8946187893413007,50,standing
1783066277560268800,5.9776942,-0.2530550889406353,0.0767810418635606,0.0930155528277158,-0.0748823136091232,0.0253957621753215,-0.0138109354302287,-0.6474640104856342,-9.74322060714066,-0.9059962887283414,50,standing
1783066277580194000,5.9976194,-0.1499234349638223,0.0428384402513504,0.0074632485527545,-0.0640839338302612,-0.0105981407687067,-0.0155708277598023,-0.6443527465973049,-9.74204805622995,-0.9207017634943128,50,standing
1783066277600120000,6.0175454,0.003610957038775,0.076754153856635,-0.0869033535577356,-0.0354320742189884,-0.0184929650276899,0.0173533894121646,-0.6446585976760834,-9.741099961724876,-0.930482495209202,50,standing
1783066277620045800,6.0374712,0.0235215261671692,0.1140881514728069,-0.0553922168761491,-0.0132778249680995,-0.0239566266536712,0.0388961099088192,-0.65110156327039,-9.740275201338529,-0.934610096533224,50,standing
1783066277639971000,6.0573964,-0.081779434672743,0.0839648158878088,-0.0656178428143262,-0.0348436720669269,-0.0134688057005405,0.0194711107760667,-0.6574301817700267,-9.739480836090443,-0.938450478413701,50,standing
1783066277659897000,6.0773224,-0.1862862494602799,0.0730336720287799,0.0470228863291442,-0.0623940974473953,-0.0030014233198016,-0.002689458662644,-0.6587173720363527,-9.73842694312334,-0.9484398844432084,50,standing
1783066277679822800,6.0972482,-0.0757131934363394,0.1028869585007429,-0.0337047012031078,-0.0454065315425396,-0.0198738072067499,0.0145884854719042,-0.6591570055626332,-9.737304076573253,-0.9595897125542164,50,standing
1783066277699748000,6.1171734,-0.0078659110695123,0.0409837522953748,-0.0915758754134178,-0.0098311472684144,-0.0450874604284763,0.0140824802219867,-0.6635580170005559,-9.736602650305628,-0.9636688716266304,50,standing
1783066277719673900,6.1370993,-0.203188576683402,0.0373275678753852,-0.0251537304788827,-0.0216028299182653,-0.0018016435205936,-0.0118988398462533,-0.6641109747081995,-9.736388130772111,-0.9654472064107656,50,standing
1783066277739600000,6.1570254,-0.2480311963640153,0.1286813249707221,0.0818845024824142,-0.0529602654278278,0.0186146479099988,-0.0195256881415843,-0.661017319541797,-9.735864399158954,-0.97282657607235,50,standing
1783066277759525000,6.1769504,-0.1177846679031848,0.1521048706561326,-0.0088414781033992,-0.0377388335764408,-0.0072419708594679,-0.0132809923961758,-0.6576373217146844,-9.735196290639042,-0.9817591665253044,50,standing
1783066277779451000,6.1968764,-0.0361121276710182,0.1736398261159658,-0.060338441106677,-0.0215906482189893,-0.0226442571729421,0.0082019045948982,-0.6577575140282511,-9.73458488074243,-0.9877236278876662,50,standing
1783066277799376100,6.2168015,-0.0380639923911541,0.1782604716539383,-0.0855665519960224,-0.008347475901246,-0.0444883666932582,0.0215432364493608,-0.6616415889199823,-9.73411901679635,-0.989729487817362,50,standing
1783066277819302100,6.2367275,-0.1369213300496339,0.0374018021553754,-0.0243272165268659,-0.0352182798087596,0.0008072874043136,0.0098972544074058,-0.6657347765177488,-9.733469612976908,-0.9933578343823553,50,standing
1783066277839228000,6.2566534,-0.2191098569799214,0.0349433030873537,0.0392541520237922,-0.039961289614439,-0.0086207436397671,-0.0060841157101094,-0.666595046608895,-9.732507489946483,-1.0021719860874116,50,standing
1783066277859153200,6.2765786,-0.0897562587708234,0.0268102655142545,-0.1128056373815983,-0.007777074817568,-0.0116319367662072,0.0025207588914781,-0.6669611034423113,-9.732005385643244,-1.0067823294270783,50,standing
1783066277879079000,6.2965044,-0.062074763379991,-0.046602761220932,-0.1568196242183446,0.0264105591922998,-0.0152290947735309,-0.0014815353788435,-0.6680070322986692,-9.73221464447975,-1.0040690518803894,50,standing
1783066277899005000,6.3164304,-0.1225371961925178,-0.0137725047647953,-0.1035362161897122,0.0080896001309156,0.0100129917263984,-0.0064811217598617,-0.6676989892628044,-9.73257237187624,-1.0007889342311769,50,standing
1783066277918930200,6.3363556,-0.1239165217217057,0.1486298880219459,-0.0443652114272117,-0.0014317722525447,0.0051086135208606,-0.0063852635212242,-0.665870677857101,-9.732768771231171,-1.0001051166854795,50,standing
1783066277938856000,6.3562814,-0.0327978154912591,0.1976525698661804,-0.0554090949457138,0.0076380297541618,0.0048168734647333,0.0221533570438623,-0.6673563133049756,-9.732709734520316,-0.9996856491643936,50,standing
1783066277958782000,6.3762074,-0.0240193196214735,0.1402145263761282,-0.0453751921873539,0.0135187599807977,-0.0090736933052539,0.0210135988891124,-0.6720948861341923,-9.732582893270251,-0.9977481052305548,50,standing
1783066277978707200,6.3961326,-0.15549480535537,0.1576706880897283,0.0336012408286333,0.0181880015879869,-0.0032494510523974,-0.0072023216634988,-0.6740959968235344,-9.732831315073373,-0.9939756740197538,50,standing
1783066277998633000,6.4160584,-0.1232988282147794,0.0658797086209058,0.1099454987101256,-0.0117713380604982,-0.0227369721978902,-0.0060294400900602,-0.6717259066913277,-9.733068630960584,-0.9932560545083134,50,standing
1783066278018559000,6.4359844,0.0222976834606379,0.0429921695083379,0.0442442153960466,-0.0390850529074668,-0.0475431904196739,0.0411301217973232,-0.6751664025340229,-9.732326288160682,-0.9981840854950248,50,standing
1783066278038484000,6.4559094,0.0087899671118706,-0.0461310520559549,-0.081205141916126,-0.0464111417531967,-0.0816889107227325,0.0570262633264064,-0.6872467164281755,-9.730590258148313,-1.0068100211516022,50,standing
1783066278058410000,6.4758354,-0.2032270820628851,-0.0294897138565778,-0.074968585614115,-0.0238507632166147,-0.0543695911765098,0.0237472839653491,-0.697292236559093,-9.729277421984076,-1.012597445446625,50,standing
1783066278078336000,6.4957614,-0.331960283351317,-0.0450368270784616,-0.069143094331026,0.0010705969762057,-0.0150309354066848,-0.0148321231827139,-0.6984443292036652,-9.72899217530191,-1.0145320667710154,50,standing
1783066278098261000,6.5156864,-0.1993695298518985,0.0665811348885297,-0.1647591850459575,0.0386038832366466,-0.0076373191550374,-0.0070637720637023,-0.695463413696736,-9.729579035279157,-1.0109435407597571,50,standing
1783066278118187000,6.5356124,-0.0576156650792807,0.1190676934510469,-0.2148275765508413,0.0657017230987548,-0.0154619086533784,0.0238882210105657,-0.6976053941614926,-9.730440620544552,-1.001127591601014,50,standing
1783066278138113000,6.5555384,-0.1074842962283641,0.118455699032545,-0.1478339153386652,0.0469637550413608,0.0019120576325803,0.0167144071310758,-0.7017560110349208,-9.731326171207428,-0.9895617300350218,50,standing
1783066278158038000,6.5754634,-0.2112164003163576,0.0667307724922895,-0.0173019940651953,0.0118989236652851,0.0142260622233152,-0.0016956132603809,-0.7027703026439994,-9.73182476837933,-0.983923066560924,50,standing
1783066278177964000,6.5953894,-0.1104680612795054,0.0797749629825353,0.0357026700872927,0.0130661483854055,0.0037764492444694,0.0090606128796935,-0.7028121690243482,-9.731998371380566,-0.9821603677373378,50,standing
1783066278197889000,6.6153144,-0.044918096069619,-0.0128372697412967,-0.0745318016320467,0.0310550965368747,-0.0239477697759866,0.0138256764039397,-0.7061131102658808,-9.73216203750968,-0.9781690330788492,50,standing
1783066278217815000,6.6352404,-0.1737912172853946,0.0630260727554559,-0.0089123513825237,0.0280752852559089,-0.0293720960617065,0.0004904299858026,-0.7083225299436599,-9.73260919675529,-0.9721118519317358,50,standing
1783066278237741000,6.6551664,-0.2130092750824987,0.0685527272224426,0.0697391605280339,-0.02246112562716,0.0126760220155119,-0.0112445233389735,-0.707710900851339,-9.732748897486925,-0.9711563778378068,50,standing
1783066278257665800,6.6750912,-0.2234004668459296,0.0752764825195074,0.0697280546121299,-0.049882810562849,0.0014211933594197,-0.0108476467430591,-0.7049514460753649,-9.732140410199762,-0.9792251910682768,50,standing
1783066278277591800,6.6950172,-0.040635158053413,0.1220797347486019,-0.0588490793317556,-0.0247790552675724,-0.0212223324924707,0.031865194439888,-0.7068046727266162,-9.73120809778571,-0.9871178440142422,50,standing
1783066278297517600,6.714943,-0.0015389730703085,0.1267208385527133,-0.1978564218752086,0.0175235737115144,-0.0654035955667495,0.0348183065652847,-0.7153747865427285,-9.730610716414452,-0.9868247793518006,50,standing
1783066278317442600,6.734868,-0.266997908771038,0.0128530518323183,-0.0974094038724899,0.0143045801669359,-0.0280464105308055,-0.007223627064377,-0.7195628128170967,-9.730767952802776,-0.982225907254219,50,standing
1783066278337368800,6.7547942,-0.2836265336193144,0.0863151784062385,0.0256360341031104,-0.0147601254284381,0.0006097210571169,-0.0149060273543,-0.717000049657002,-9.730906484490632,-0.9827179285548628,50,standing
1783066278357294600,6.77472,-0.0719029874984174,-0.0290285260856151,-0.0407435137987136,-0.0179096814244985,-0.0028534282464534,0.0036594958510249,-0.7160886339005083,-9.730635266333818,-0.9860700885269792,50,standing
1783066278377219600,6.794645,-0.0856751269370317,0.0109966103106737,-0.1347866561084985,-0.0100034149363636,0.0008447797154076,-0.004333795979619,-0.7169810526955872,-9.73025824971497,-0.9891411665353924,50,standing
1783066278397145900,6.8145713,-0.2234882181946188,0.1167576629430055,-0.0664285746753215,0.0141009027138352,0.0008453450282104,-0.0284552909433841,-0.7133928920105099,-9.730524791696666,-0.9891149361155926,50,standing
1783066278417071600,6.834497,-0.0782082981877028,0.2442319502115249,-0.0837473006796091,0.0462272949516773,-0.0084077781066298,0.0074944077059626,-0.7114291907221079,-9.731255444058776,-0.9833184517312794,50,standing
1783066278436996600,6.854422,-0.0104435795377939,0.0313204364150762,-0.1397306883819401,0.0387540757656097,-0.0374185182154178,0.017071321606636,-0.7152990178927778,-9.73187854439318,-0.9743215638704598,50,standing
1783066278456922600,6.874348,-0.1601337172023952,0.0912818609029054,0.0129212947629392,-0.0094151459634304,-0.0064779976382851,0.011066822335124,-0.7186881488744169,-9.731984927377104,-0.9707516694944353,50,standing
1783066278476848600,6.894274,-0.1842388154111802,0.0771679953545332,0.091193671162799,-0.0602278523147106,-0.0046690581366419,-0.003201107494533,-0.7197219489015638,-9.73118705499768,-0.9779461841084064,50,standing
1783066278496773600,6.914199,-0.1685256249073892,0.0374169997245073,-0.0164801562882959,-0.0416816733777523,-0.0242375023663043,0.0040791449137032,-0.7201721038218587,-9.730044314703346,-0.9889351225692778,50,standing
1783066278516699600,6.934125,-0.0968907868258655,-4.0916532278e-05,-0.1091682307273149,-0.0088326502591371,-0.0365184023976326,0.0175118632614612,-0.7228240065701306,-9.729396079927682,-0.9933614876441657,50,standing
1783066278536625700,6.9540511,-0.1421197754755616,0.1059101057142019,-0.0688924805708229,0.0243787299841642,-0.0378059931099414,0.0049266228452324,-0.7263770228765905,-9.729404847756028,-0.9906914647173136,50,standing
1783066278556550700,6.9739761,-0.2176310165990143,0.1328735159635543,-0.0560322683453559,0.0111291445791721,-0.0048793130554258,-0.0076539837755262,-0.7262831340480596,-9.729731595492362,-0.987540526405722,50,standing
1783066278576476700,6.9939021,-0.2028942699119448,0.1562187357157468,-0.0269627526622265,-0.001482670661062,-0.0018715681508183,-0.0034570621792227,-0.7250085110023617,-9.729882402139902,-0.9869817965444176,50,standing
1783066278596401700,7.0138271,-0.0585807107191532,0.0752560242533683,-0.0464051928222179,0.0036749572027474,-0.0049754534848034,0.0270571243017911,-0.7273158380966633,-9.729724581229686,-0.9868429725956172,50,standing
1783066278616327400,7.0337528,0.0202178084466606,0.1357932028025388,-0.1299619393657893,0.0223951619118452,-0.0166885126382112,0.0465067736804485,-0.7354856274835765,-9.729358670526745,-0.9843890035722404,50,standing
1783066278636253700,7.0536791,-0.1160096941199153,0.0829804810255765,-0.101150343966484,0.0175261199474334,-0.0185023956000804,0.0083608608692884,-0.7420123258385807,-9.729368607398866,-0.9793825005218386,50,standing
1783066278656178700,7.0736041,-0.2958435525704175,0.0185778592199087,0.0561766452521085,-0.0232515819370746,0.0220045056194067,-0.0258116908371448,-0.7399480137199163,-9.72945979281366,-0.98003943006061,50,standing
1783066278676104400,7.0935298,-0.1598581151314079,0.0084475103497505,0.0597873100299388,-0.0395470820367336,-0.0050550820305943,-0.0055351732298731,-0.7352738113638013,-9.729055303665994,-0.987540234144777,50,standing
1783066278696030700,7.1134561,0.0693820907186716,-0.0039706571966409,-0.0799609870739281,0.0141259208321571,-0.0354010723531246,0.0331943482160568,-0.7393096427511423,-9.728459675860403,-0.9903972310110926,50,standing
1783066278715955700,7.1333811,-0.0718104138441383,0.1080821890562772,-0.105687987396121,0.0425718091428279,-0.0145453130826354,0.0178104490041732,-0.7456596693649887,-9.728732647582888,-0.9829257260866464,50,standing
1783066278735881500,7.1533069,-0.3375115608029067,0.0744219115167856,0.0030950434058904,-0.0077890111133456,0.0309158433228731,-0.0268000625073909,-0.7448173002567142,-9.729189743700625,-0.9790317143227903,50,standing
1783066278755807700,7.1732331,-0.2063873727247119,0.1768161180645227,0.0350754050344228,-0.0413058958947658,0.0206081308424472,-0.0038024091627448,-0.7405192377366125,-9.72893255406916,-0.984825203032419,50,standing
1783066278775732700,7.1931581,0.0890273599743843,0.1072287870973348,-0.0299069894205778,0.0063093011267483,-0.040970392525196,0.0385003387928009,-0.7448888311229646,-9.728177936309576,-0.9889751623187214,50,standing
1783066278795658500,7.2130839,-0.0296077142130583,0.0364221434682607,-0.0997441304303705,0.0310887061059474,0.0069879628717899,0.0202120579779148,-0.752099054762721,-9.72815163282454,-0.983781685328856,50,standing
1783066278815584800,7.2330102,-0.3791858526457101,0.0340618440777063,0.0093166943997144,0.0056599979288876,0.0310026966035366,-0.0548132322728633,-0.7486327668916434,-9.7287829164654,-0.9801653214626014,50,standing
1783066278835509500,7.2529349,-0.2414448767762631,0.0723135410606861,-0.038569238499552,-0.0116665987297892,0.0184704773128032,-0.0400681085884571,-0.7377838214233517,-9.729476743948458,-0.9815101602002978,50,standing
1783066278855435500,7.2728609,0.1256608081057667,0.0363484937101602,-0.092556045557186,0.0175050739198923,-0.0178713575005531,0.0398777015507221,-0.7384265763062984,-9.729422967934608,-0.9815426742304116,50,standing
1783066278875361800,7.2927872,0.0397010920736938,0.0086456632703542,-0.1249549979239702,0.0295306332409381,-0.027432719245553,0.0391760803759098,-0.7482350728109478,-9.729254041108488,-0.9757789230719208,50,standing
1783066278895286500,7.3127119,-0.354953913186863,0.0508428830087184,0.0979782167363911,0.0024918396957218,0.0344019047915935,-0.0257026795297861,-0.7504189927212893,-9.72940250966847,-0.972610302973166,50,standing
1783066278915212500,7.3326379,-0.3094270375691354,0.2249941657781601,0.0948247942067682,-0.015082093887031,0.0355763584375381,-0.0249511357396841,-0.743572707023099,-9.729674312347171,-0.9751428171254694,50,standing
1783066278935138800,7.3525642,0.028357860282436,0.0747889912635088,-0.0533458057403564,0.0040471875108778,-0.015617779456079,0.0348263345658779,-0.7443739404033869,-9.729407185843586,-0.9772083713531492,50,standing
1783066278955063600,7.372489,0.0187657099422067,0.073123103877902,-0.1187923836410045,0.0217669680714607,-0.0387266725301742,0.0373567715287208,-0.752887867052853,-9.729088036891817,-0.9738613259475678,50,standing
1783066278974989600,7.392415,-0.2284237749006599,0.0690922409266233,0.0037292496562004,-0.0006026763003319,-0.0043869451619684,0.0107306912541389,-0.7585860056292265,-9.728947751638293,-0.9708367174293844,50,standing
1783066278994914600,7.41234,-0.2538354256633669,0.0325450097739696,0.1026250926941633,-0.0494204685091972,0.0150933479890227,-0.0013072994770482,-0.7598096291400491,-9.728313545387982,-0.9762095695741474,50,standing
1783066279014840600,7.432266,-0.1587119407709687,-0.0097013098031282,0.0160287592589855,-0.039973147213459,-0.0097407456487417,0.0004867820534855,-0.7593149044256657,-9.72736720444858,-0.9859798529602588,50,standing
1783066279034766600,7.452192,-0.0778426797457039,0.0490840566426515,-0.0476977168507874,-0.0244465116411447,-0.0016603064723312,0.0100975176319479,-0.7598287722319365,-9.726747611245512,-0.9916852980602532,50,standing
1783066279054691600,7.472117,-0.0606377163141965,0.0785679252803325,0.0029952362932264,-0.0312413703650236,-0.0077399746514856,0.0257340427488088,-0.7631171462528407,-9.726002345836164,-0.996439506850019,50,standing
1783066279074617600,7.492043,-0.0952721726480871,0.1247644437879323,-0.0233211812894791,-0.041030429303646,0.0089862057939171,0.01353220641613,-0.768136654915288,-9.724913966077564,-1.0031928535677492,50,standing
1783066279094543600,7.511969,-0.2627202314518392,0.0434942738115787,0.0822119078058749,-0.0186483096331357,0.0632398277521133,-0.03645820915699,-0.7657387999933213,-9.724448102131486,-1.00951599217467,50,standing
1783066279114468600,7.531894,-0.2916558185569942,0.0599438888311386,-0.0457267090387642,0.0184918530285358,0.0462562963366508,-0.065033234655857,-0.7543111778542398,-9.72518752232194,-1.0110141217779367,50,standing
1783066279134394600,7.55182,-0.0314452318385243,0.1538683731973171,-0.02046367296651,0.0153757352381944,0.0091113811358809,-0.0179399754852056,-0.7448746564671397,-9.726336692357062,-1.0069483336437492,50,standing
1783066279154320600,7.571746,0.0528899517316371,0.0690437256097793,-0.065081251719594,-0.0169874988496303,-0.0072521097026765,0.0430325083434581,-0.7485552446760236,-9.726056121850013,-1.0069228338763117,50,standing
1783066279174245600,7.591671,-0.1015890276446938,0.0286374809414148,-0.1625556836523115,-0.0789303556084632,-0.0345437750220298,0.0507742390036582,-0.7586774833049624,-9.724407185599206,-1.015242041671276,50,standing
1783066279194171600,7.611597,-0.1611938937798142,0.0085375267207622,0.0278729993749409,-0.1188535168766975,-0.0171984564512968,0.0384777970612049,-0.768055552503094,-9.72151380224526,-1.03568211456649,50,standing
1783066279214097700,7.6315231,-0.1322930857270955,0.0650093555271625,-0.1004522786997258,-0.0494913011789321,-0.0809558257460594,0.0209248401224613,-0.774510793057084,-9.719177468252182,-1.0526552420035005,50,standing
1783066279234022700,7.6514481,-0.0781673085901886,0.0271212311595678,-0.2283170265905559,0.0433447696268558,-0.0946648344397544,0.0224174614995718,-0.7807526100561022,-9.718848382428288,-1.0510843394249676,50,standing
1783066279253948700,7.6713741,-0.2366177488807588,0.1328752695292234,0.0181675248533487,0.0644429326057434,-0.0291769672185182,-0.0020913840271532,-0.7839107818260789,-9.720006904813646,-1.0379474291499704,50,standing
1783066279273879000,7.6913044,-0.2798699575647712,0.1061088431566953,-0.0626408728301525,0.0325581133365631,0.0210248287767171,-0.0187316928058862,-0.7816592765722423,-9.721222710344197,-1.0282174777742474,50,standing
1783066279293804300,7.7112297,-0.1410505388088524,0.1208574994772672,-0.0444051050461828,-0.0004170141182839,0.0506730116903781,0.0047817369922995,-0.7790710867099464,-9.721607325747607,-1.0265515903886406,50,standing
1783066279313730000,7.7311554,0.0784069625649601,0.1753723489969968,-0.1068142880123108,0.00323331868276,0.0074485028162598,0.0460206270217895,-0.7834992784157395,-9.721203421121835,-1.0269896895449608,50,standing
1783066279333655000,7.7510804,-0.0216663998197764,-0.0026888006925582,-0.1046148052066564,0.0092628952115774,0.0089476406574249,0.0342009216547012,-0.7922126731600612,-9.720613054013253,-1.0258974373288452,50,standing
1783066279353581300,7.7710067,-0.1980813166722655,0.0870896699100732,0.0498018495231866,0.0083840452134609,0.020591115579009,-0.0081684412434697,-0.7940161423854529,-9.720608962360023,-1.0245412004143,50,standing
1783066279373507000,7.7909324,-0.1570265449672937,0.0236187759965658,0.1119184062182903,-0.0238782092928886,0.0244447793811559,-0.004539587534964,-0.791975211142376,-9.720584412440656,-1.0263536566637457,50,standing
1783066279393432000,7.8108574,-0.0703211251344531,0.0446662402004003,0.0236130769081413,-0.0271111857146024,-0.0208018198609352,-0.0050017419271171,-0.7911423405148088,-9.720082892659306,-1.0317216865029186,50,standing
1783066279413358300,7.8307837,-0.0849700474075973,0.0567933158457279,-0.0737717770449817,-0.0117325186729431,-0.0089192111045122,0.0087237479165196,-0.7914572516828775,-9.719640409588813,-1.0356414902951567,50,standing
1783066279433284000,7.8507094,-0.0936795696943998,0.154256495732069,-0.0444686718016862,0.0015806383453309,0.0083327423781156,0.0261992868036031,-0.7950180129043758,-9.719241765660048,-1.0366628692321478,50,standing
1783066279453209000,7.8706344,-0.0709687753882259,0.1354378134936094,-0.1405599788129329,-0.0196590423583984,0.0257909372448921,0.0364464335143566,-0.8021665694847703,-9.718529233476518,-1.0378362238604577,50,standing
1783066279473135000,7.8905604,-0.2007419872488826,0.0609042582958936,-0.1058737922918051,-0.0253053195774555,0.0305879823863506,0.0038307220675051,-0.8058699540473521,-9.717616794806718,-1.043492715252191,50,standing
1783066279493061000,7.9104864,-0.2182061130732298,0.0008761983126401,-0.1524368060242384,0.0135534051805734,0.0181383695453405,-0.0257292296737432,-0.8030705325871705,-9.71759341393113,-1.0458610518187283,50,standing
1783066279512986000,7.9304114,-0.0747144647225737,-0.0083709379822015,-0.0841296510607004,0.0543594434857368,0.0070469863712787,-0.0135940937325358,-0.7988699390921741,-9.718671856817602,-1.039050421955809,50,standing
1783066279532912000,7.9503374,-0.0475390191577374,0.0028191490739583,-0.055669791708514,0.0313859060406684,0.040323682129383,0.0058881747536361,-0.7979132959544658,-9.719686002296209,-1.0302497142542153,50,standing
1783066279552838100,7.9702635,-0.132745505669713,0.1235123979002237,0.0199450559198856,-0.0104894954711198,0.0589467771351337,0.0156104965135455,-0.7997958948306739,-9.719622289410234,-1.0294004770137368,50,standing
1783066279572763100,7.9901885,-0.1584619115326553,0.1823123773932456,-0.0443288249395787,-0.0228074993938207,0.036850843578577,0.0106564192101359,-0.8014630973905325,-9.719014971166848,-1.0338104024104773,50,standing
1783066279592689200,8.0101146,-0.1671694610580802,0.1115688621282577,-0.0948291781209409,-0.0125245340168476,0.029017649590969,0.0062169851735234,-0.8027814134474843,-9.71845149206519,-1.0380771199442445,50,standing
1783066279612615200,8.0300406,-0.1347282769847661,0.0034264673173427,-0.0711824912041425,0.0193296987563371,-0.0033759512007236,0.0016446998342871,-0.803649136192724,-9.718348616212603,-1.038380194544047,50,standing
1783066279632540000,8.0499654,-0.1328155752312391,-0.0025789105772972,-0.0777583624631166,0.0363579429686069,-0.0041044568642973,-0.0105148321017622,-0.8033172738898545,-9.719076930487155,-1.0318044694155457,50,standing
1783066279652466200,8.0698916,-0.1735677107278257,0.0001449614286422,0.0350742359906435,-0.00505947554484,0.0521695204079151,-0.0285333208739757,-0.79952562652193,-9.719705876040456,-1.0288173433635384,50,standing
1783066279672391200,8.0898166,-0.1951172061696648,0.1593675551354885,0.0753559774965047,-0.0272391960024833,0.0446301400661468,-0.0338389165699481,-0.7917428636912256,-9.719863696950672,-1.0333356975708157,50,standing
1783066279692317000,8.1097424,-0.0184177002221345,0.1120516772091388,-0.0803140382952988,-0.0099961617961525,-0.0022686710581183,0.0009133554995059,-0.7881290571082383,-9.71968483325243,-1.0377783561933784,50,standing
1783066279712243200,8.1296686,-0.0016489362508058,0.0314694894969463,-0.0979746365398168,0.0012221151264384,-0.0239440221339464,0.0118110999464988,-0.7911311615336686,-9.71945686971545,-1.0376250653278083,50,standing
1783066279732168200,8.1495936,-0.2557693163353949,-0.0523661470532417,-0.0001052139401435,-0.0345998220145702,0.0087357442826032,-0.0328710563480854,-0.7898983318030833,-9.719268653666973,-1.0403248258057982,50,standing
1783066279752094000,8.1695194,-0.3107325672097504,0.0960673416137695,0.0484293921262025,-0.0505830012261867,0.0332459136843681,-0.0386692062020301,-0.7814723756980151,-9.718962364196775,-1.0495048151485622,50,standing
1783066279772020200,8.1894456,0.0119441202938556,0.1885387045621872,-0.0600887041293084,-0.001133537152782,-0.021930893883109,0.0217534154653549,-0.7786872019588947,-9.7185076061666,-1.055758687911555,50,standing
1783066279791945200,8.2093706,0.1713031267967075,0.1957563808560371,-0.2416442718058824,0.0575730763375759,-0.032382845878601,0.0676191970705986,-0.7896058516625315,-9.71839420892,-1.0486804931536315,50,standing
1783066279811871000,8.2292964,-0.1799997896019369,0.0813800600916147,-0.053840238193795,0.0501745007932186,0.0357817746698856,0.026265850290656,-0.7996773830175399,-9.718789345717427,-1.0373171684224158,50,standing
1783066279831797200,8.2492226,-0.3521740001447498,0.0944879634678363,0.0343044206619262,-0.0063092103227972,0.0732918009161949,-0.0341045893728733,-0.7971925804644823,-9.71932827489972,-1.0341826697889716,50,standing
1783066279851722000,8.2691474,-0.1731462704453617,0.0782896928608417,0.1527525939751416,-0.0363210588693618,0.0966267958283424,-0.0272778682410717,-0.7887242465224117,-9.71929028097689,-1.0410017752192915,50,standing
1783066279871648000,8.2890734,-0.0116986211001873,0.0047089083433151,0.1095388906706124,-0.0021897703409194,0.0771108493208885,-0.0076424670405685,-0.7834756052792072,-9.71918155990541,-1.0459705766078085,50,standing
1783066279891574300,8.3089997,-0.1248044104721397,0.0322843130111694,-0.1100694904159754,0.0207119341939687,0.021470995619893,-0.0188061259686946,-0.7803534546706825,-9.719522920688986,-1.0451325183484703,50,standing
1783066279911499000,8.3289244,-0.1829296325087547,0.0697357995271682,-0.0252536837220191,0.0132327210158109,0.0329789333045482,-0.0257990211248397,-0.7757984947800636,-9.720164141201971,-1.0425604028381406,50,standing
1783066279931425000,8.3488504,-0.1465630186200141,0.1287386081159114,-0.0747854110669344,0.0091424724087119,-0.0029327757656574,-0.008478945121169,-0.7722118684649467,-9.720658062198758,-1.040613141227886,50,standing
1783066279951351000,8.3687764,-0.1473318841006606,0.0448176313698291,-0.2152787543844431,0.0017597986152395,-0.0355009622871875,0.0089835878461599,-0.7721911179378629,-9.720832834243774,-1.038983567264676,50,standing
1783066279971276000,8.3887014,-0.0931762963473796,0.034952070915699,-0.1539437034558504,-0.025284569710493,-0.04829927906394,0.0282275341451168,-0.7765173836391419,-9.7203950273484,-1.0398651724047958,50,standing
1783066279991202000,8.4086274,-0.0957187473718076,-0.0293938522666692,-0.110050274258852,-0.0568688996136188,-0.0439574308693409,0.0437042117118835,-0.7848986238196491,-9.71889748226702,-1.0475460822962224,50,standing
1783066280011127000,8.4285524,-0.0863354174766689,0.0905278276652097,-0.1302104342341423,-0.0124123990535736,-0.0765140801668167,0.0391814298927784,-0.7945812289223074,-9.717313427945973,-1.054919533673674,50,standing
1783066280031053000,8.4484784,-0.0446853832922875,0.1676467231810093,-0.1261573594510555,0.0436329580843448,-0.033624343574047,0.0327893532812595,-0.8024130185265094,-9.717219319921732,-1.0498448607578874,50,standing
