time,seconds_elapsed,acc_x,acc_y,acc_z,gyr_x,gyr_y,gyr_z,grav_x,grav_y,grav_z,fs_hz,activity
1783068649356145200,0.0,0.3754030461713671,-0.4751975916147232,-0.3498246605396271,0.1734971851110458,-0.2925295829772949,0.1375245004892349,0.1748143680543638,-9.542142154479029,-2.255515950782597,100,standing
1783068649366107100,0.0099619,0.3454575513713062,-0.5061474411517382,-0.4935179689422249,0.1476301699876785,-0.3769427537918091,0.1603714972734451,0.1531349717556964,-9.545908813536167,-2.2411095320284367,100,standing
1783068649376069400,0.0199242,0.2674317518773488,-0.3646405368775129,-0.5224167311683297,0.1245510354638099,-0.4284520447254181,0.1695823967456817,0.1283597374666947,-9.549151156458258,-2.228820543819666,100,standing
1783068649386031000,0.0298858,0.184285887689609,-0.2582341720789671,-0.434274045073986,0.1113521456718444,-0.4485618472099304,0.1739348024129867,0.1022701600429601,-9.552007130411267,-2.217902697833628,100,standing
1783068649395994000,0.0398488,0.1613364440556615,-0.1942079823702573,-0.299712868284434,0.1062515079975128,-0.426397830247879,0.1762242615222931,0.0758391168043715,-9.554531680452824,-2.2080637331254778,100,standing
1783068649405956400,0.0498112,0.08931147414539,-0.1101402906298637,-0.2295923072233796,0.1304663121700287,-0.3630415201187134,0.1726939678192138,0.0504501299646217,-9.557195931226014,-2.1972303505524997,100,standing
1783068649415918300,0.0597731,-0.0435577035697642,0.0073351651936769,-0.0298187996804714,0.1844722926616668,-0.2710363268852234,0.1584808677434921,0.0276960422227042,-9.560648702028391,-2.1825730257771907,100,standing
1783068649425880300,0.0697351,-0.0948862786030396,0.1527870077013969,0.1938083155281841,0.2394274175167083,-0.1870695352554321,0.1355153620243072,0.0086950365329015,-9.565290974876284,-2.162290992987901,100,standing
1783068649435842300,0.0796971,-0.0632278835044475,0.3104366530030966,0.2972062922909855,0.2799314558506012,-0.1208274215459823,0.0989895984530448,-0.0059046431959694,-9.570908230236173,-2.137299759594351,100,standing
1783068649445804300,0.0896591,0.0526221585077699,0.4229015871882438,0.1901001086600124,0.3087047636508941,-0.0433352962136268,0.0404919348657131,-0.0143149113956722,-9.577131050273776,-2.1092020846180617,100,standing
1783068649455767000,0.0996218,0.084389105714485,0.5653770442336797,0.19810089815557,0.3396459221839905,0.0492667406797409,-0.0362493433058261,-0.014508310509345,-9.583885785230994,-2.078297535527497,100,standing
1783068649465729300,0.1095841,0.1183952649490442,0.6930804640829563,0.2386633562989532,0.3616686761379242,0.1018607020378112,-0.0949422195553779,-0.0063167436862859,-9.591130349531769,-2.044639449945092,100,standing
1783068649475691300,0.1195461,0.1923435036726296,0.7503145094335079,0.1596566012099385,0.3838607668876648,0.1114036366343498,-0.1230601668357849,0.0063753049022867,-9.59868412591219,-2.008877816212177,100,standing
1783068649485653200,0.129508,0.2075871404359117,0.7409411164104938,-0.0147138772681355,0.4223879277706146,0.1105018928647041,-0.1462016999721527,0.0216576548243174,-9.606671033012866,-1.9702292288661003,100,standing
1783068649495615200,0.13947,0.1394610593940131,0.6352800170212983,-0.2122662016302347,0.4609393775463104,0.0928437858819961,-0.1602755486965179,0.0384580103771528,-9.615182256248591,-1.9280002988152205,100,standing
1783068649505578200,0.149433,0.0485255140110151,0.5586000974446534,-0.4395025933772325,0.4839290976524353,0.0525677315890789,-0.1694032698869705,0.0556222308063181,-9.624095046022534,-1.8825734495058652,100,standing
1783068649515540500,0.1593953,-0.0169079075805377,0.5365519317656755,-0.6550976471692324,0.490075409412384,-0.0211877152323722,-0.1694802343845367,0.0722737570395693,-9.633021864321828,-1.8357697588853537,100,standing
1783068649525502200,0.169357,0.0318289065270218,0.4985545018047094,-0.7901870856165886,0.4644904136657715,-0.0966097638010978,-0.1619991511106491,0.0871329975951463,-9.641561729130148,-1.789714986936003,100,standing
1783068649535464200,0.179319,0.0923078886155504,0.5029138660579919,-0.8077887932807206,0.4148803353309631,-0.1456191688776016,-0.1637410521507263,0.1005749278318602,-9.649213120666143,-1.7472731447868048,100,standing
1783068649545426200,0.189281,0.0660278118547052,0.5827355907917022,-0.7168722585588693,0.3412926495075226,-0.1448724120855331,-0.167492926120758,0.1139861980688292,-9.6555633664757,-1.7109980085738,100,standing
1783068649555388200,0.199243,0.0701145240459125,0.6533154399275779,-0.592327595001459,0.2589991092681885,-0.1046850010752677,-0.1678060442209243,0.1280056633320171,-9.66045172303915,-1.6821636898860337,100,standing
1783068649565351200,0.209206,0.1099544948673341,0.6343067880749702,-0.5271415677331388,0.1604440361261367,-0.0485809855163097,-0.1818417012691497,0.1435316150348633,-9.663738489624857,-1.661906791538,100,standing
1783068649575313400,0.2191682,0.1202023600367829,0.5539847126036882,-0.535557075509429,0.0591779090464115,-0.0279745068401098,-0.1853380352258682,0.160817114622984,-9.665268767932057,-1.651396357309073,100,standing
1783068649585275100,0.2291299,0.2015263425596058,0.46205520144701,-0.6080782679714262,-0.0447303801774978,-0.057923350483179,-0.1811515539884567,0.1776553088350221,-9.665068276923895,-1.6508509983859956,100,standing
1783068649595237400,0.2390922,0.2402306056156754,0.4857347677201032,-0.7281774964272976,-0.1457021087408065,-0.0998338684439659,-0.181015744805336,0.193718500086572,-9.663158643910288,-1.6601884433127938,100,standing
1783068649605199400,0.2490542,0.2354508239932358,0.535185904109478,-0.7619407959498464,-0.2321866601705551,-0.1552851498126983,-0.1939520537853241,0.2095714461209252,-9.659638653090596,-1.6786488136328757,100,standing
1783068649615161000,0.2590158,0.228750285174977,0.5317167666941881,-0.7539087345331906,-0.3051073551177978,-0.2220487147569656,-0.2070387154817581,0.2255495346385985,-9.654672555115818,-1.7049366627082227,100,standing
1783068649625124000,0.2689788,0.2964711098842322,0.4728250172644853,-0.6706603963516652,-0.3595010638236999,-0.2691616415977478,-0.2210575938224792,0.2417753508396446,-9.648452657687663,-1.737607344688475,100,standing
1783068649635086300,0.2789411,0.3478878472581506,0.371354355302453,-0.4732335980653762,-0.3959668278694153,-0.2928999066352844,-0.2291863113641739,0.2584437231764197,-9.641253686094284,-1.7747719770871102,100,standing
1783068649645048000,0.2889028,0.3514732679968699,0.2641284908145666,-0.1993669725686311,-0.4086677134037018,-0.2877115607261657,-0.2352119833230972,0.2756579476266168,-9.633387190502882,-1.8144561910912396,100,standing
1783068649655010300,0.2988651,0.3054801996394992,0.1741717410355806,0.0631570056587457,-0.3888804316520691,-0.2716401815414428,-0.2292459607124328,0.2927708853931166,-9.625432432106138,-1.853570788513869,100,standing
1783068649664972300,0.3088271,0.1623797060308978,0.0952624549716711,0.2053437088906765,-0.3433158695697784,-0.2504384815692901,-0.2130094766616821,0.3091283103508874,-9.617900283035636,-1.8896642845496532,100,standing
1783068649674935300,0.3187901,0.0069631900761276,0.0368424147069454,0.2646861246973276,-0.2913896143436432,-0.2358913570642471,-0.1934108138084411,0.324035225973092,-9.611254853671788,-1.9207257777675983,100,standing
1783068649684897300,0.3287521,-0.1090196891020983,-0.0367933148682117,0.2934960395961999,-0.2372238487005233,-0.2167064696550369,-0.1643013954162597,0.3369177596282213,-9.605554596203564,-1.9468420696683224,100,standing
1783068649694859300,0.3387141,-0.1442352332595735,-0.1580979735910892,0.3298296279981732,-0.1927189826965332,-0.1909849196672439,-0.1432367712259292,0.3475928098343313,-9.600818799853323,-1.9682117515638469,100,standing
1783068649704821200,0.348676,-0.1608017526570707,-0.2293827561259269,0.3748889591693878,-0.1586454361677169,-0.1615889519453048,-0.1216633096337318,0.3568270866475999,-9.596869769966602,-1.9857376175127923,100,standing
1783068649714783200,0.358638,-0.1967589454947039,-0.251454887202382,0.4060241021454334,-0.1297701299190521,-0.1126671656966209,-0.1023412123322486,0.364652373445779,-9.593651976963876,-1.9998143659211691,100,standing
1783068649724745200,0.3686,-0.2563850370809435,-0.1825742431998252,0.4697149224199354,-0.1153603047132492,-0.0502783581614494,-0.0830463469028472,0.3717556661123409,-9.590855624243616,-2.01188006676808,100,standing
1783068649734708200,0.378563,-0.3341479295887052,-0.1068798275291919,0.4988971777625381,-0.1102867126464843,0.0126550681889057,-0.0677531436085701,0.3785902248401194,-9.588288988626005,-2.0228062421910464,100,standing
1783068649744670200,0.388525,-0.41809816896189,-0.0093482585817575,0.4476911605298518,-0.1100531592965126,0.0651121512055397,-0.0616124272346496,0.3856268089460208,-9.585863807305692,-2.0329517886303363,100,standing
1783068649754632200,0.398487,-0.4328051050325855,0.0081681088864803,0.3977966642871499,-0.1042043194174766,0.1044550314545631,-0.053190179169178,0.393001538965106,-9.583478957995773,-2.042762842418253,100,standing
1783068649764594400,0.4084492,-0.4325822925947606,-0.0109931031793355,0.3223927559956908,-0.1139746606349945,0.1168765425682067,-0.0456787347793579,0.3999613315077498,-9.58107774207294,-2.0526529527917505,100,standing
1783068649774556200,0.418411,-0.4223172114290296,-0.0059843351066112,0.2123041955530643,-0.1264917552471161,0.1112835630774498,-0.0381365567445755,0.4063059147614985,-9.578454407832028,-2.0636206292688843,100,standing
1783068649784518100,0.4283729,-0.3708751934833824,0.0066483519732952,0.1315039811760187,-0.125971108675003,0.1057955920696258,-0.0408852063119411,0.4123248097248375,-9.575673837202787,-2.0752966001458466,100,standing
1783068649794481200,0.438336,-0.3311872896848246,-0.0119417822062969,0.1258078153610229,-0.116495095193386,0.1236608698964119,-0.0480313934385776,0.4190245265591889,-9.57294528902173,-2.0865091912947595,100,standing
1783068649804443400,0.4482982,-0.3658416928282007,-0.0667155749231576,0.1490947290547192,-0.0915450081229209,0.1386595219373703,-0.0433966964483261,0.426295284747146,-9.570544657620786,-2.09602959157303,100,standing
1783068649814405000,0.4582598,-0.4413993303766474,-0.1350514445245265,0.1012426984250545,-0.0781929641962051,0.1293091028928756,-0.0095339668914675,0.4318225237360223,-9.568647884088756,-2.103543328204006,100,standing
1783068649824367400,0.4682222,-0.4218509456241503,-0.2649748785108328,0.0628062925249338,-0.0585311166942119,0.0943782851099968,0.0452557764947414,0.4324751424258574,-9.567263151732089,-2.1096993666157124,100,standing
1783068649834329000,0.4781838,-0.3534103004740551,-0.3466010223180055,0.0174884565480053,-0.0319026783108711,0.0665826722979545,0.0934718027710914,0.4274808412699029,-9.566590367037056,-2.1137612092271447,100,standing
1783068649844292000,0.4881468,-0.3397994890769943,-0.3612725217491388,0.0307401523090898,0.0153362061828374,0.0739159509539604,0.1125711947679519,0.4189577814659103,-9.56688204346001,-2.1141445094563065,100,standing
1783068649854254300,0.4981091,-0.3400261009071022,-0.3147948482125997,0.1235866321802139,0.0579210668802261,0.1131645664572715,0.1274682432413101,0.4094579490516334,-9.56816974518299,-2.1101751674339173,100,standing
1783068649864216300,0.5080711,-0.3100675639623776,-0.2218272261798381,0.2193653661109507,0.0900238752365112,0.1876270920038223,0.1292975693941116,0.4001493648931384,-9.570307341733574,-2.1022550419591366,100,standing
1783068649874178000,0.5180328,-0.3340658042632043,-0.0587087940782308,0.2979638326600193,0.1072072610259056,0.2902227640151977,0.1099747717380523,0.3936215340269729,-9.572864040479065,-2.091819280401617,100,standing
1783068649884140300,0.5279951,-0.3570466111497953,0.1275064359724521,0.268107623578608,0.1079968884587287,0.3577924966812134,0.0753725916147232,0.3916128245530649,-9.575473930716514,-2.0802190051093694,100,standing
1783068649894102300,0.5379571,-0.2418666458522901,0.1970090112656354,0.0764649616517126,0.1124767139554023,0.3846349716186523,0.0253402758389711,0.3944969286220148,-9.577939444047212,-2.068291105297953,100,standing
1783068649904065000,0.5479198,-0.0555289949983358,0.1305424426674842,-0.1481044028431177,0.1340344697237014,0.358921617269516,-0.0211888775229454,0.4019400842348113,-9.580456395304202,-2.0551593826547263,100,standing
1783068649914027300,0.5578821,0.0876659719606861,0.0187783502280712,-0.3562240061879158,0.1810696125030517,0.2950352430343628,-0.066241331398487,0.4130214867521077,-9.58346376042664,-2.038875187329948,100,standing
1783068649923989200,0.567844,0.1517783055828884,-0.056572951093316,-0.5179688118487596,0.2483013868331909,0.227064698934555,-0.1091272830963134,0.4267206340197473,-9.587420973619816,-2.0173411086529494,100,standing
1783068649933951200,0.577806,0.1021125400621443,-0.0552279662251472,-0.6107463181369006,0.3097513616085052,0.1444928497076034,-0.1330037117004394,0.442119388279505,-9.592506314060092,-1.9896559600003063,100,standing
1783068649943913200,0.587768,-0.0339084436142817,-0.0449871427178382,-0.6463450163930654,0.3428893685340881,0.0668108388781547,-0.1132180243730545,0.4560360507553443,-9.598408816102149,-1.957798055707663,100,standing
1783068649953876200,0.597731,-0.122215636087954,-0.0574134935706853,-0.6131260528802871,0.3290228843688965,-0.00210822513327,-0.0748076364398002,0.465783610852994,-9.604536359071732,-1.925176911957562,100,standing
1783068649963838500,0.6076933,-0.2143188598437234,-0.1057879406392574,-0.5556942930005491,0.2780686318874359,-0.0635955557227134,-0.007421133108437,0.4691517355792224,-9.610181086960434,-1.8959680608689784,100,standing
1783068649973800200,0.617655,-0.2344996972808614,-0.187929048231244,-0.5312462265729904,0.1838997453451156,-0.1306531131267547,0.0629883706569671,0.464492657727003,-9.61468073646724,-1.8741782538652416,100,standing
1783068649983762200,0.627617,-0.2287758397413417,-0.257976982447505,-0.5473898443832993,0.0910294651985168,-0.1918160766363144,0.1179962232708931,0.4526336949659511,-9.617655368363856,-1.8617754300184544,100,standing
1783068649993724400,0.6375792,-0.2055546482276171,-0.3127496061205864,-0.5288049709007143,-0.0071956594474613,-0.2298083752393722,0.1463566720485687,0.4359965580176562,-9.618996261578795,-1.858812488559633,100,standing
1783068650003686100,0.6475409,-0.1974501426292583,-0.3128390379697084,-0.4492874898105859,-0.0867911577224731,-0.2349533438682556,0.1562681496143341,0.4169685073448345,-9.618758361169697,-1.8644092856533825,100,standing
1783068650013649200,0.657504,-0.2339702300466597,-0.3042769613295793,-0.3399894952237606,-0.1512380093336105,-0.2027041763067245,0.1407848447561264,0.398421920046024,-9.61714566527605,-1.87674211300388,100,standing
1783068650023611400,0.6674662,-0.287083432607539,-0.2906149312019348,-0.2192383787304163,-0.2026364952325821,-0.1617055982351303,0.1276962161064148,0.3821032379297539,-9.61434697446823,-1.8943926282458008,100,standing
1783068650033573000,0.6774278,-0.3274421483397484,-0.3245522721171379,-0.1694580103866755,-0.2333978712558746,-0.1185510233044624,0.1108421012759208,0.3679939754912629,-9.6106364295125,-1.9158914894789456,100,standing
1783068650043535400,0.6873902,-0.3323975422574207,-0.3414198202878236,-0.1476233413279056,-0.2308958321809768,-0.0656955316662788,0.081732153892517,0.3570877834104001,-9.606488077661394,-1.938623984160274,100,standing
1783068650053497300,0.6973521,-0.3036049438195303,-0.3688596158772707,-0.145444243723154,-0.1904685050249099,-0.0313995592296123,0.0481637232005596,0.3499926375176757,-9.60254197038412,-1.959358290761709,100,standing
1783068650063460400,0.7073152,-0.2522116238538175,-0.4041735058426857,-0.1969533355556428,-0.1210135370492935,-0.0351506248116493,0.0149594284594058,0.3464832776898518,-9.599548633787036,-1.974587277945131,100,standing
1783068650073422000,0.7172768,-0.1324258452612906,-0.4275707480430603,-0.3170550482295453,-0.0287015978246927,-0.0800287500023841,-0.015433962456882,0.3455097564825788,-9.597998481735589,-1.9822762250125407,100,standing
1783068650083384300,0.7272391,-0.0187585860816761,-0.400849329856038,-0.4101636861681938,0.0783558785915374,-0.15347421169281,-0.0454331412911415,0.3461656996406614,-9.59838426618278,-1.9802973261550068,100,standing
1783068650093346300,0.7372011,0.0685726009666919,-0.3252601281255483,-0.4786497778952121,0.1880723387002945,-0.2401307672262191,-0.0735347121953964,0.3480184513678774,-9.600800679674744,-1.96822461104542,100,standing
1783068650103308300,0.7471631,0.0637554099433124,-0.1784738221436738,-0.4979657421313226,0.2835999429225921,-0.3207385241985321,-0.0953438729047775,0.3505910783348605,-9.605131402355433,-1.946514006757736,100,standing
1783068650113270300,0.7571251,0.011372750146687,0.009069441640377,-0.4649297339700162,0.3629254698753357,-0.374798446893692,-0.1048835143446922,0.353593255825527,-9.611014030653235,-1.916701929078996,100,standing
1783068650123233300,0.7670881,-0.0557531956756487,0.1716360850781202,-0.4000219391211867,0.4070532321929931,-0.4041557908058166,-0.1036043912172317,0.3562255405578762,-9.617956981658937,-1.881053546462208,100,standing
1783068650133195300,0.7770501,-0.0260092878622934,0.2203191597044468,-0.2979271539114415,0.4259717166423797,-0.4080998003482818,-0.0988850817084312,0.3583543692801147,-9.625341246691343,-1.8424889841377732,100,standing
1783068650143157200,0.787012,0.0057548737322911,0.2309410914838313,-0.2555482939958572,0.4324149787425995,-0.4046259820461273,-0.0980704203248024,0.3604083426678553,-9.632821373313664,-1.8025671619854864,100,standing
1783068650153119200,0.796974,-0.0009429434059187,0.2774491601586342,-0.2301135546185076,0.4246885180473327,-0.4066202938556671,-0.0830359831452369,0.3620184812782332,-9.64012614336908,-1.7627601983845234,100,standing
1783068650163081200,0.806936,-0.0002650806769728,0.3329810777664184,-0.2139309199720621,0.4110776484012604,-0.4074394702911377,-0.0549830459058284,0.3614902926856652,-9.64717372379303,-1.7238760487169027,100,standing
1783068650173041400,0.8168962,0.0578050501715391,0.2768067706018686,-0.1817290245473384,0.4043116867542267,-0.4116266071796417,-0.0124844079837203,0.3577385754693299,-9.65399684781134,-1.686047545582056,100,standing
1783068650183003100,0.8268579,0.104874953980185,0.1707727462470531,-0.1062397760599851,0.3900803029537201,-0.4093408286571502,0.0404142253100872,0.349574448638223,-9.660639354565738,-1.6493087373800577,100,standing
1783068650192965400,0.8368202,0.0569197917696088,0.1806207710444927,-0.026835399955511,0.3669337034225464,-0.3774853646755218,0.0968997925519943,0.3366271061185747,-9.667046298998594,-1.6140904167436063,100,standing
1783068650202927400,0.8467822,-0.0313883870847523,0.2542547470539808,0.0638886809341609,0.3137000501155853,-0.3347491025924682,0.163790687918663,0.3185429852323606,-9.672895609548688,-1.58241093775779,100,standing
1783068650212889000,0.8567438,-0.0247935736632905,0.2559422617495059,0.131152683520317,0.2431180775165558,-0.2896890342235565,0.2392217516899109,0.2942908249693922,-9.677873982483147,-1.5564510054625569,100,standing
1783068650222851300,0.8667061,0.0142194082820788,0.1846796910464763,0.1518861133389175,0.1556790471076965,-0.2340787649154663,0.3074394166469574,0.2638072777698748,-9.68173007338941,-1.5378295993618667,100,standing
1783068650232814300,0.8766691,0.0188717823988758,0.159049575227499,0.1539380774326622,0.0662574395537376,-0.1737042218446731,0.3669683337211609,0.2280302272721193,-9.68423065803349,-1.5277610636815429,100,standing
1783068650242776000,0.8866308,0.0186756205059587,0.1714589749455451,0.1162171263255178,-0.0133154122158885,-0.1193078309297561,0.4084894061088562,0.1882732585590332,-9.685416652947664,-1.5256534238778054,100,standing
1783068650252738300,0.8965931,0.0223528842465952,0.2253250051677227,0.0480197884120047,-0.0839338824152946,-0.0786857157945633,0.4405010640621185,0.1456901995745487,-9.685413145816325,-1.5303298912562429,100,standing
1783068650262700300,0.9065551,0.0253175336053129,0.2660977450609207,-0.0002566051095724,-0.1372000426054,-0.0436875112354755,0.4621016979217529,0.1011263329032342,-9.684288525700568,-1.5410108597464858,100,standing
1783068650272662300,0.9165171,0.0566776216107653,0.2786199575036764,-0.0286946179561316,-0.1856118142604828,-0.024119408801198,0.4745425581932068,0.0554010943023487,-9.682145083931088,-1.556715940009057,100,standing
1783068650282625300,0.9264801,0.0922035514582414,0.2686637961566448,-0.0591797725908458,-0.2247573584318161,-0.0195768550038337,0.4819927513599396,0.0089514761040481,-9.679073421400783,-1.5766583655804394,100,standing
1783068650292587300,0.9364421,0.1023098892651498,0.3135936557292938,-0.0802747291982173,-0.2675352096557617,-0.0248128995299339,0.4840240478515625,-0.0379655963508645,-9.67507178454399,-1.6006043277047577,100,standing
1783068650302549200,0.946404,0.1606433837575837,0.3320259689986705,-0.0444223484419286,-0.3078394830226898,-0.0243894569575786,0.4875050783157348,-0.0852261593268252,-9.670160631626844,-1.6282266402542591,100,standing
1783068650312511200,0.956366,0.1610738658630289,0.3876058174014091,0.0264595523804426,-0.3486352860927582,-0.0184474010020494,0.489894300699234,-0.1326427028823643,-9.664239424884318,-1.6599034888915716,100,standing
1783068650322473200,0.966328,0.1484910275405273,0.479576829612255,0.1162315932422876,-0.3869166374206543,-0.0048010977916419,0.4798760414123535,-0.1794660663177259,-9.65729939648807,-1.695506863322854,100,standing
1783068650332435200,0.97629,0.1503367650050669,0.5436357525467872,0.1789228810854256,-0.4093784987926483,0.0282071139663457,0.4524751603603363,-0.2242576681971549,-9.649532854139805,-1.7339564209654923,100,standing
1783068650342398200,0.986253,0.1220314020948484,0.6533727230727672,0.2034576028831303,-0.4199185073375702,0.0549367293715477,0.4069319069385528,-0.2650849330228753,-9.64120517077744,-1.7740537458151575,100,standing
1783068650352360200,0.996215,0.1510275237482041,0.7278951723545789,0.1668307306230068,-0.413500428199768,0.0900375843048095,0.3449169397354126,-0.3000664309624582,-9.63267933449447,-1.8143406018875536,100,standing
1783068650362322400,1.0061772,0.2782430504826829,0.693470924705267,0.1535540465511381,-0.382421612739563,0.1135775372385978,0.2502311766147613,-0.3270249823736026,-9.624441082981228,-1.8529880201898516,100,standing
1783068650372284200,1.016139,0.3747582089291885,0.6163871005028486,0.0669306789785623,-0.3160684108734131,0.1353070586919784,0.1359245628118515,-0.3433343852048739,-9.61723801973462,-1.8871223449818788,100,standing
1783068650382246100,1.0261009,0.4733799477335065,0.4672077619045972,-0.0281079041093587,-0.2052787840366363,0.1435681879520416,0.0055825365707278,-0.3473850123025476,-9.612010640475154,-1.912841161997616,100,standing
1783068650392209400,1.0360642,0.5306400043081492,0.2522282096624374,-0.1188710018351674,-0.0677167698740959,0.1101305037736892,-0.1094658449292182,-0.3398521325796842,-9.609515316528082,-1.926674749299884,100,standing
1783068650402171100,1.0460259,0.5132399566959589,0.1107148756474256,-0.2540340900406241,0.0833486467599868,0.0526096858084201,-0.2046141922473907,-0.3232001999210566,-9.610160044172405,-1.9263357266038652,100,standing
1783068650412133000,1.0559878,0.4436403507690876,0.0772089118868112,-0.3512695986509322,0.2106663286685943,-0.009604912251234,-0.2800464332103729,-0.2993897372772917,-9.613763037100432,-1.9121489419497548,100,standing
1783068650422095400,1.0659502,0.4380432979470118,0.0616524463146924,-0.3617154432110488,0.2907028496265411,-0.0757029727101326,-0.329979658126831,-0.2707485300088301,-9.619454526740313,-1.8876368703752755,100,standing
1783068650432057000,1.0759118,0.469439247283712,0.0480576362043619,-0.2971573385827243,0.3026783466339111,-0.1296441107988357,-0.3488161265850067,-0.2398950352520681,-9.62591115553379,-1.8586713265232744,100,standing
1783068650442020000,1.0858748,0.4686976716687902,0.0490238508880138,-0.1876910016916692,0.269064724445343,-0.167432501912117,-0.3387832045555115,-0.2095251775600947,-9.631965048745274,-1.8307703431628644,100,standing
1783068650451982300,1.0958371,0.4301873237496241,0.0305558817833662,-0.0692358871810138,0.1955096423625946,-0.2040642201900482,-0.3126257359981537,-0.1814896628335118,-9.63684113034904,-1.8079677058547732,100,standing
1783068650461944300,1.1057991,0.3224277177112177,0.0442938997566699,0.001114244852215,0.1114152744412422,-0.2441522479057312,-0.2638595104217529,-0.1578263901080936,-9.64010334701538,-1.7927252746678888,100,standing
1783068650471906300,1.1157611,0.1261185983432456,0.1565004752665758,0.0585211625516414,0.0316042974591255,-0.2538951337337494,-0.2098674029111862,-0.1395861196789424,-9.641728902390598,-1.785488601412624,100,standing
1783068650481868300,1.1257231,-0.080264554864075,0.3007803513854742,0.1461363176405429,-0.0544972978532314,-0.2470582723617553,-0.1634341180324554,-0.1263849667950067,-9.641758128485083,-1.7863142385818065,100,standing
1783068650491830300,1.1356851,-0.2479771280892193,0.4388216253757476,0.2682635447926819,-0.1375407874584198,-0.2016084939241409,-0.1363114267587661,-0.1160911253256723,-9.640186349123717,-1.79546492876485,100,standing
1783068650501793000,1.1456478,-0.3628063802529126,0.5586731626808643,0.3756003223091363,-0.2145596742630005,-0.1267236024141311,-0.1369271427392959,-0.1060081957938149,-9.637187167307737,-1.8121211722724135,100,standing
1783068650511755300,1.1556101,-0.4331755457801744,0.6220791746646166,0.4803426994182169,-0.2648386359214782,-0.0418149232864379,-0.1589325964450836,-0.0933992001167498,-9.632955813348293,-1.83516127159819,100,standing
1783068650521717200,1.165572,-0.4419293456001207,0.6098123982876539,0.5454258508339523,-0.3001180589199066,0.0059195780195295,-0.18411386013031,-0.0773132581772748,-9.627873395517469,-1.862386547654122,100,standing
1783068650531679200,1.175534,-0.4200761910365894,0.5230693498581648,0.5254843020454049,-0.2977776229381561,0.0348407849669456,-0.2080406099557876,-0.0583152647159993,-9.622383565929532,-1.8912267115607857,100,standing
1783068650541641200,1.185496,-0.4032334485135972,0.3702794195473194,0.5013590378314257,-0.2608499825000763,0.0442654490470886,-0.2385047674179077,-0.0362520749978255,-9.617134559360146,-1.9182772155717012,100,standing
1783068650551604200,1.195459,-0.446414089798741,0.2504816582560539,0.4831795302793383,-0.1852272450923919,0.029317982494831,-0.2662774920463562,-0.0113272795952332,-9.612858781737089,-1.9399021874025464,100,standing
1783068650561566500,1.2054213,-0.5454733797701076,0.153016140282154,0.4310205962359905,-0.094753012061119,-0.0049979127943515,-0.2800356447696686,0.0151577029123436,-9.61011269789934,-1.953433576887846,100,standing
1783068650571528200,1.215383,-0.6482018963061272,0.0245797299832105,0.3526791731879115,0.005125131458044,-0.0304110497236251,-0.2779738306999206,0.0415711145961191,-9.609168695047495,-1.9576926956370475,100,standing
1783068650581490200,1.225345,-0.7235548050627112,-0.1155640692442655,0.3243289847552776,0.093250997364521,-0.0350667908787727,-0.2634750306606293,0.0669451047961367,-9.60998234951794,-1.952984664076567,100,standing
1783068650591452400,1.2353072,-0.7812563217945396,-0.2512742699384689,0.3290063289165497,0.172427549958229,-0.0139591824263334,-0.240058422088623,0.0905290606410708,-9.612387657094,-1.9401545547284185,100,standing
1783068650601415200,1.24527,-0.8009165694236755,-0.3524795589625835,0.3263730578035116,0.2364488840103149,0.0400899350643157,-0.2166479080915451,0.1125835373298265,-9.616078328305482,-1.920611942129582,100,standing
1783068650611377200,1.255232,-0.820266143668443,-0.4085451450556516,0.2591606392741203,0.2953660786151886,0.1135556399822235,-0.1947934627532959,0.1338783730240073,-9.62091583146453,-1.8948491398416456,100,standing
1783068650621339400,1.2651942,-0.8177413744311779,-0.4965472536355256,0.1818757395416498,0.3481893241405487,0.1924318224191665,-0.1641556620597839,0.1539489824191667,-9.626735915920138,-1.8635029844634237,100,standing
1783068650631301000,1.2751558,-0.7344944244891405,-0.6269312908709049,0.090235420589894,0.3814169466495514,0.2633591592311859,-0.1190738305449485,0.1718569247545674,-9.633270870646834,-1.8278275677092373,100,standing
1783068650641263400,1.2851182,-0.6864514013320208,-0.7031728190302848,-0.0281646027326583,0.3747446537017822,0.3218531012535095,-0.0609021447598934,0.1859137628860771,-9.639927990448474,-1.7909798923052846,100,standing
1783068650651225300,1.2950801,-0.6247610341597348,-0.7313958739519119,-0.1358754742585122,0.3457325994968414,0.3814618289470672,0.0078284461051225,0.1947025244215503,-9.646270637473464,-1.7555436911344526,100,standing
1783068650661188000,1.3050428,-0.5477501290630549,-0.7618915499806403,-0.2371229949891567,0.2878461182117462,0.435791939496994,0.0775031298398971,0.1977477190700359,-9.651838208472729,-1.724326715093851,100,standing
1783068650671150000,1.3150048,-0.4792425561565905,-0.8078665346920489,-0.3693323479555547,0.2236051559448242,0.4625921249389648,0.1606350243091583,0.1938835361888632,-9.65643956478834,-1.6988088274776934,100,standing
1783068650681112300,1.3249671,-0.4475602276265621,-0.8089794643700122,-0.5108335531413555,0.1506665050983429,0.4564897716045379,0.2551668882369995,0.1816541144139133,-9.65996598534882,-1.6800107496358454,100,standing
1783068650691074000,1.3349288,-0.4763184854034334,-0.728435855102539,-0.6910299612939358,0.080190435051918,0.4231782555580139,0.3384641110897064,0.1602838297301903,-9.662399349975583,-1.668156207321584,100,standing
1783068650701036300,1.3448911,-0.4840954760804772,-0.5997440087378024,-0.8601664846412836,0.0127911539748311,0.3832649290561676,0.4054524600505829,0.1311002409470267,-9.663748426496982,-1.6628731523521243,100,standing
1783068650710999300,1.3548541,-0.4599099695792421,-0.3994868093311786,-0.9635159460872412,-0.0469081476330757,0.3594891130924225,0.4349729418754577,0.0965897123869042,-9.663941318720578,-1.6641203759342431,100,standing
1783068650720961300,1.3648161,-0.4301150987636297,-0.1573345880031585,-0.9999490493409336,-0.1159151792526245,0.3318750560283661,0.442904382944107,0.0600612453002249,-9.6629312648952,-1.671680435924977,100,standing
1783068650730923300,1.3747781,-0.3721512047685683,0.0527513469785451,-1.0064372423164545,-0.1748267412185669,0.2871806919574737,0.4277544915676117,0.0231961826533428,-9.660682024663686,-1.6855432493217288,100,standing
1783068650740885200,1.38474,-0.3339337753813713,0.2414016952216625,-1.0457809723198412,-0.2020764648914337,0.2236264795064926,0.3960911333560943,-0.0123276397187262,-9.657496964886784,-1.7038102890267968,100,standing
1783068650750847200,1.394702,-0.3355790583703666,0.4677747481375932,-1.050461239090562,-0.2044010460376739,0.1617024540901184,0.3418898284435272,-0.0446501430155476,-9.653878189867736,-1.723670004750788,100,standing
1783068650760810200,1.404665,-0.3670493515849113,0.6372714830994606,-0.9975500253751872,-0.1722899824380874,0.0943689495325088,0.2728572487831116,-0.0718376945767085,-9.650392101317644,-1.7421645696014163,100,standing
1783068650770772200,1.414627,-0.3915114465378224,0.762548552584648,-0.9760245683960616,-0.1285566389560699,0.0271082278341054,0.1991586834192276,-0.0934640729133505,-9.647579381984473,-1.7566572053343057,100,standing
1783068650780734200,1.424589,-0.4276870678991079,0.8659820390522479,-0.932584801250696,-0.0916100665926933,-0.050857413560152,0.1260583698749542,-0.1093624015925452,-9.645518942323326,-1.7670273543097077,100,standing
1783068650790696200,1.434551,-0.3705396413860842,0.8651917654573917,-0.8497880062289536,-0.0728113278746604,-0.1292734593153,0.0666313767433166,-0.1201220248095691,-9.64398223427534,-1.7747059261135756,100,standing
1783068650800658200,1.444513,-0.2434545360982418,0.7754968814849853,-0.6903155294142663,-0.062708094716072,-0.191102996468544,0.007633039727807,-0.1264496021295897,-9.642721420559289,-1.7810986958906054,100,standing
1783068650810621200,1.454476,-0.1417159165155608,0.6375117215961218,-0.4904929220326244,-0.0564733855426311,-0.2340701073408126,-0.0355179943144321,-0.1288290446120314,-9.641656421676275,-1.7866919858530164,100,standing
1783068650820583400,1.4644382,-0.1208414433916099,0.4633405650824308,-0.2755241834454238,-0.0306266080588102,-0.2654112577438354,-0.0490817390382289,-0.1290533640203531,-9.640913494354486,-1.790671557008475,100,standing
1783068650830545200,1.4744,-0.2083193089016713,0.3100999683946371,-0.1401331317029893,0.0040012951940298,-0.2764170467853546,-0.0481620132923126,-0.1291135880412999,-9.640752166312932,-1.79153840297088,100,standing
1783068650840507400,1.4843622,-0.3317554814942181,0.1522983474016189,-0.0136519471250474,0.0331357456743717,-0.2520081102848053,-0.0238899625837802,-0.1303253201849293,-9.641117492493986,-1.7894813243106007,100,standing
1783068650850469400,1.4943242,-0.401581954979524,0.0387625691145658,0.1146158286087214,0.0503492578864097,-0.1919317841529846,0.0010876534506678,-0.1332229687220417,-9.641906597045065,-1.785020399378985,100,standing
1783068650860431000,1.5042858,-0.4084851584967225,-0.0449421345323324,0.2314316514797508,0.0408127419650554,-0.1274987310171127,0.020067736506462,-0.1370935174119193,-9.642745385956763,-1.7801804120019078,100,standing
1783068650870394000,1.5142488,-0.3539595318546518,-0.0317155732125043,0.2701268544465303,0.0029841414652764,-0.0630679279565811,0.03885093703866,-0.1417899407329969,-9.64310369787514,-1.777875057668984,100,standing
1783068650880356400,1.5242112,-0.2739742688559927,0.0699228465318679,0.2578255912780761,-0.0640396326780319,-0.0081093367189168,0.0493991859257221,-0.1466570261795539,-9.642539634251596,-1.780538139398396,100,standing
1783068650890318000,1.5341728,-0.1449079083567485,0.1402127728104591,0.2480775197237729,-0.134632334113121,0.0271134115755558,0.0434681065380573,-0.1509256342763081,-9.64070365099609,-1.7900933187291026,100,standing
1783068650900280300,1.5441351,0.0241098657154478,0.1306429804325103,0.1966368169523775,-0.1884921044111251,0.0429592207074165,0.0316197015345096,-0.1539953971104696,-9.63771791318357,-1.8058394616544249,100,standing
1783068650910242300,1.5540971,0.1310472321181558,0.1062339308410882,0.122191378429532,-0.2192282378673553,0.0390954539179801,0.0154524082317948,-0.1554382345962338,-9.633960021954774,-1.825665859630704,100,standing
1783068650920205300,1.5640601,0.1855225168124772,0.1078542255192995,0.0523550411373376,-0.2074030041694641,0.0330077335238456,-0.005268583074212,-0.1554453949893824,-9.630043140771985,-1.846210635009408,100,standing
1783068650930167300,1.5740221,0.2069316174029372,0.0478179822295904,0.0337067470297217,-0.1564848572015762,0.034473180770874,-0.0189524609595537,-0.153511047659628,-9.626718380263448,-1.8636245650164784,100,standing
1783068650940129300,1.5839841,0.2188195322638377,-0.03869885622859,0.0146484108164906,-0.0907716304063797,0.0109723834320902,-0.0261097066104412,-0.150734468218917,-9.624447512722014,-1.8755412127815183,100,standing
1783068650950091000,1.5939458,0.1718364299558103,-0.0624152473807334,-0.050227235328406,-0.0184524804353714,-0.0232938863337039,-0.0214104056358337,-0.1484930459676776,-9.623476621863244,-1.8806964035876093,100,standing
1783068650960053200,1.603908,0.1505141856648959,-0.0271703309983015,-0.1173275717854499,0.0391194708645343,-0.0484631545841693,-0.0129759069532155,-0.1476710620603058,-9.623706923487784,-1.879586542649567,100,standing
1783068650970016300,1.6138711,0.1589988679535686,0.0696872842103242,-0.142318512918055,0.075141005218029,-0.0472739189863204,-0.0206875577569007,-0.1470278961854055,-9.624797641333936,-1.874048636136204,100,standing
1783068650979978200,1.623833,0.1982558695215731,0.1357844349741935,-0.1282756667792797,0.0898978486657142,-0.0236881636083126,-0.0344851277768611,-0.145134392322693,-9.626399815833569,-1.865944532396644,100,standing
1783068650989940200,1.633795,0.2546628346645273,0.1927583680838346,-0.1347987849377095,0.0916820093989372,0.0087896026670932,-0.054984800517559,-0.1409382375407964,-9.628156888633963,-1.857176557920873,100,standing
1783068650999902200,1.643757,0.2723924612909555,0.2065916631251573,-0.1698169068269431,0.0823084786534309,0.0327761620283126,-0.07910718023777,-0.1339776047479361,-9.629869537770748,-1.84879407563135,100,standing
1783068651009864400,1.6537192,0.2914986004349775,0.2169675111889839,-0.2471409695260226,0.0764000117778778,0.0341284424066543,-0.0955544933676719,-0.1249520387819036,-9.631416182690858,-1.8413509200185536,100,standing
1783068651019827200,1.663682,0.2448967707958072,0.2183124960571527,-0.3772983583986758,0.0709312111139297,0.0177646502852439,-0.1094540655612945,-0.1145624361873604,-9.632911974206566,-1.834195641436428,100,standing
1783068651029789200,1.673644,0.1767667259648442,0.2540805595308542,-0.4620173536546528,0.0618618167936801,0.0035383107606321,-0.1150576248764991,-0.1035941112562548,-9.634264557859302,-1.8277376974686976,100,standing
1783068651039751200,1.683606,0.1545803939241916,0.2627022574037313,-0.5214204136073589,0.0518547259271144,-0.0145570700988173,-0.1344393193721771,-0.0917326094782445,-9.63540320650041,-1.82235337408185,100,standing
1783068651049713200,1.693568,0.1675638854694552,0.2020049198567867,-0.5426087475866079,0.041740532964468,-0.0335440784692764,-0.1486151814460754,-0.0785294016345404,-9.63635656170249,-1.8179244517236948,100,standing
1783068651059675100,1.7035299,0.1594395609257742,0.153855513715744,-0.5676118175484239,0.0374714843928813,-0.0687587931752204,-0.156882956624031,-0.0647191312757786,-9.637139821034667,-1.8143195590995247,100,standing
1783068651069638100,1.7134929,0.1729805950222536,0.0886497588336467,-0.5873585744172334,0.0409122109413147,-0.1124265044927597,-0.1570950150489807,-0.0511755901283817,-9.63792366488874,-1.810584171963483,100,standing
1783068651079600400,1.7234552,0.1625504594879225,0.0190144970715045,-0.6090589495718479,0.0415516383945941,-0.1671496629714965,-0.1511159539222717,-0.0388002753430278,-9.638767714497446,-1.8063912503182888,100,standing
1783068651089562000,1.7334168,0.1307143103693611,-0.0258715233594179,-0.6385229444652796,0.0495775490999221,-0.213849201798439,-0.1462974697351455,-0.0280629918219754,-9.639670216295125,-1.8017672437794503,100,standing
1783068651099524400,1.7433792,0.1136480612888,-0.0716857645511627,-0.5716041020549834,0.0568639561533927,-0.2418590039014816,-0.1385708451271057,-0.0184786343458457,-9.640693714123964,-1.7964114158347249,100,standing
1783068651109486300,1.7533411,0.0855677758387289,-0.1029255369454622,-0.5002905318170786,0.0605351850390434,-0.2619359791278839,-0.1258933544158935,-0.0103000268982374,-9.641774495097994,-1.790661181744933,100,standing
1783068651119448000,1.7633028,0.029182538470393,-0.0738899965971708,-0.4410024765461683,0.0570938475430011,-0.2628795206546783,-0.1103908345103263,-0.0035945076566509,-9.64282780354321,-1.7850066631145771,100,standing
1783068651129411300,1.7732661,-0.0032912492521136,-0.0321516265422105,-0.3573614857852458,0.0424958057701587,-0.2438841164112091,-0.0999670252203941,0.0020942216299772,-9.643715107771754,-1.7802113916620612,100,standing
1783068651139373300,1.7832281,-0.013772717110638,-0.0275625451862812,-0.2648825240522623,0.0189388133585453,-0.2125115543603897,-0.0909157395362854,0.0071886026088817,-9.64426455834806,-1.777221854457259,100,standing
1783068651149335000,1.7931898,-0.028119969006488,-0.0310135624229907,-0.1584662223815917,-0.0189488567411899,-0.1721828579902649,-0.0699930414557457,0.0115103148618072,-9.644254621475934,-1.777245673724264,100,standing
1783068651159297300,1.8031521,-0.0343997707951813,-0.0224058930754661,-0.0771919607520103,-0.0566216707229614,-0.1282111406326294,-0.048510655760765,0.0144980105943279,-9.643584759390354,-1.7808578728720543,100,standing
1783068651169272300,1.8131271,-0.034230533441808,-0.0421685781657695,-0.0166606274217367,-0.0804753750562667,-0.0905977040529251,-0.0242724288254976,0.016124494126375,-9.642376552644372,-1.787370177375525,100,standing
1783068651179235600,1.8230904,-0.0252878782525658,-0.0742372025996446,0.0476081388711929,-0.0924148559570312,-0.0491754300892353,0.0022638405207544,0.015860660124995,-9.64083458389938,-1.7956744798623023,100,standing
1783068651189197300,1.8330521,-0.0351803061640239,-0.0616366642236709,0.08575286834836,-0.0876755863428115,-0.0097800223156809,0.0213455576449632,0.014081332110305,-9.639219549918174,-1.8043404552683235,100,standing
1783068651199159300,1.8430141,-0.0685992606447543,-0.042203064957261,0.0919090528905391,-0.075781911611557,0.0222586039453744,0.0414726622402668,0.0109887009988538,-9.637703300136328,-1.812442074789852,100,standing
1783068651209121500,1.8529763,-0.0814549154261127,-0.0151391169428825,0.0883608588896691,-0.0579666979610919,0.0564272254705429,0.0503146238625049,0.0072346074498753,-9.63648749460578,-1.8189200386323037,100,standing
1783068651219083300,1.8629381,-0.0803132071782369,0.0057955345362424,0.0891584390081465,-0.0404998213052749,0.0884333625435829,0.0503907911479473,0.0036986455970269,-9.63557271784842,-1.8237572495304049,100,standing
1783068651229046300,1.8729011,-0.0611461361937923,0.0474707762271165,0.0454239266999065,-0.031696893274784,0.0978866517543792,0.0506144315004348,0.0005429470924313,-9.63490051767528,-1.8273080738797784,100,standing
1783068651239008500,1.8828633,-0.0366307972332811,0.0929325507193803,-0.0399022406689822,-0.0194969549775123,0.0814562812447547,0.047550730407238,-0.0024245471368922,-9.634424132335186,-1.8298196183092887,100,standing
1783068651248970200,1.892825,0.0407243204744765,0.0746831928014755,-0.1154284601658582,-0.010048896074295,0.0700077563524246,0.0303036291152238,-0.0048112578978703,-9.634131871390345,-1.8313567647486924,100,standing
1783068651258932500,1.9027873,0.075175853422936,0.0542021303087472,-0.1167326746322214,0.0138713512569665,0.0568528063595294,0.016050124540925,-0.0057440652147313,-9.634152329656482,-1.8312495049819348,100,standing
1783068651268894500,1.9127493,0.070369065062562,0.0450929411798715,-0.124129068493843,0.0380234606564044,0.043413084000349,0.0101677067577838,-0.0060247961228073,-9.634618778124452,-1.8287911520443856,100,standing
1783068651278857500,1.9227123,0.0632471864265389,0.040158991909027,-0.1291864980138838,0.0615365095436573,0.019010804593563,0.0118926363065838,-0.0063850465532334,-9.635521864444016,-1.8240331438623367,100,standing
1783068651288819200,1.932674,0.0509732953222002,0.0084095164269208,-0.1677608510799706,0.079510323703289,-0.0046306694857776,0.0275578461587429,-0.0081769937333679,-9.63684229939282,-1.8170323251895608,100,standing
1783068651298781400,1.9426362,0.018313610801642,0.0196469497561454,-0.1814933160953223,0.087033487856388,4.6640401706e-05,0.0420427806675434,-0.0115798992244992,-9.63835211943388,-1.80898608911708,100,standing
1783068651308743400,1.9525982,-0.0231957876444095,0.0681049834549427,-0.104839261612296,0.0762002542614936,0.0296903569251298,0.0507802441716194,-0.0158595424552098,-9.63982394555211,-1.801094751345366,100,standing
1783068651318705400,1.9625602,-0.0596321468676906,0.1390495742499828,-0.0422083256542682,0.0414476059377193,0.0775662660598754,0.0632827207446098,-0.0204240122429793,-9.64088777539134,-1.7953413023851812,100,standing
1783068651328668400,1.9725232,-0.0631836151044582,0.2031470756292343,-0.010486907222867,0.0007716983091086,0.1276856213808059,0.0722965896129608,-0.0251026692952145,-9.64123907304704,-1.7933942599706352,100,standing
1783068651338630400,1.9824852,-0.0466265987542457,0.2180424469441175,0.0132651397645473,-0.0392071455717086,0.1794734597206115,0.0767174437642097,-0.0295390762735041,-9.640871993300316,-1.795299362939596,100,standing
1783068651348592400,1.9924472,-0.0098347566072014,0.2169283482223749,0.0227133515894412,-0.0608004182577133,0.2254030704498291,0.0733792632818222,-0.0332609509074245,-9.639907532182336,-1.8004082303859292,100,standing
1783068651358554400,2.0024092,-0.0017937355659552,0.2203524774521589,0.013436258547753,-0.0711057856678962,0.2547478973865509,0.0792126506567001,-0.0360647380154696,-9.638694064739346,-1.8068433779999613,100,standing
1783068651368516400,2.0123712,-0.0160989612512523,0.240350724864006,-0.0329383930057287,-0.0615227594971656,0.2804298996925354,0.0872073620557785,-0.0391174241339555,-9.637442018851637,-1.8134397075250743,100,standing
1783068651378479400,2.0223342,-0.0363346067487029,0.2117524068892002,-0.0739420190453529,-0.0348168462514877,0.3025067150592804,0.0908252671360969,-0.0423747545626247,-9.636527242094278,-1.8182254804968836,100,standing
1783068651388441300,2.0322961,-0.0502336331031518,0.1542944896548986,-0.1164012507207691,-0.0097818747162818,0.3197079300880432,0.0949025005102157,-0.0456839658755809,-9.636081836414336,-1.8205080384761092,100,standing
1783068651398403300,2.0422581,-0.0675779319401131,0.1599777959883213,-0.1806412293106317,7.28860031813e-05,0.3184162974357605,0.1065263971686363,-0.0495884031353285,-9.635928691679238,-1.821210779917985,100,standing
1783068651408365300,2.0522201,-0.0707958893396193,0.2091121215134859,-0.2832300816476344,-0.0026290440000593,0.2910227477550506,0.1172562763094902,-0.0547501515463693,-9.63583283008933,-1.821572160576284,100,standing
1783068651418327300,2.0621821,-0.0018758266421267,0.2102981164276599,-0.3889649769254029,-0.0070384400896728,0.2565340101718902,0.1083386838436126,-0.0608224571973783,-9.635672671091555,-1.822229893832653,100,standing
1783068651428289500,2.0721443,0.0661218102810904,0.1805389379799366,-0.4866146192945539,-0.0005023195408284,0.2182916849851608,0.0876069739460945,-0.0659722594422986,-9.635541153666376,-1.8227425195299087,100,standing
1783068651438252500,2.0821073,0.077976151665952,0.2122720468491315,-0.575247134732455,0.0102866785600781,0.1535840630531311,0.0640478506684303,-0.06989576216212,-9.635549921494722,-1.8225456817835568,100,standing
1783068651448214300,2.0920691,0.0774576990161091,0.2291571306765079,-0.6612129151791334,0.0252120234072208,0.0802997201681137,0.0404719486832618,-0.0728188282682793,-9.635825815826651,-1.820975363726914,100,standing
1783068651458176300,2.1020311,0.0552325328024104,0.2186965269386768,-0.7079296581685542,0.0446981079876422,0.0135033847764134,0.0158883109688758,-0.0746855537219205,-9.636438979288934,-1.8176538180887696,100,standing
1783068651468138500,2.1119933,0.0240913802106864,0.1898924572587013,-0.6841076146848499,0.0610723979771137,-0.0451988019049167,-0.0032077555079013,-0.0755668072355911,-9.637413377279042,-1.8124461664430795,100,standing
1783068651478100200,2.121955,-0.0213704308141954,0.1906307084053754,-0.6416513056188822,0.0685987621545791,-0.0853850990533828,-0.0221843756735324,-0.0755947272889781,-9.638599372193216,-1.8061204705528917,100,standing
1783068651488063200,2.131918,-0.0647949684243882,0.1787666676104068,-0.568499414037913,0.0576532818377018,-0.1177542433142662,-0.0214373581111431,-0.0752657464963616,-9.639753218403458,-1.7999642860107123,100,standing
1783068651498025500,2.1418803,-0.0768879728367552,0.1027086793243885,-0.486177250790596,0.0374449491500854,-0.1382962614297866,-0.0135410837829113,-0.0758919292704202,-9.640609542971848,-1.7953474398650229,100,standing
1783068651507987200,2.151842,-0.0927290457702241,0.0477127682894468,-0.379504344010353,0.0208192896097898,-0.1365526765584945,-0.0017418200150132,-0.0775585016426164,-9.64112918293178,-1.7924856206931172,100,standing
1783068651517949400,2.1618042,-0.1280315740914084,-0.0214607211798429,-0.2650555425316095,0.0106561351567506,-0.1216264590620994,0.0167546328157186,-0.0805633368812501,-9.641387541607022,-1.7909649869970976,100,standing
1783068651527911400,2.1717662,-0.1789550297893583,-0.072379007512331,-0.1733826364845037,0.0060429498553276,-0.0853942334651947,0.0437759682536125,-0.0853049601840786,-9.641495678156614,-1.7901618539206685,100,standing
1783068651537874400,2.1817292,-0.243165234295465,-0.1026151558220386,-0.1064893669068813,-0.0010612984187901,-0.0497829765081405,0.0747269541025161,-0.0921725626649335,-9.641486910328268,-1.789868277801573,100,standing
1783068651547836400,2.1916912,-0.346642084980756,-0.0775900201588869,-0.1083048918962478,-0.0028741499409079,-0.0212203077971935,0.1016330048441886,-0.1012232356727588,-9.64137234403789,-1.789997749400139,100,standing
1783068651557798400,2.2016532,-0.373386299521476,-0.0438601845145225,-0.1359722126312554,-0.0115880127996206,-0.0076509700156748,0.1241377815604209,-0.1123372800843324,-9.641135028150677,-1.7906123741671442,100,standing
1783068651567760400,2.2116152,-0.3351669704381376,-0.005578092393279,-0.1705897908955812,-0.0367702171206474,0.0139555316418409,0.1442024260759353,-0.1254177017985843,-9.640510758772493,-1.7931043371133506,100,standing
1783068651577722400,2.2215772,-0.2680227400404401,0.0564805966347456,-0.1889456779278814,-0.0626279115676879,0.0398723483085632,0.1453659683465957,-0.138991606118204,-9.639423548057676,-1.7979428631857035,100,standing
1783068651587685400,2.2315402,-0.1874775050714612,0.0653448710918426,-0.1944290777750313,-0.076300024986267,0.060894351452589,0.1375411003828048,-0.1517510248503182,-9.637962827855349,-1.8047296007163824,100,standing
1783068651597647400,2.2415022,-0.1231499760623089,0.0351543154895305,-0.2494387250743806,-0.0756627321243286,0.0336283780634403,0.1327399462461471,-0.1637052738125436,-9.636351885527372,-1.8122678872667253,100,standing
1783068651607609300,2.2514641,-0.1020973242267034,0.0277577754974365,-0.3436949256129563,-0.0546102374792099,-0.0200056340545415,0.1350868493318557,-0.176378165038675,-9.634942018729449,-1.8185683025851844,100,standing
1783068651617571300,2.2614261,-0.1004373916578479,0.046477673536539,-0.4323908616758882,-0.0114917969331145,-0.0750393271446228,0.1259649842977523,-0.1897098672334104,-9.634058806154131,-1.8218997850954533,100,standing
1783068651627533300,2.2713881,-0.1317849900744855,0.0496387679159641,-0.4312275169849395,0.0228348281234502,-0.1280652582645416,0.1201611459255218,-0.2034032606136985,-9.633927288728952,-1.8211176948070524,100,standing
1783068651637496600,2.2813514,-0.1581033256196417,0.030658757635951,-0.3795294784516096,0.0535562559962272,-0.159789890050888,0.1162849217653274,-0.2173373674146831,-9.634400166937708,-1.817000614877045,100,standing
1783068651647458300,2.2913131,-0.1722039846265688,0.0652893415123224,-0.2992389671623706,0.0644965544342994,-0.168583795428276,0.1134757474064827,-0.2313686144472099,-9.635212652364372,-1.8109502287968997,100,standing
1783068651657420300,2.3012751,-0.1701143371372483,0.1035994906842708,-0.2063270208396017,0.0601430907845497,-0.1642870604991912,0.1064671128988266,-0.2449804122249595,-9.63611398511827,-1.8043534608803689,100,standing
1783068651667382500,2.3112373,-0.1632560322077013,0.134438865584135,-0.1555811684645712,0.0367503948509693,-0.158206045627594,0.0995758846402168,-0.257824148239661,-9.63672656405866,-1.7992847793139517,100,standing
1783068651677344300,2.3211991,-0.1354109254866838,0.1477501825779676,-0.1581932506591081,0.0054963361471891,-0.1598593443632125,0.1066063642501831,-0.2704062011108734,-9.636869187399745,-1.7966722587279975,100,standing
1783068651687307300,2.3311621,-0.121475704440847,0.1223538755148649,-0.1792652647823095,-0.0343430116772651,-0.165298119187355,0.1094561740756034,-0.2837427986764348,-9.636312722560763,-1.7975974107488988,100,standing
1783068651697269500,2.3411243,-0.1253164516475051,0.0681745415598154,-0.1742846998907625,-0.0663289055228233,-0.1532462537288665,0.0997497513890266,-0.2966617370855063,-9.63510568485856,-1.8019791329644617,100,standing
1783068651707231200,2.351086,-0.135131670153886,0.0638210225254297,-0.1290372988015413,-0.1035583019256591,-0.134307712316513,0.0893503725528717,-0.3083941873900592,-9.6332954205662,-1.8096673493795097,100,standing
1783068651717193500,2.3610483,-0.1317406029434874,0.0875450124621391,-0.078512980222702,-0.1416385769844055,-0.1039442047476768,0.0783539190888404,-0.3185190563675016,-9.63083224532306,-1.8209869080342351,100,standing
1783068651727155500,2.3710103,-0.1094988509211689,0.1187368540614843,0.0016419219881296,-0.1858622133731842,-0.0702884346246719,0.063338778913021,-0.3268444747075438,-9.627608022579553,-1.8364979270294308,100,standing
1783068651737117200,2.380972,-0.1014613096117973,0.1284451781272888,0.0386849738337099,-0.2169519513845443,-0.0409928634762764,0.0478157438337802,-0.3332358197124674,-9.623698740181329,-1.8557342501580716,100,standing
1783068651747080400,2.3909352,-0.0788461211672052,0.1055173070043325,0.0347026261992752,-0.2414426803588867,-0.0224533416330814,0.0297704003751277,-0.3375951474331319,-9.61932593192458,-1.8774895703703165,100,standing
1783068651757042400,2.4008972,-0.0795324229309335,0.1362713417083025,0.0302943082377314,-0.2647647559642792,-0.014533101581037,0.0138031523674726,-0.3399017073424533,-9.614465632411838,-1.9018112339392304,100,standing
1783068651767004200,2.410859,-0.1046938617922365,0.1910293523341417,0.0182892515368759,-0.2645460367202759,-0.0065571423619985,0.0020404052920639,-0.3409267395412549,-9.60936918605566,-1.9272163088306784,100,standing
1783068651776966400,2.4208212,-0.119296826031804,0.2418254735916852,-0.0177845168851315,-0.256241500377655,-0.021850612014532,-0.0242780167609453,-0.3402403281796723,-9.60435048111081,-1.952194536612183,100,standing
1783068651786928400,2.4307832,-0.1773919817237183,0.3089280020058155,-0.0914016878902912,-0.2436463087797165,-0.0230833850800991,-0.070333793759346,-0.3361643839776516,-9.599627544242145,-1.9759911533936856,100,standing
1783068651796891400,2.4407462,-0.1575564140602946,0.3165139270901679,-0.0745984371274709,-0.2263717055320739,-0.0209262240678071,-0.1058361232280731,-0.3283168122824281,-9.595243045547605,-1.9984810714907943,100,standing
1783068651806853400,2.4507082,-0.0695691377233713,0.2454191141694784,-0.0239902396574616,-0.2023467123508453,-0.0360717624425888,-0.1485893726348877,-0.3166457002436742,-9.59133610123694,-2.019012110605091,100,standing
1783068651816815400,2.4606702,-0.0337453985396772,0.1601011301070451,-0.0209524793967604,-0.1634025126695633,-0.0584316626191139,-0.1807635575532913,-0.3017422734864987,-9.588169161638618,-2.0362655893534423,100,standing
1783068651826777300,2.4706321,0.0069110945627093,0.0475298129379749,-0.0057598787009716,-0.100975289940834,-0.0992832109332084,-0.1888601183891296,-0.2856858590356074,-9.586028642478585,-2.0486150755777954,100,standing
1783068651836739300,2.4805941,0.0587244848377071,-0.0781856479644775,0.0189162973940372,-0.0233651772141456,-0.1593502759933471,-0.1915728151798248,-0.2703122026844881,-9.585260580715536,-2.054287129864841,100,standing
1783068651846702300,2.4905571,0.0397691706075333,-0.1854880848199129,0.002715396438539,0.0596976578235626,-0.1991180181503296,-0.1849279850721359,-0.2558459800344891,-9.58614730042219,-2.0520025260590016,100,standing
1783068651856664300,2.5005191,0.0217851856275461,-0.3045487640082836,0.0957873556286096,0.1182097047567367,-0.2043159753084182,-0.1511966586112976,-0.2438473165418021,-9.5884421333611,-2.042722072016448,100,standing
1783068651866626300,2.5104811,-0.0227766260839998,-0.3620253859430551,0.2428849195167422,0.1571760922670364,-0.1755335927009582,-0.10003412514925,-0.2356473694786429,-9.591567571905257,-2.0289593579933047,100,standing
1783068651876588300,2.5204431,-0.1042104621894657,-0.3936106107741594,0.3344144715704024,0.1642696857452392,-0.1326210051774978,-0.0609208159148693,-0.2311272617056965,-9.594998715397717,-2.0131986020207404,100,standing
1783068651886550500,2.5304053,-0.173646127992589,-0.3871738557249307,0.3773968503370881,0.152984008193016,-0.0567874908447265,-0.0235121920704841,-0.229028572393395,-9.598294249811769,-1.997673116108775,100,standing
1783068651896513500,2.5403683,-0.2251263773230835,-0.3319675168097019,0.4114993186861276,0.1101848781108856,0.0448789484798908,0.0112087707966566,-0.2285747094123624,-9.60097720528543,-1.9847889384858308,100,standing
1783068651906475300,2.5503301,-0.2916707238651811,-0.2358382158756256,0.4191489566564559,0.0393516570329666,0.1600468903779983,0.0350843071937561,-0.228918390017189,-9.602385318517683,-1.9779235827609896,100,standing
1783068651916437500,2.5602923,-0.3016436902165412,-0.1995744778394699,0.4331815736621618,-0.0541252978146076,0.2902522683143616,0.0620930194854736,-0.2292705461894162,-9.602137481236458,-1.9790873658433557,100,standing
1783068651926399500,2.5702543,-0.2506796467798762,-0.2220826622456312,0.4522966084986924,-0.1298309564590454,0.4114923775196075,0.0879517421126365,-0.2295074419515207,-9.600130233067274,-1.9887756700344383,100,standing
1783068651936361200,2.580216,-0.2241819178135134,-0.2085819601595401,0.4265580638691782,-0.1866969019174575,0.4949100613594055,0.1173194870352745,-0.2301179750652983,-9.5967224704504,-2.005085584322363,100,standing
1783068651946324200,2.590179,-0.2163733812207356,-0.187272630149126,0.2872499848134816,-0.2220749258995056,0.5276793837547302,0.1484218537807464,-0.2325394300585612,-9.592292963570356,-2.025888864506781,100,standing
1783068651956286500,2.6001413,-0.1877504037287086,-0.1762304271310567,0.1176665944814682,-0.2545705437660217,0.5237863659858704,0.1805752664804458,-0.2376692672276869,-9.5870252523005,-2.050086755565554,100,standing
1783068651966248200,2.610103,-0.0899584668120369,-0.1486152749747037,-0.0067779697023332,-0.2718410789966583,0.4985024929046631,0.1915946006774902,-0.2452296194793656,-9.581120996692777,-2.076626533575356,100,standing
1783068651976210400,2.6200652,0.0373165532910265,-0.176022921860218,-0.10763882920295,-0.271636813879013,0.4487327933311462,0.1877346038818359,-0.2535428359249607,-9.57496072049737,-2.103855316762626,100,standing
1783068651986172400,2.6300272,0.1343096314475871,-0.1929956839710473,-0.1657435199081897,-0.2554456889629364,0.3799487352371216,0.1763636022806167,-0.2622497643958777,-9.568912672504782,-2.1301460884474217,100,standing
1783068651996135400,2.6399902,0.2066193365833722,-0.1513596052467823,-0.1784387508302927,-0.2413485199213028,0.2975393533706665,0.1726820468902588,-0.2717117490177974,-9.5631136308372,-2.1548604045957327,100,standing
1783068652006097400,2.6499522,0.2216231367087922,-0.0573503652065992,-0.1632742071852088,-0.2371541112661361,0.2343125194311142,0.1713132113218307,-0.2825255135748535,-9.5574630577296,-2.178404215659946,100,standing
1783068652016059400,2.6599142,0.2238148198004811,0.0775590404987335,-0.0442423156999051,-0.2464376240968704,0.237032413482666,0.1491831541061401,-0.2929472831396386,-9.551713700422644,-2.202117245811224,100,standing
1783068652026021400,2.6698762,0.2058598965181969,0.2204208665132522,0.1857179480530321,-0.2609077095985412,0.3078002035617828,0.1127001717686653,-0.2995328903413377,-9.545686110696195,-2.227223630017042,100,standing
1783068652035983400,2.6798382,0.1738840832006186,0.3079886753290891,0.3902195070311426,-0.2562783360481262,0.4507917165756225,0.0677566677331924,-0.2997291983647271,-9.53957961051464,-2.25320738157928,100,standing
1783068652045946400,2.6898012,0.112982290856447,0.2502367435842752,0.4963042386598885,-0.1905163377523422,0.6005871891975403,0.0190780125558376,-0.291948956284672,-9.534351646733285,-2.2762435353823003,100,standing
1783068652055908400,2.6997632,0.0272627585221081,0.0743242963612079,0.4382850342810154,-0.075931429862976,0.6910424828529358,-0.0148993963375687,-0.2771574837356805,-9.531271216374636,-2.2909482064306737,100,standing
1783068652065870300,2.7097251,-0.0288277245501987,-0.0679950933396816,0.1424058989405631,0.0582869425415992,0.7047926783561707,-0.0262893382459878,-0.2590749885509721,-9.531107550245522,-2.293745435933769,100,standing
1783068652075832300,2.7196871,-0.0092726177959702,-0.1338011522024869,-0.1628032286725938,0.1838150471448898,0.6709838509559631,-0.0251638870686292,-0.240622107417602,-9.53398456698656,-2.283771446669101,100,standing
1783068652085794600,2.7296494,0.0785232093557715,-0.1221989772140979,-0.32144773023054,0.275714635848999,0.6422725319862366,-0.0298781134188175,-0.2232227539251558,-9.53930137809515,-2.263242453381419,100,standing
1783068652095757600,2.7396124,0.1858399852638133,-0.0313584303379058,-0.3543457912258804,0.324172705411911,0.6460267901420593,-0.0501708686351776,-0.204993507213518,-9.546195813784005,-2.2357310538604853,100,standing
1783068652105719300,2.7495741,0.2552529277784749,0.0936012437611818,-0.3249589532218873,0.3558231890201568,0.6877347826957703,-0.0759856924414634,-0.1843246670637279,-9.553839606535432,-2.204664299945533,100,standing
1783068652115681500,2.7595363,0.2703151252939366,0.229444130924344,-0.3430076740011573,0.3844670951366424,0.7127243280410767,-0.1138254851102829,-0.1598825371866114,-9.562041033169626,-2.1707542854286728,100,standing
1783068652125643300,2.7694981,0.2551591485477983,0.2264928799033164,-0.490896534397453,0.4336301982402801,0.6743413805961609,-0.133305624127388,-0.1330549095456022,-9.57091173736751,-2.133148631264269,100,standing
1783068652135605200,2.77946,0.3011981384061277,0.2146399450242519,-0.7380217218324542,0.4891744256019592,0.5552352666854858,-0.1358651965856552,-0.1071180932644754,-9.580755670511722,-2.089979205492884,100,standing
1783068652145568300,2.7894231,0.3039634749336168,0.2589350138247013,-1.0119009145498274,0.5438517332077026,0.382408082485199,-0.1284786611795425,-0.0847444402244873,-9.591533085113763,-2.041005623487383,100,standing
1783068652155530500,2.7993853,0.3415711383920162,0.2882885340809822,-1.1537027101173996,0.566305935382843,0.2124211639165878,-0.1183139085769653,-0.0669861857251962,-9.602781624358892,-1.9880888568140564,100,standing
1783068652165492200,2.809347,0.358285505294986,0.3159311587661504,-1.110660417857021,0.5533905029296875,0.0864275470376014,-0.1112397536635398,-0.0531743353307014,-9.613812721461056,-1.9344646725237369,100,standing
1783068652175441400,2.8192962,0.2915599204344675,0.3035492315769195,-0.947852951400727,0.4967083036899566,0.0291112605482339,-0.0970624163746833,-0.042114066932979,-9.623876434835791,-1.884038553622365,100,standing
1783068652185403400,2.8292582,0.1674811573557555,0.2623684954047203,-0.6842638281598686,0.4140894711017608,0.043771419674158,-0.0684764385223388,-0.0335555339568061,-9.632375383111834,-1.840271892610192,100,standing
1783068652195366400,2.8392212,-0.0092155036141397,0.2001601687729358,-0.443564582119137,0.3102980852127075,0.1132194772362709,-0.0113311298191547,-0.0281939795241924,-9.63900210777521,-1.8053394031777976,100,standing
1783068652205328400,2.8491832,-0.2058316933370195,0.0668126055568456,-0.2624894914358854,0.2076316028833389,0.2164115011692047,0.0596351251006126,-0.0276029662449262,-9.643619246181846,-1.7805125665657222,100,standing
1783068652215290400,2.8591452,-0.3558255083896219,-0.1078916349202394,-0.1543089565716683,0.1118382290005683,0.3358031213283539,0.1374050229787826,-0.0320351034734747,-9.646384619241951,-1.7653917159318924,100,standing
1783068652225252400,2.8691072,-0.3877653188120573,-0.2291629758954048,-0.1324345400243997,0.0280682053416967,0.4398723244667053,0.2102690041065216,-0.041993819820485,-9.647517422664166,-1.7589846253685653,100,standing
1783068652235214600,2.8790694,-0.3130694491920993,-0.2801046431034803,-0.1764960923299193,-0.0519227683544158,0.518721342086792,0.2780027985572815,-0.0569842946734512,-9.64715151196122,-1.7605623960793018,100,standing
1783068652245177600,2.8890324,-0.1781158938177861,-0.2840782229095697,-0.2587947285711765,-0.1203832402825355,0.5600426197052002,0.3384942710399627,-0.0771658673295285,-9.645423665255308,-1.769243422923982,100,standing
1783068652255139300,2.8989941,-0.0481024708599317,-0.2490443189293146,-0.3585264379113912,-0.1785155236721038,0.5769339799880981,0.3873071074485779,-0.1019839817790314,-9.642450202402472,-1.784134556455165,100,standing
1783068652265101300,2.9089561,0.0802866388317197,-0.2463198624014854,-0.4223346009552478,-0.2336722016334533,0.5583311915397644,0.4327917397022247,-0.1313130617137998,-9.63829191367924,-1.804572218197584,100,standing
1783068652275063600,2.9189184,0.1560442924642935,-0.1942185037642717,-0.4743038576453924,-0.2982656061649322,0.4991523027420044,0.4727226495742798,-0.1651722045599483,-9.632782210347056,-1.8310132120080287,100,standing
1783068652285025300,2.9288801,0.2428150874172337,-0.0509808301746845,-0.5268019605152309,-0.3622890114784241,0.4414750635623932,0.5050157308578491,-0.2036099621669389,-9.625783145239948,-1.8636589056774973,100,standing
1783068652294988300,2.9388431,0.3395386096511036,0.1240676936954259,-0.5192684962704778,-0.4091656804084778,0.4099389612674713,0.4864656925201416,-0.2436210335052572,-9.617377135944366,-1.9018679325625296,100,standing
1783068652304950500,2.9488053,0.3469919213317334,0.2817646852701902,-0.4542611865699291,-0.445048451423645,0.3861170411109924,0.4539666771888733,-0.2811514304763637,-9.60792833959758,-1.943980542757362,100,standing
1783068652314912300,2.9587671,0.3251233134707436,0.3676689447879791,-0.4198135580450296,-0.4549950957298279,0.3333781957626343,0.4257917404174804,-0.3161450572451576,-9.5977652575016,-1.9883041069999337,100,standing
1783068652324874500,2.9687293,0.2225961281931027,0.4482926335543394,-0.4629647175073623,-0.4230335354804992,0.2654999494552612,0.3926775455474853,-0.349488816181384,-9.587558920785783,-2.0314944294288755,100,standing
1783068652334836500,2.9786913,0.0797615555116906,0.5597410841733217,-0.5122549642466009,-0.3695239722728729,0.1964138299226761,0.3525554239749908,-0.3803834283998236,-9.578099603044986,-2.0701905091784893,100,standing
1783068652344798200,2.988653,-0.0289872076945379,0.6170043556183576,-0.4839294718638062,-0.288678228855133,0.1410831212997436,0.3034614622592926,-0.4081041232898831,-9.569970657125117,-2.1022570877857505,100,standing
1783068652354761500,2.9986163,-0.1271316843759268,0.6889782894611358,-0.4030988623484969,-0.2124675810337066,0.1043610498309135,0.2488403022289276,-0.4317648387320339,-9.563536824685334,-2.126674612944573,100,standing
1783068652364723500,3.0085783,-0.2616577898520976,0.8080793006598949,-0.2997925093919039,-0.1470959037542343,0.101971335709095,0.1939322799444198,-0.4507668051155283,-9.558736730927228,-2.1442383266858758,100,standing
1783068652374685400,3.0185402,-0.402432799655199,0.8988245704680681,-0.1523538769811391,-0.100933738052845,0.1320653259754181,0.1395337432622909,-0.4641186367828399,-9.555359947970508,-2.156404565297812,100,standing
1783068652384647400,3.0285022,-0.5206379579927772,0.8799047659426927,-0.0611005115203559,-0.0819763541221618,0.1786699146032333,0.0945114493370056,-0.4716089194729924,-9.552899695336816,-2.165656231637299,100,standing
1783068652394609400,3.0384642,-0.5801589087041095,0.7574228801339864,-0.0297157776974141,-0.0839074105024337,0.229015901684761,0.0593555904924869,-0.4744868860621005,-9.550726442950964,-2.174595763287693,100,standing
1783068652404572400,3.0484272,-0.5559140732310712,0.5571206725418567,-0.0472714542627334,-0.0826039835810661,0.278018444776535,0.0244559999555349,-0.4729940902210772,-9.548694644862412,-2.183825217795372,100,standing
1783068652414534400,3.0583892,-0.5656691225154326,0.40679508651793,-0.1280510642431676,-0.0673235580325126,0.3058120012283325,-0.0003026106278412,-0.4677281690495088,-9.546959199371932,-2.1925286026023327,100,standing
1783068652424496400,3.0683512,-0.5512663935557007,0.2422346389144659,-0.2608516611009836,-0.0392346680164337,0.3147971332073211,-0.021976551041007,-0.4599844961201771,-9.545803015074132,-2.199190252448618,100,standing
1783068652434458400,3.0783132,-0.4927710960976779,0.0601958177655935,-0.3944327408120036,0.0112162549048662,0.2885346412658691,-0.0260037835687398,-0.4508435236135497,-9.545572713449596,-2.2020786673665045,100,standing
1783068652444420400,3.0882752,-0.459101027816534,-0.0005821838021278,-0.5171877444736659,0.0592000409960746,0.2334537357091903,-0.0227303896099329,-0.442764700445719,-9.54644657367468,-2.1999320107266307,100,standing
1783068652454383400,3.0982382,-0.461578669976443,0.048600072517991,-0.6243300223313272,0.0887760445475578,0.1621614545583725,-0.022298689931631,-0.4362469160495326,-9.54819312508106,-2.193645185542106,100,standing
1783068652464345300,3.1082001,-0.4479727904828265,0.0938765535712242,-0.6897007585167885,0.084368459880352,0.0932053476572036,-0.017834935337305,-0.4314474433459341,-9.550224923169612,-2.18573558146134,100,standing
1783068652474307300,3.1181621,-0.3316926453910768,0.0675771601885557,-0.6999829369477927,0.0329460129141807,0.0365583114326,-0.0147965345531702,-0.4286160193122923,-9.5516084864825,-2.180241514089704,100,standing
1783068652484269300,3.1281241,-0.1760382655598223,0.0401905560910701,-0.6110678051762283,-0.0418791696429252,-0.0032287035137414,-0.0128754349425435,-0.427001241059415,-9.551604979351165,-2.1805710383050143,100,standing
1783068652494231600,3.1380864,-0.037369434255734,-0.0165261873871088,-0.4933860131256282,-0.1127048730850219,-0.0282126180827617,-0.0168952122330665,-0.4260581149904057,-9.549954874056578,-2.1879703547760845,100,standing
1783068652504194600,3.1480494,-0.0179159247124567,0.0021551322072744,-0.3623170623660087,-0.1516447812318802,-0.0250842217355966,-0.0221357699483633,-0.4248617448126897,-9.547088378709557,-2.2006756687007845,100,standing
1783068652514156300,3.1580111,-0.0415745212627574,0.0239998842686414,-0.2381247193776071,-0.1430635303258896,-0.021980307996273,-0.0388558954000473,-0.4224516514636576,-9.54394365094304,-2.214734589191526,100,standing
1783068652524118500,3.1679733,-0.0691505835177376,-0.0020803134053945,-0.1729971442982554,-0.1190628260374069,-0.0620149485766887,-0.0374109335243701,-0.4195657207638025,-9.541206919455528,-2.227040236274153,100,standing
1783068652534080500,3.1779353,-0.064462644897215,-0.0058107321053743,-0.2256695808216929,-0.0816968157887458,-0.1148701757192611,-0.033328041434288,-0.4184178659029304,-9.539121929875016,-2.236167983973026,100,standing
1783068652544042200,3.187897,-0.0402878059204667,-0.0215320328503847,-0.21890973129794,-0.0438907295465469,-0.1467253118753433,-0.0424079522490501,-0.4177528991881757,-9.537916061216592,-2.2414316035896538,100,standing
1783068652554005500,3.1978603,-0.0374665379546582,-0.050388709500432,-0.1130997249573469,-0.0264022853225469,-0.1474973559379577,-0.0413253754377365,-0.4171324657348915,-9.53734147619903,-2.2439916633360086,100,standing
1783068652563967500,3.2078223,-0.0706591979824006,-0.0284036721855402,-0.0077864160925149,-0.0304913222789764,-0.1265794783830642,-0.0365794599056243,-0.4165608033267781,-9.536881457471846,-2.246055171737075,100,standing
1783068652573929200,3.217784,-0.0835438505293801,-0.0134001643210649,0.0993326270200312,-0.0422680862247943,-0.0937493667006492,-0.0304637774825096,-0.4159464342880994,-9.536172432419658,-2.249176080236584,100,standing
1783068652583891500,3.2277463,-0.0934074747547507,0.0290706116616725,0.2039952168911695,-0.0475038960576057,-0.0378241688013076,-0.0268335584551095,-0.414911428684555,-9.535247718790172,-2.2532824926421045,100,standing
1783068652593853400,3.2377082,-0.1298118268379941,0.095456516239047,0.2521504682511091,-0.0330477245151996,0.0159831345081329,-0.0315705239772796,-0.4123251750510185,-9.534446923801305,-2.2571445748977363,100,standing
1783068652603816400,3.2476712,-0.2113852540772408,0.1363163498938083,0.2576779995009303,-0.0046815606765449,0.0668867975473404,-0.0308641213923692,-0.4084138102935626,-9.534157585465907,-2.2590809497877955,100,standing
1783068652613778400,3.2576332,-0.289054038560763,0.1914496235728263,0.1908775227732956,0.0152924135327339,0.0898770689964294,-0.014159177429974,-0.4045162183331325,-9.534372689521312,-2.2588693528637287,100,standing
1783068652623740400,3.2675952,-0.3475507242582738,0.2309410914838313,0.0785050891771912,0.0303333010524511,0.1130365654826164,4.12701629102e-05,-0.4015350105652585,-9.534957211411,-2.256929324711859,100,standing
1783068652633702400,3.2775572,-0.3889455781051888,0.2540384739547968,-0.0285007028192281,0.0281873252242803,0.1531546860933303,0.0013307728804647,-0.3987467680862173,-9.53561012236178,-2.2546697092168038,100,standing
1783068652643664400,3.2875192,-0.3795876018470153,0.2394505611538886,-0.1031932479709386,0.0057094087824225,0.1851489692926406,-0.0033970710355788,-0.3949366352135315,-9.535986554458736,-2.253748941110074,100,standing
1783068652653627400,3.2974822,-0.3221022120838984,0.2032493669599294,-0.2295680495649576,-0.021249771118164,0.1894704848527908,-0.0130214681848883,-0.3901727087473496,-9.535847438248991,-2.2551640686050054,100,standing
1783068652663589400,3.3074442,-0.2573397439898923,0.2202864264786243,-0.4230142537824809,-0.041229985654354,0.154542475938797,-0.0295287407934665,-0.3843063374646008,-9.535227260524032,-2.258790734669566,100,standing
1783068652673551400,3.3174062,-0.1920956663914024,0.2252881802886724,-0.6053096800409257,-0.0454162061214447,0.0870102941989898,-0.0492441207170486,-0.3778738567316904,-9.53439256326556,-2.2633928216375407,100,standing
1783068652683513300,3.3273681,-0.1205627177817746,0.1986620391696691,-0.7472077755898237,-0.0364714488387107,-0.0080033000558614,-0.0630597993731498,-0.3715953244514763,-9.533654896640776,-2.267540735097229,100,standing
1783068652693475600,3.3373304,-0.0836478223605081,0.1938578537583351,-0.8288140456527471,-0.0225782692432403,-0.1253006309270858,-0.0753079503774643,-0.3664621262814849,-9.533189032694697,-2.270330511946231,100,standing
1783068652703438600,3.3472934,-0.0634913887122645,0.1994078891009092,-0.845515297345817,-0.0142112830653786,-0.2346551567316055,-0.0810321792960167,-0.363125383074209,-9.53305225457251,-2.271435842839628,100,standing
1783068652713400300,3.3572551,-0.0163328202394768,0.2167798796623945,-0.73318977163136,-0.0122972698882222,-0.3058278560638428,-0.0923133343458175,-0.3612027809811756,-9.533067452141642,-2.2716828033380208,100,standing
1783068652723362600,3.3672174,0.0364002969626337,0.2145084275990724,-0.5305468461319804,-0.020181730389595,-0.333993136882782,-0.1125316172838211,-0.3588694426627829,-9.533041148656606,-2.272165618418902,100,standing
1783068652733324500,3.3771793,0.029411789782159,0.185747028017044,-0.3711240536779165,-0.0203788019716739,-0.3232446014881134,-0.1378859728574752,-0.3545743027521297,-9.533009584474565,-2.272972404757142,100,standing
1783068652743286300,3.3871411,0.0336456279596313,0.1132809267431497,-0.1988090464249253,-0.0125404149293899,-0.3186314105987549,-0.1462746411561966,-0.3481838710626587,-9.533118890067934,-2.273503735154867,100,standing
1783068652753249300,3.3971041,0.057993193154782,-0.015701427000761,-0.0915377353601157,0.0015695453621447,-0.3267900049686432,-0.1372095048427581,-0.3418556544218212,-9.533421672406792,-2.273185170724988,100,standing
1783068652763211500,3.4070663,0.0674656991707161,-0.0973901146501302,-0.0228372702300548,0.0296361614018678,-0.3366726338863373,-0.1163599789142608,-0.3374119728859514,-9.534183888950944,-2.270657990334928,100,standing
1783068652773173200,3.417028,0.0320092223968356,-0.1188531739175319,0.0513812276691198,0.0688109919428825,-0.3363780975341797,-0.0892577916383743,-0.3351750441467389,-9.535614798536896,-2.264970446217805,100,standing
1783068652783135500,3.4269903,0.0075301763091236,-0.0893278042256832,0.154539988848567,0.0975796729326248,-0.3124685287475586,-0.0618073865771293,-0.335386129614152,-9.537757071262597,-2.255900712316483,100,standing
1783068652793097500,3.4369523,-0.0101195352151989,-0.0215858088642358,0.2779164854094386,0.0966121479868888,-0.2636812627315521,-0.0388006046414375,-0.3373388711171224,-9.540105680215358,-2.245650536458939,100,standing
1783068652803060200,3.446915,0.0187174503536894,0.0705453623443841,0.3870195419460535,0.0860346630215644,-0.1744364202022552,-0.0428560934960842,-0.3386426471920684,-9.542306405130027,-2.2360912654750047,100,standing
1783068652813022500,3.4568773,0.0624968612495809,0.1737017854362726,0.5191626978084445,0.0537491627037525,-0.0822026282548904,-0.0536139346659183,-0.3369322630776092,-9.544009701916575,-2.2290717421017585,100,standing
1783068652822984400,3.4668392,0.1646224069237709,0.244039642509818,0.5489969873189926,0.0398933999240398,-0.0056864907965064,-0.0716597437858581,-0.3320669220635667,-9.54521323248744,-2.224638728090376,100,standing
1783068652832946200,3.476801,0.2307339880717918,0.3114361854344606,0.482913280558586,0.0571783818304538,0.0595566965639591,-0.0990170687437057,-0.3235093754680827,-9.546470539072155,-2.220504989286512,100,standing
1783068652842908400,3.4867632,0.2609683097505942,0.3555482988834381,0.4038634169802069,0.1012802869081497,0.0886566638946533,-0.1322370022535324,-0.3107977048678323,-9.548535654908418,-2.2134313976384696,100,standing
1783068652852871400,3.4967262,0.2908878663918003,0.3429056749314069,0.2587596572577953,0.1667354553937912,0.0856155976653099,-0.161497414112091,-0.2947784623558633,-9.551903085514905,-2.2010556079290806,100,standing
1783068652862833400,3.5066882,0.3329922567475586,0.3359095324337482,0.1189995966508984,0.2311112880706787,0.0574492812156677,-0.1827193349599838,-0.2768782284028828,-9.556729482758044,-2.1823526610247788,100,standing
1783068652872795400,3.5166502,0.3299344766121357,0.2808177598088979,0.0106038116008043,0.2862032949924469,0.0367285571992397,-0.1890856176614761,-0.2581084633400664,-9.56283832102716,-2.1577539340801537,100,standing
1783068652882757400,3.5266122,0.2832976852574385,0.1844704322099685,-0.0213816645942628,0.3134260177612304,0.0273568853735923,-0.1753925681114196,-0.2399027801671065,-9.569740355500578,-2.129060192906856,100,standing
1783068652892719600,3.5365744,0.2139631782738491,0.0631599282681942,-0.0030462358281016,0.319139301776886,0.0271606110036373,-0.1448181420564651,-0.2238392053230665,-9.576818915584685,-2.098763546581566,100,standing
1783068652902681300,3.5465361,0.1149959322337992,0.0139274030655622,-0.0440302803844213,0.2951961755752563,0.0365176796913147,-0.1077184155583381,-0.2110632738475687,-9.583551438710092,-2.0691521060414613,100,standing
1783068652912644400,3.5564992,0.0179505028354935,0.0463140074074268,-0.0649228462874889,0.2452456951141357,0.0640603601932525,-0.0780294984579086,-0.2012565126422792,-9.58930254958272,-2.043321353083849,100,standing
1783068652922606600,3.5664614,-0.0299107157476246,0.1055067856103181,-0.0803787740945815,0.1771814078092575,0.1015404984354972,-0.0570105649530887,-0.1931989149255678,-9.593728549331423,-2.023226513429731,100,standing
1783068652932568300,3.5764231,-0.060331499909237,0.1688449930548667,-0.1017529860347509,0.1163601353764534,0.1400170475244522,-0.0451515056192874,-0.1858223400092683,-9.5967622179389,-2.00948381928131,100,standing
1783068652942530300,3.5863851,-0.0479284933993592,0.1689583903014659,-0.1629533046677708,0.0715748220682144,0.1359912902116775,-0.0376497209072113,-0.1790717515042051,-9.598672435474397,-2.000956229432672,100,standing
1783068652952492500,3.5963473,-0.0502268334696069,0.1517185016870498,-0.2709042685598135,0.0059201791882514,0.0532170571386814,-0.1287005245685577,-0.1698901181936264,-9.599537527871131,-1.997601658307761,100,standing
1783068652962455600,3.6063104,0.4042798888266086,0.5002157130151986,-0.8252566454321145,0.0035723927430808,-0.0351819954812526,-0.1925625801086425,-0.1537865949316881,-9.599828035250306,-1.9975072580225768,100,standing
1783068652972417300,3.6162721,0.3892076631074771,0.687066318359971,-0.7713558361575007,0.0592841245234012,-0.1230740323662757,-0.2104286551475525,-0.136170484282868,-9.600677930077907,-1.994694684819877,100,standing
1783068652982379500,3.6262343,-0.0056177302839234,0.3924298765569925,-0.4724105912446975,0.1220105290412902,-0.2027378976345062,-0.2119715213775634,-0.1190303297158796,-9.602774025574329,-1.9856861795865,100,standing
1783068652992341500,3.6361963,-0.0107993524392135,0.1490793853551149,-0.4283037384927272,0.1670491099357605,-0.2685816287994385,-0.1869290173053741,-0.1047208685301709,-9.605876083242892,-1.9714348052635788,100,standing
1783068653002303500,3.6461583,0.0420034415987785,-0.0258849673628807,-0.3349678676694631,0.190401405096054,-0.2832628190517425,-0.1702945232391357,-0.0931795112177729,-9.609579029414055,-1.9538887733094392,100,standing
1783068653012266500,3.6561213,-0.0028519827644806,-0.0669113897562027,-0.1653673800721764,0.1943354308605194,-0.2479301393032074,-0.1492515504360199,-0.083039901328925,-9.613443303626775,-1.9352450092464684,100,standing
1783068653022228500,3.6660833,-0.0516039853080175,-0.131689859136939,0.0145038877792656,0.1874452531337738,-0.1742213666439056,-0.1133602932095527,-0.0745404370296513,-9.617199441289902,-1.9168463059857488,100,standing
1783068653032190200,3.676045,-0.0856004359993152,-0.1855868690192699,0.1308665600553155,0.1812938898801803,-0.0782445147633552,-0.0799248367547988,-0.0676285341827664,-9.6207644402951,-1.8991344159454109,100,standing
1783068653042152400,3.6860072,-0.161413564412482,-0.1971756000041961,0.2198012733101844,0.1726225167512893,0.0259000118821859,-0.0353674888610839,-0.062743483821256,-9.62413888516426,-1.8821254134774208,100,standing
1783068653052114400,3.6959692,-0.178483247559145,-0.1753600740373134,0.2862438765108585,0.1592449247837066,0.1405112743377685,-0.0082312105223536,-0.0591412763445172,-9.627249126139285,-1.8662670423492789,100,standing
1783068653062077400,3.7059322,-0.1221229711021296,-0.109386257392168,0.3514721354857087,0.1402124166488647,0.2402951419353485,0.0039827106520533,-0.0554969102264847,-9.630075289475917,-1.8517381662592287,100,standing
1783068653072039400,3.7158942,0.0056785205604508,-0.0744184043854475,0.3100321638554335,0.1168666183948516,0.2980441749095917,0.0032660535071045,-0.0508691134285181,-9.632423313906788,-1.83962789561823,100,standing
1783068653082001400,3.7258562,0.1535389037809334,0.0224392108231782,0.1501857391618192,0.0681804940104484,0.2982377707958221,-0.0087424032390117,-0.0450516547548351,-9.634112582167983,-1.8309153045915063,100,standing
1783068653091963400,3.7358182,0.2748572987682185,0.1376817930281162,-0.0446533807188272,0.0180076006799936,0.2547981739044189,-0.0241493210196495,-0.0384299076606752,-9.63488122845292,-1.827013767108321,100,standing
1783068653101925400,3.7457802,0.382204469814524,0.2029705500185489,-0.1888603377319872,-0.0086700245738029,0.2031580805778503,-0.0490267425775527,-0.030855465234851,-9.634929159247877,-1.826907968646288,100,standing
1783068653111888400,3.7557432,0.4425261424494907,0.2196650797098875,-0.2486521047413349,-0.0152027588337659,0.1379497796297073,-0.0711594745516777,-0.0218948679635417,-9.63471347067058,-1.828168197840452,100,standing
1783068653121850400,3.7657052,0.430543918634951,0.2067623435169458,-0.3270885125964879,0.0113123375922441,0.057222381234169,-0.0958997458219528,-0.012157227613352,-9.634679568400978,-1.828441169562936,100,standing
1783068653131812400,3.7756672,0.3527519461631774,0.1662467932552099,-0.4128067480228841,0.0424910299479961,-0.0344212539494037,-0.1155312359333038,-0.0018517997385621,-9.63516355252564,-1.8259212956964967,100,standing
1783068653141774300,3.7856291,0.3328950069181621,0.0655968000262975,-0.4393072169356047,0.0802213624119758,-0.1254371702671051,-0.1287746131420135,0.0084283233045571,-9.636268298897146,-1.820070962233096,100,standing
1783068653151736600,3.7955914,0.3734591455619782,-0.0237678290784358,-0.4159761718392372,0.1156422048807144,-0.2022613734006881,-0.1301157772541046,0.0179929000804491,-9.63803238596022,-1.8106312259756028,100,standing
1783068653161699300,3.8055541,0.3321214652623981,-0.1012426984250545,-0.3360848890006542,0.1406286358833313,-0.2524599730968475,-0.1155115962028503,0.0258117011972703,-9.640314359417555,-1.7983455987676975,100,standing
1783068653171661600,3.8155164,0.227052431748528,-0.1377016667723655,-0.2344650278262794,0.1485544741153717,-0.2650724351406097,-0.0814803913235664,0.030623567591561,-9.642910805651544,-1.7842958844967185,100,standing
1783068653181623800,3.8254786,0.0757926701470278,-0.1134048453837633,-0.1262858081363141,0.126624047756195,-0.2191427797079086,-0.0480230972170829,0.0325449869410833,-9.64536053689122,-1.7709690776728093,100,standing
1783068653191585500,3.8354403,-0.003190904995799,-0.0889408507347106,0.0346937122404575,0.083387367427349,-0.1313950717449188,-0.014277116395533,0.0323702285957988,-9.647230422416328,-1.7607637638702986,100,standing
1783068653201547500,3.8454023,-0.0256584514308953,-0.106521515610814,0.1401163266986608,0.0248922705650329,-0.0258243773132562,0.0230046417564153,0.0304468456180533,-9.648204235884547,-1.7554542592853306,100,standing
1783068653211510800,3.8553656,-0.0340810488183866,-0.0913788915365934,0.1843866994492709,-0.0446425974369049,0.0666906386613845,0.0698136910796165,0.0265991572139551,-9.64808440889716,-1.7561800893418489,100,standing
1783068653221472800,3.8653276,-0.0621923436113633,-0.1038537577062845,0.0940041254736483,-0.1179816797375679,0.1271718442440033,0.1256033182144165,0.0189471332070068,-9.646681556361914,-1.7639593450412152,100,standing
1783068653231434500,3.8752893,-0.1048076152318622,-0.2307289100378751,-0.1196872866541147,-0.1871397048234939,0.1747952848672866,0.1627762466669082,0.0078423909133183,-9.644006199672818,-1.7786152085117994,100,standing
1783068653241396700,3.8852515,-0.0838430709379725,-0.2073608939319849,-0.2486339845627546,-0.2417546808719635,0.1944506019353866,0.204871580004692,-0.0063883733047696,-9.64014075641632,-1.7994558980971571,100,standing
1783068653251358700,3.8952135,-0.0800911619253922,-0.2247328844934701,-0.3730303256906568,-0.281206727027893,0.1906337589025497,0.2382561713457107,-0.0240566879232181,-9.635338909092544,-1.824846944463253,100,standing
1783068653261321500,3.9051763,-0.0704183247314998,-0.2350467732369899,-0.4570435107648372,-0.2910442948341369,0.1554679721593856,0.2667325437068939,-0.0452515018756035,-9.629961307707427,-1.8526131955280896,100,standing
1783068653271283700,3.9151385,-0.0751534543614601,-0.1423696585834026,-0.5194248558759689,-0.2632744610309601,0.1174542754888534,0.2785801291465759,-0.0689476311244303,-9.62462637642026,-1.8794155699968336,100,standing
1783068653281245700,3.9251005,-0.1237886118925642,0.0037871173232793,-0.5050345114737749,-0.221559077501297,0.09780815243721,0.2695882022380829,-0.0933356242280919,-9.619799394655226,-1.902933808228373,100,standing
1783068653291207400,3.9350622,-0.1704271476797759,0.1447837339878082,-0.3909755860954523,-0.1697398126125335,0.0963103920221328,0.2415044009685516,-0.1159791985169518,-9.615796588754652,-1.92182350987643,100,standing
1783068653301169700,3.9450245,-0.1689411103731021,0.3268149563521146,-0.2988070054858923,-0.1229700967669487,0.1086498871445655,0.2011550962924957,-0.1351225643988233,-9.61272609526813,-1.93588111519292,100,standing
1783068653311132700,3.9549875,-0.1420915722943842,0.4443120394855737,-0.2175792133465409,-0.0789632350206375,0.1163586750626564,0.1579064279794693,-0.1501507683131378,-9.610514264437557,-1.9457316242083904,100,standing
1783068653321094700,3.9649495,-0.0900664937637746,0.4992413150250911,-0.1448395558282733,-0.0397725142538547,0.1229385882616043,0.1207812055945396,-0.1611750429488718,-9.609179800963402,-1.951433781372756,100,standing
1783068653331056600,3.9749114,-0.0547565127884969,0.5066331788420677,-0.1696022411629557,0.0022391197271645,0.1137916967272758,0.0869854241609573,-0.1686524113585241,-9.60863853369355,-1.953455788719654,100,standing
1783068653341018600,3.9848734,-0.0673115315223112,0.4048597345411777,-0.3043164165571332,0.0386818721890449,0.0826574340462684,0.06252171844244,-0.1739042674721218,-9.608918519678712,-1.9516195132032037,100,standing
1783068653350980900,3.9948357,-0.0860116836813278,0.3073720047354698,-0.4694673773996531,0.0551122464239597,0.0382769182324409,0.0487710200250148,-0.1780986138894222,-9.60974328006506,-1.947179484929144,100,standing
1783068653360943600,4.0047984,-0.1152220508735626,0.2771206588566303,-0.59355684453547,0.0592524707317352,-0.0059720296412706,0.0436287224292755,-0.1821079408623278,-9.61076619337201,-1.9417529298357663,100,standing
1783068653370905600,4.0147604,-0.1057253967970609,0.2632856102496385,-0.6181175775572657,0.0463856719434261,-0.0353624075651168,0.0405218787491321,-0.1863671144104562,-9.611744098493457,-1.936495155438036,100,standing
1783068653380867800,4.0247226,-0.0713316538838669,0.2058095728367567,-0.5330418778181075,0.036555241793394,-0.0431979037821292,0.0412743911147117,-0.1911327579096891,-9.612478257986902,-1.9323872817277907,100,standing
1783068653390829600,4.0346844,-0.0615576989696361,0.1765869854837655,-0.4013923506915569,0.0316912457346916,-0.0292479991912841,0.0276174359023571,-0.1952204108158126,-9.613033553782104,-1.929213327866793,100,standing
1783068653400791600,4.0446464,-0.018450104654394,0.2567395496070385,-0.2325904661260545,0.0336586944758892,-0.0041927713900804,0.0210483111441135,-0.1977762693110853,-9.613578328183292,-1.9262309510551392,100,standing
1783068653410754600,4.0546094,0.0279912371934391,0.2691080327928066,-0.1172824174694716,0.04669726267457,0.018375389277935,0.0196213908493518,-0.1994759493684396,-9.6142750782758,-1.9225772508531809,100,standing
1783068653420716800,4.0645716,0.0139539988115429,0.1754424916237592,-0.0778156456083059,0.0517435744404792,0.0368113741278648,0.0207589641213417,-0.2008513293748721,-9.615181671726702,-1.917900929605216,100,standing
1783068653430678500,4.0745333,-0.0188786687973886,0.1359972009420395,-0.0673589873932302,0.0483437813818454,0.0500171929597854,0.0249023102223873,-0.2022856182279996,-9.61613736501634,-1.9129447685025631,100,standing
1783068653440640800,4.0844956,-0.0364789334231056,0.2355120526611804,-0.055868017694354,0.0190965477377176,0.0720767527818679,0.0248791761696338,-0.2035397830075584,-9.616742345172169,-1.9097716914243996,100,standing
1783068653450602800,4.0944576,-0.0286201462141238,0.3289356017678976,-0.0280494519203901,-0.0224247965961694,0.1005121245980262,0.0229909941554069,-0.2042159835023805,-9.61664180740714,-1.9102065757103264,100,standing
1783068653460565500,4.1044203,-0.0088419347611255,0.3092296153008937,0.0054056584358215,-0.0583513714373111,0.1248936280608177,0.0202476717531681,-0.2042419581938535,-9.615790743535756,-1.9144819149419663,100,standing
1783068653470527700,4.1143825,0.0087365198915824,0.2025777513086795,-0.0061249126210808,-0.0718277618288993,0.1278284341096878,0.0243263039737939,-0.2040136475970037,-9.614484337112309,-1.9210582245923575,100,standing
1783068653480489700,4.1243445,-0.0134481681812554,0.144319623607397,-0.0623408669702708,-0.0646292641758918,0.1081314906477928,0.0326933190226554,-0.204424091561418,-9.613087329795956,-1.927988900638372,100,standing
1783068653490451500,4.1343063,-0.0423515517835505,0.1547971784800291,-0.1055282667897641,-0.0342852026224136,0.0800007879734039,0.0406742803752422,-0.2063460543336346,-9.612042789179084,-1.932984516968578,100,standing
1783068653500413700,4.1442685,-0.0647024450024589,0.176520934510231,-0.1288484982311725,-0.0009783788118511,0.0537582673132419,0.041594136506319,-0.2089847688067704,-9.611620764374733,-1.9348039874807,100,standing
1783068653510376700,4.1542315,-0.0367273917588405,0.2011936034739017,-0.1211681728616356,0.0226648990064859,0.0328868068754673,0.0402313992381095,-0.2121198336957953,-9.611752281799912,-1.9338047473102808,100,standing
1783068653520338700,4.1641935,9.77978186681e-05,0.2261830833017826,-0.1177110181450843,0.0441000759601593,0.0261174570769071,0.0281842555850744,-0.2148277226813137,-9.61235141673684,-1.93052864824906,100,standing
1783068653530300700,4.1741555,-0.0343584706704132,0.2810363709956407,-0.1255064943268895,0.0624484568834304,0.0171340815722942,0.0162498317658901,-0.2165838456336408,-9.613336336120962,-1.9254269411958755,100,standing
1783068653540262700,4.1841175,-0.0242342592800967,0.3174550073325634,-0.1405713769897818,0.0726704224944114,0.0156485475599765,0.0111964829266071,-0.2175801449283026,-9.61459013557434,-1.919040893420577,100,standing
1783068653550224600,4.1940794,-0.0350894152934663,0.3170072635650635,-0.158620536160469,0.0835395827889442,0.0174986459314823,0.0041726622730493,-0.2180973554691299,-9.616086511611938,-1.911465928121656,100,standing
1783068653560187600,4.2040424,-0.0602054441104643,0.2943693152993917,-0.1409602301768958,0.0976169928908348,0.0124766658991575,0.0008335606544278,-0.2179708430126309,-9.617838908237218,-1.9026403782397507,100,standing
1783068653570149600,4.2140044,-0.0631688422270119,0.2867173392415046,-0.1498227510683238,0.1025342568755149,-0.0057548023760318,0.0037657008506357,-0.2180002517702058,-9.619763738819955,-1.8928801778562363,100,standing
1783068653580111600,4.2239664,-0.0340075566072016,0.328692440661788,-0.1557955418676138,0.0956279560923576,-0.0155478939414024,0.0243361517786979,-0.2194785441618412,-9.621636546954512,-1.883166739223897,100,standing
1783068653590073600,4.2339284,0.00665211483296,0.3161322342962026,-0.0955539852641522,0.074434258043766,-0.0029303692281246,0.0498281978070735,-0.2231776726744137,-9.623141690820455,-1.875023326387256,100,standing
1783068653600035600,4.2438904,1.13068453036e-05,0.2404173603594303,0.010136194089055,0.0459803789854049,0.0431427657604217,0.0793752744793891,-0.228956858864054,-9.624191492134331,-1.868934654123336,100,standing
1783068653609997800,4.2538526,0.0020262085979804,0.1383341194570064,0.1642649717882275,0.0156147498637437,0.0966014638543129,0.1103795245289802,-0.2368076271633617,-9.624610594329235,-1.86579460253194,100,standing
1783068653619960600,4.2638154,0.0218146309177391,0.0230617266356945,0.2387111409634351,-0.0184787511825561,0.1397477984428405,0.13949516415596,-0.2467199859012849,-9.624258712151644,-1.8663192109279332,100,standing
1783068653629922600,4.2737774,0.0475800635541789,0.0327823256611824,0.207858614321053,-0.0520678721368312,0.1777377873659134,0.1622891724109649,-0.258269864446856,-9.62320657275021,-1.8701830467492344,100,standing
1783068653639884800,4.2837396,0.0792123058647848,0.0829904178977012,0.1649590915322303,-0.068994827568531,0.2062335461378097,0.1634711772203445,-0.2704491634697653,-9.62163946956396,-1.876514149466902,100,standing
1783068653649846500,4.2937013,0.0773452333512716,0.121771691712737,0.0872603503018617,-0.0692358464002609,0.2269404232501983,0.1526917666196823,-0.2814509066132828,-9.6198689527601,-1.883959058645368,100,standing
1783068653659808500,4.3036633,0.0414674806917086,0.1333066466838121,-0.0676350278556346,-0.061928242444992,0.2200095653533935,0.1368014812469482,-0.2910630220293067,-9.618236383122206,-1.8908219301521776,100,standing
1783068653669771800,4.3136266,0.0369579125790856,0.1041425115197896,-0.1981942755274474,-0.0412418767809867,0.1943577378988266,0.1166799664497375,-0.2994222878400236,-9.616904257735609,-1.896283264297992,100,standing
1783068653679733800,4.3235886,0.078777074518986,0.1053840360134839,-0.2838407608918845,-0.0135483089834451,0.1525586098432541,0.0943460315465927,-0.3062261957012117,-9.616050855776669,-1.899521515566856,100,standing
1783068653689695500,4.3335503,0.1078975532043725,0.0832218885660171,-0.3627700668305158,0.0103370500728487,0.0872411206364631,0.07336937636137,-0.3118535705963149,-9.615735798478124,-1.9001991225674748,100,standing
1783068653699657700,4.3435125,0.0936068332517519,0.059243631607294,-0.4595744905471801,0.0374082922935485,0.0037333890795707,0.0634959414601326,-0.3173150508726015,-9.615998833328485,-1.8979659566879272,100,standing
1783068653709619700,4.3534745,0.0417250356493517,0.0975596259981393,-0.5393317717425525,0.0614755451679229,-0.0868100970983505,0.0559996739029884,-0.3237918091386556,-9.61675520465374,-1.8930273312419648,100,standing
1783068653719582500,4.3634373,-0.0212666964450851,0.1667366225987672,-0.5754919032737612,0.0696747303009033,-0.1473585367202758,0.0510107092559337,-0.3311299334743991,-9.617848845109345,-1.886196316178143,100,standing
1783068653729544700,4.3733995,-0.0950099780479446,0.2023784293442964,-0.5070175019845367,0.0758620575070381,-0.1563837230205536,0.0395769625902175,-0.3383405224403366,-9.619074002990128,-1.878654960887879,100,standing
1783068653739506700,4.3833615,-0.1858542147185653,0.1941653122723102,-0.3881609670661389,0.0615880079567432,-0.1347073018550872,0.0236563794314861,-0.3441622143311426,-9.620286301389337,-1.871366557445377,100,standing
1783068653749468700,4.3933235,-0.2300608015179634,0.2059212165176868,-0.2885568296283483,0.0342716984450817,-0.0906636789441108,0.0105696050450205,-0.3479891887407749,-9.62111866056025,-1.8663743021160364,100,standing
1783068653759430700,4.4032855,-0.21361067504175,0.2260357837855815,-0.2050008868023753,0.0056454925797879,-0.0400372669100761,-0.0165751911699771,-0.3488771505564451,-9.621482817697524,-1.8643375355914236,100,standing
1783068653769393700,4.4132485,-0.1679115481296554,0.2370487607091665,-0.1204528641991317,-0.0165207963436841,7.18024093657e-05,-0.0395385660231113,-0.3465425335964188,-9.621420858377215,-1.865088500089198,100,standing
1783068653779355600,4.4232104,-0.1815041662828996,0.3331301308482885,-0.0646957595333456,-0.0204886589199304,0.0490066595375537,-0.0692459642887115,-0.3408808180402964,-9.62128641834259,-1.8668268681891265,100,standing
1783068653789317600,4.4331724,-0.2182648575231432,0.4019605059683322,-0.0403013229891657,-0.0073936292901635,0.0818578153848648,-0.0938269421458244,-0.3318030834956094,-9.621283495733142,-1.8684760967008769,100,standing
1783068653799279600,4.4431344,-0.2579872846458107,0.4147527675241231,-0.0814167388401925,0.0106137916445732,0.0996348187327385,-0.1163517534732818,-0.3197635034706443,-9.621654667133091,-1.868660513357073,100,standing
1783068653809241900,4.4530967,-0.276857861468289,0.395976170861721,-0.1456124398969113,0.0352200679481029,0.1050490289926529,-0.1279980391263961,-0.3059805321107618,-9.62248059656322,-1.8667140554644168,100,standing
1783068653819204600,4.4630594,-0.3187737617809325,0.3114005295991897,-0.2421042905330657,0.0501350089907646,0.0924308896064758,-0.1300369650125503,-0.2915980970203876,-9.623647886776924,-1.8629973730288445,100,standing
1783068653829166600,4.4730214,-0.3069814345153048,0.156097155162692,-0.3835772925376892,0.0593652576208114,0.0614356882870197,-0.1170087903738021,-0.278101687516924,-9.62501566799879,-1.8579940117836,100,standing
1783068653839128800,4.4829836,-0.2786705551797523,-0.0202940154880285,-0.5115956235550344,0.0567241609096527,0.0234372951090335,-0.1036373898386955,-0.2666088911871425,-9.626392801570892,-1.8525288782455025,100,standing
1783068653849090600,4.4929454,-0.2486154625253751,-0.1121346793174743,-0.5239056545518338,0.0485780872404575,-0.0101643409579992,-0.0842762067914009,-0.2574588403249159,-9.62762672728002,-1.8474013060987,100,standing
1783068653859052500,4.5029073,-0.2259142214988358,-0.1150648875504732,-0.4825140521079301,0.0336124710738658,-0.0335034132003784,-0.0639448016881942,-0.2508311840797774,-9.628587681266666,-1.8433030769996344,100,standing
1783068653869015800,4.5128706,-0.2146211855248548,-0.0792231743186712,-0.3346010801836848,0.0265380479395389,-0.0172386895865201,-0.0456584766507148,-0.2462626523215323,-9.6292657266587,-1.8403817827254527,100,standing
1783068653878977800,4.5228326,-0.1713264528733678,-0.0590659369528293,-0.1102336680017411,0.0275043956935405,0.0160561613738536,-0.0449149198830127,-0.2419725173795595,-9.629818099844456,-1.83804749455899,100,standing
1783068653888939500,4.5327943,-0.1303395405065268,-0.0833744487792253,0.0424053095310926,0.0361295752227306,0.0453405454754829,-0.0375089384615421,-0.2374697260675951,-9.630500821411609,-1.83506351031214,100,standing
1783068653898901800,4.5427566,-0.1477778195035644,-0.0374123235493898,0.0581659193731844,0.0566433146595954,0.0672859847545623,-0.0304735619574785,-0.233199556201417,-9.631420858865976,-1.830772973511368,100,standing
1783068653908863500,4.5527183,-0.1814350465694442,0.0206640178442001,0.0453947006054222,0.0677590817213058,0.072243720293045,-0.0247469656169414,-0.2291705564136616,-9.632634910830856,-1.8248849383860823,100,standing
1783068653918826500,4.5626813,-0.1682985746858641,0.0013216039925813,-0.0285742064468562,0.070910707116127,0.059655375778675,-0.0215851981192827,-0.2256971446820534,-9.633943070819974,-1.8184027367599307,100,standing
1783068653928788700,4.5726435,-0.111695447649993,-0.0020031565159559,-0.1392835291363298,0.0484394878149032,0.0238132216036319,-0.0219013150781393,-0.2227446698183193,-9.635108607468007,-1.8125895204365248,100,standing
1783068653938750700,4.5826055,-0.0456557809607125,0.0623328297942876,-0.2353578850127756,0.0224096160382032,-0.0224963016808033,-0.0367027968168258,-0.2199509657128714,-9.635848612180352,-1.8089912036836149,100,standing
1783068653948712700,4.5925675,0.0127176254170015,0.1208376257330179,-0.2892940578617155,-0.0130391875281929,-0.0619640834629535,-0.0530074685811996,-0.2165241513356566,-9.635995327174664,-1.8086251468501984,100,standing
1783068653958674700,4.6025295,0.0460468991701491,0.1170563536286354,-0.2254645597688853,-0.036021564155817,-0.0900367870926857,-0.0667021423578262,-0.212144657609798,-9.635653381869195,-1.8109535897977649,100,standing
1783068653968637700,4.6124925,0.0598285736220888,0.0522457355439662,-0.1062150800101459,-0.0480015277862548,-0.0967697873711586,-0.0755526274442672,-0.2069223746505565,-9.635037295797469,-1.814832477057725,100,standing
1783068653978599400,4.6224542,0.066805098103825,-0.0493845008939504,0.0126309335142374,-0.0379803553223609,-0.1065983101725578,-0.0757991671562194,-0.2014789780202321,-9.63441302641928,-1.8187568108946084,100,standing
1783068653988561700,4.6324165,0.0401609281377866,-0.1874134999245405,0.0698281539857387,-0.0145285604521632,-0.1119595170021057,-0.0610463209450244,-0.1968315175405703,-9.634051207369565,-1.8211866683900355,100,standing
1783068653998523600,4.6423784,0.0159046031563542,-0.2324333758682012,0.092382077229768,0.0056935055181384,-0.1038233116269111,-0.0542636476457119,-0.193374709883891,-9.634071081113817,-1.82144458867386,100,standing
1783068654008485600,4.6523404,0.0106410383386537,-0.2323994735985994,0.122658557549864,0.024524450302124,-0.0783786699175834,-0.0442879796028137,-0.1903557639215141,-9.634404258590935,-1.819997750866413,100,standing
1783068654018448600,4.6623034,0.0247431951829232,-0.2643862649679184,0.1674566074363887,0.0347633548080921,-0.0630833208560943,-0.036657091230154,-0.1876985456773079,-9.635040802928804,-1.816912059810757,100,standing
1783068654028410600,4.6722654,0.0555988636304624,-0.2909457705914974,0.1016315516121685,0.0329233780503273,-0.070095956325531,-0.0179254822432994,-0.1862324734464287,-9.635713587623837,-1.81348588475436,100,standing
1783068654038372900,4.6822277,0.0812227689043618,-0.2697141819924116,-0.0223750595457851,0.0297325868159532,-0.0880860835313797,-0.0093892188742756,-0.1862683850100263,-9.636296355947852,-1.8103864574342965,100,standing
1783068654048334600,4.6921894,0.0844298761162906,-0.1588695424854755,-0.1342296067476272,0.0161169096827507,-0.099782682955265,-0.0033374514896422,-0.1875302764383144,-9.6367072748363,-1.8080664900541303,100,standing
1783068654058296600,4.7021514,0.0661181752855889,-0.0397515801519155,-0.182350955837965,0.000901584746316,-0.1015731394290924,-0.0075974417850375,-0.1889707027712836,-9.636863342180847,-1.807080693887174,100,standing
1783068654068259800,4.7121146,0.055338112068735,0.0230067815780639,-0.1896146632306277,-0.0092445258051157,-0.0969134047627449,-0.0066360402852296,-0.1900118823872879,-9.636772741287944,-1.807448650416732,100,standing
1783068654078221600,4.7220764,0.0304581387636251,0.0175040925085544,-0.1851962622664868,-0.0147948395460844,-0.100848950445652,-0.0004269802593626,-0.1913184714738279,-9.636507952871918,-1.8087249539628625,100,standing
1783068654088183600,4.7320384,-0.0271729978794232,-0.0211029937833547,-0.1600267496965825,-0.0121407331898808,-0.0940014347434043,0.0086163152009248,-0.1933928300624713,-9.636208093142509,-1.810101795274019,100,standing
1783068654098145800,4.7420006,-0.0768028153039515,-0.0369160644650459,-0.1189824993856251,0.0028911586850881,-0.0904428362846374,0.0244875773787498,-0.1965851415640674,-9.636108139899372,-1.8102949797585608,100,standing
1783068654108107500,4.7519623,-0.1620796088394709,-0.046682840719819,-0.1091525947667658,0.0212920028716325,-0.0669361650943756,0.0406511016190052,-0.201240511355549,-9.636218030014634,-1.8092014854334293,100,standing
1783068654118070500,4.7619253,-0.1917509811395779,-0.0043564416438341,-0.0451145684897899,0.0349793545901775,-0.0225021503865718,0.0483543053269386,-0.2062849900624714,-9.636644730994105,-1.8063516489602625,100,standing
1783068654128032800,4.7718876,-0.1679698907207697,0.0459609561860561,0.0231881294943392,0.0451992377638816,0.0119655467569828,0.0499362237751483,-0.2112118520054035,-9.637281859853864,-1.80237909206748,100,standing
1783068654137994800,4.7818496,-0.1606158016309142,0.1420879190325737,-0.0250358031876385,0.0557027272880077,0.030558742582798,0.0446646623313427,-0.2154235331499949,-9.63809142267108,-1.797550648997724,100,standing
1783068654147956700,4.7918115,-0.1717077255422249,0.267369080170989,-0.1242592707447707,0.0583491101861,0.0438891947269439,0.0377540253102779,-0.2186967644006945,-9.63902198151946,-1.7921495206065474,100,standing
1783068654157918700,4.8017735,-0.1099719300593249,0.3355062123298645,-0.1882822455830872,0.0553663484752178,0.0413877591490745,0.0219102464616298,-0.220727174249757,-9.63997299863398,-1.786784778703004,100,standing
1783068654167881700,4.8117365,-0.0440934270148165,0.3371685925841331,-0.2351438038706779,0.0506139397621154,0.0267885774374008,0.0181064531207084,-0.2221118152748793,-9.64088660634756,-1.7816716734729707,100,standing
1783068654177843700,4.8216985,-0.0341609022716991,0.3474485790580511,-0.2448212944068014,0.0485729463398456,0.0150206545367836,0.0135191949084401,-0.223066175123956,-9.641740592828391,-1.7769326622523367,100,standing
1783068654187805700,4.8316605,-0.0635992512672208,0.3369493968755007,-0.2105436156213283,0.0371834076941013,0.0116272550076246,0.0112722860649228,-0.2238546038215979,-9.642463061884046,-1.7729028222143648,100,standing
1783068654197767700,4.8416225,-0.0909568667322397,0.3131915046691894,-0.1375163733333349,0.0195962525904178,0.0266081281006336,0.0070494776591658,-0.2243296009222045,-9.642946461486815,-1.7702131447389722,100,standing
1783068654207730000,4.8515848,-0.0912304412429221,0.2957224834740162,-0.0584917903266847,0.0013706437312066,0.0517582222819328,0.0082228668034076,-0.2243552285538055,-9.643134093013405,-1.7691819019950925,100,standing
1783068654217691600,4.8615464,-0.1012538774061948,0.2455062079310417,-0.0111000706851482,-0.0100815966725349,0.0912518426775932,0.0053652944043278,-0.2237590344926342,-9.643046999251842,-1.769737343920767,100,standing
1783068654227654700,4.8715095,-0.1654487930116243,0.1605915439724922,-0.0289056303583085,-0.0114912074059247,0.1278506070375442,0.0095256846398115,-0.2225614404722116,-9.64282663449943,-1.7710849591374396,100,standing
1783068654237617000,4.8814718,-0.1448397932902909,0.0588198532372713,-0.0717769499659538,-0.0035486514680087,0.1564712822437286,0.0086683742702007,-0.2208745468311942,-9.64265887671709,-1.7722072411656378,100,standing
1783068654247579000,4.8914338,-0.1170566824221983,0.0219189863413572,-0.1488771407812833,0.0122300442308187,0.1659124493598938,0.0015721151139587,-0.2185804628109559,-9.642719082471729,-1.7721704162865877,100,standing
1783068654257540600,4.9013954,-0.0845892861953936,0.0707920305818319,-0.267486569070816,0.0294762589037418,0.1533730924129486,-0.0095381252467632,-0.2154341458755545,-9.643109543094038,-1.7704282487943768,100,standing
1783068654267502800,4.9113576,-0.0441371748249977,0.1340443133085966,-0.4039056486867368,0.0488691292703151,0.1165338456630706,-0.0183076504617929,-0.2117430728052742,-9.643812722927333,-1.7670364143989978,100,standing
1783068654277465900,4.9213207,-0.0152754566736519,0.1677928536534309,-0.5015637666232884,0.0565073974430561,0.0797252878546714,-0.0262507554143667,-0.2078342835973948,-9.644791797092555,-1.7621540491849184,100,standing
1783068654287427600,4.9312824,0.0044059981402941,0.1586760657399892,-0.5045984581440687,0.0696836560964584,0.0478901229798793,-0.0261998884379863,-0.2040225615558214,-9.645999419316649,-1.7559771141156553,100,standing
1783068654297389800,4.9412446,-0.0294244118017144,0.1352437522262334,-0.4749766423404216,0.0687654167413711,0.0106946257874369,-0.0196301043033599,-0.2011671721247024,-9.647257894945144,-1.7493863375484942,100,standing
1783068654307351800,4.9512066,-0.0871583694984205,0.1953805332809686,-0.4467617707252502,0.0594816356897354,-0.0223426856100559,-0.0149469366297125,-0.199696862110123,-9.648436875596644,-1.7430350688256322,100,standing
1783068654317313800,4.9611686,-0.1021177642265334,0.255414438483119,-0.3912478271655738,0.0407387651503086,-0.0390821360051631,-0.0075296978466212,-0.1992523880119435,-9.649363342791796,-1.737945636732131,100,standing
1783068654327276800,4.9711316,-0.0770558402169495,0.2015226892977953,-0.2723695188067853,0.0250532794743776,-0.0313136950135231,-0.0006430293433368,-0.199474360199552,-9.649939096853135,-1.734719660422951,100,standing
1783068654337238800,4.9810936,-0.0817666847890242,0.1158066458284854,-0.1218615619532764,0.00075743207708,-0.0099441381171345,0.0088860569521784,-0.2003001800318248,-9.650116206985713,-1.7336444324068725,100,standing
1783068654347200500,4.9910553,-0.1078088702739216,0.0647615182459354,-0.0206562729291617,-0.0143608003854751,0.0217914227396249,0.0179000589996576,-0.2014920201648957,-9.649947280159592,-1.7344428893081842,100,standing
1783068654357162800,5.0010176,-0.1505430646995082,0.1078816980481147,0.0114497609056532,-0.0283653382211923,0.0395835861563682,0.0245331302285194,-0.2030505199195817,-9.64952233274579,-1.7366212562605738,100,standing
1783068654367124700,5.0109795,-0.1491656023338437,0.1699924095243215,-0.0226302033506333,-0.0320463627576828,0.0423013418912887,0.0302029997110366,-0.2050265874992124,-9.648935472768544,-1.7396517099976538,100,standing
1783068654377087700,5.0209425,-0.0856668888316489,0.1532820977419614,-0.1429739080868661,-0.0248354338109493,0.0320107564330101,0.0252996552735567,-0.2070242823887616,-9.648385437670347,-1.7424598992861806,100,standing
1783068654387049700,5.0309045,-0.0748501468662172,0.0995429087698459,-0.2449019584275782,-0.020389549434185,0.0100982673466205,0.020648444071412,-0.2088627498622983,-9.64791957372427,-1.7448294048964976,100,standing
1783068654397011700,5.0408665,-0.0765666136615909,0.0272112475305795,-0.3513638528056442,-0.0183385368436574,-0.0182838290929794,0.0197383072227239,-0.2108873327587731,-9.64756301537156,-1.7465556441672143,100,standing
1783068654406974000,5.0508288,-0.059096313824784,0.0233855517625808,-0.3929265740327536,-0.0205412358045578,-0.0445332750678062,0.0143430083990097,-0.2132440884853713,-9.647177815446256,-1.74838738963902,100,standing
1783068654416935700,5.0607905,-0.0319127397524192,0.0291945303022861,-0.3920842779897153,-0.0332410894334316,-0.0686299502849578,0.0135137625038623,-0.2155878385999239,-9.646702014628053,-1.7507262078501282,100,standing
1783068654426898700,5.0707535,-0.0353332339867018,0.039491467911005,-0.3870984524011612,-0.0518139749765396,-0.0881096422672271,0.0138229560106992,-0.2183025043861009,-9.645926354080435,-1.7546647163428366,100,standing
1783068654436860700,5.0807155,-0.0497558366906829,0.0187719204872846,-0.3679068451970815,-0.0671624988317489,-0.0992118418216705,0.0164689440280199,-0.2215372119910083,-9.644809332749247,-1.7603889392085372,100,standing
1783068654446822700,5.0906775,-0.0639120983423665,-0.0429372244507074,-0.3058222910754382,-0.0696046128869056,-0.0937318578362464,0.0206410530954599,-0.2250381145177409,-9.64355261068642,-1.7668078663401303,100,standing
1783068654456784600,5.1006394,-0.0772200908679515,-0.0837841986238956,-0.1874250442318618,-0.0558400303125381,-0.0810853019356727,0.0241203401237726,-0.2287888270870782,-9.64236018603146,-1.7728271266296505,100,standing
1783068654466747000,5.1106018,-0.1000500911070033,-0.0855155524611473,-0.0822350694857537,-0.0319453477859497,-0.0607581920921802,0.0308533441275358,-0.2325942107194103,-9.641526657816769,-1.776862373495102,100,standing
1783068654476710000,5.1205648,-0.0992302991567179,-0.0469336006104946,-0.0644791941732168,-0.0153825422748923,-0.0593360550701618,0.0293449256569147,-0.2365565384791232,-9.641053779608011,-1.7789067388042807,100,standing
1783068654486671600,5.1305264,-0.0998282650498673,0.0520551814079284,-0.1312070440560579,-0.0022371786180883,-0.0607669726014137,0.0167697463184595,-0.2398490954848006,-9.640832830333707,-1.7796650098256763,100,standing
1783068654496633900,5.1404887,-0.0541206260377541,0.107205990743637,-0.2117600056737661,-0.0017507337033748,-0.0756378099322319,-0.0035218063276261,-0.2417129165953025,-9.640767363882064,-1.779767008895427,100,standing
1783068654506595800,5.1504506,0.0110981161900796,0.1178472117453813,-0.2928624178677797,-0.0022229119203984,-0.096962533891201,-0.020818505436182,-0.2421386311940848,-9.640784315016866,-1.779618686465919,100,standing
1783068654516557600,5.1604124,0.0296556998069398,0.1137549739956855,-0.3110999392174184,0.0054832501336932,-0.1102022975683212,-0.0307925157248973,-0.2413927995291538,-9.640881345650554,-1.779187601572275,100,standing
1783068654526520800,5.1703756,0.0356913632419891,0.1065039799541234,-0.2635194190055132,0.017339376732707,-0.1304700225591659,-0.0416041500866413,-0.2399467471729963,-9.641112816318868,-1.7781361928232011,100,standing
1783068654536482800,5.1803376,-0.0043466143695637,0.1063420673906803,-0.2258763554401695,0.0249505583196878,-0.1354259550571441,-0.0430662631988525,-0.2383656702603213,-9.641550038692356,-1.7759755076579749,100,standing
1783068654546444500,5.1902993,-0.0604283661461435,0.1216483575940132,-0.1873562167793512,0.0341589711606502,-0.1325113922357559,-0.0465659238398075,-0.2364527127784676,-9.64219184372723,-1.7727467548698186,100,standing
1783068654556406800,5.2002616,-0.1133535353216342,0.1362806940585375,-0.1284561379127204,0.0355967134237289,-0.1230045184493064,-0.0406646467745304,-0.2345538751535117,-9.642906713998316,-1.7690983153648674,100,standing
1783068654566368800,5.2102236,-0.0882470415179617,0.1065191775232553,-0.044985681413114,0.0270210690796375,-0.0954581126570701,-0.0299041457474231,-0.2331745130917057,-9.643520461982488,-1.7659285992875695,100,standing
1783068654576331800,5.2201866,-0.081452942664735,0.0849339531809091,0.0370902519881725,0.0299757719039917,-0.0604267716407775,-0.0221505519002676,-0.2320378006793558,-9.644083356562255,-1.7630102276228368,100,standing
1783068654586293800,5.2301486,-0.083934055423364,0.0966693991601467,0.103415512419492,0.0410167053341865,-0.0233047045767307,-0.0056093921884894,-0.2315019767696037,-9.64474561986327,-1.7594550193592906,100,standing
1783068654596255700,5.2401105,-0.1257140361303463,0.1181587619125843,0.1196095452427864,0.0531281121075153,0.0028954846784472,-0.0020695184357464,-0.2314709240442141,-9.64558499329686,-1.7548494252599776,100,standing
1783068654606218000,5.2500728,-0.1175955750718712,0.1306464875638485,0.0696036975800991,0.0734749287366867,0.0298394840210676,0.0094960574060678,-0.2316585555708035,-9.646699676540493,-1.7486872493684291,100,standing
1783068654616179700,5.2600345,-0.1077862383170053,0.1059206271082162,0.0356488210082054,0.082572117447853,0.0583316572010517,0.0172552056610584,-0.2321904156914912,-9.64801192818284,-1.7413681585267184,100,standing
1783068654626141700,5.2699965,-0.1416429700103588,0.0868377409756183,0.0350531932026147,0.0819755718111991,0.1000341027975082,0.0180903729051351,-0.2326006769928149,-9.64942880924344,-1.733440142006427,100,standing
1783068654636104700,5.2799595,-0.1684417642825283,0.0659112728029489,0.0023643910437822,0.0640088766813278,0.1390649080276489,0.0239051580429077,-0.2325869589947164,-9.650648706427216,-1.726638353037089,100,standing
1783068654646066700,5.2899215,-0.1952940605739131,0.0560386980861425,-0.0614345657803118,0.0280458163470029,0.1662086397409439,0.0357362478971481,-0.2328191420490853,-9.651401570621132,-1.7223954547703264,100,standing
1783068654656028700,5.2998835,-0.1914910332954488,0.0643394934415817,-0.1618552802979946,-0.0147006781771779,0.1656356006860733,0.033150490373373,-0.2333301603111438,-9.651471128726005,-1.721932659564167,100,standing
1783068654665991000,5.3098458,-0.1605293106575496,0.1332727444142103,-0.2783383640833199,-0.0500834360718727,0.1420405209064483,0.0355071201920509,-0.2340650687232613,-9.650824062994122,-1.7254586417332292,100,standing
1783068654675952600,5.3198074,-0.116656979047507,0.1991547911226749,-0.3820147193960845,-0.0725433751940727,0.1076312065124511,0.0291204918175935,-0.2351409360601566,-9.649666709652545,-1.7317660713143646,100,standing
1783068654685915600,5.3297704,-0.1021001737709157,0.2344622513473033,-0.4091996634416281,-0.0761362463235855,0.0693607851862907,0.023991510272026,-0.2362304300636053,-9.648313541477918,-1.7391474137373268,100,standing
1783068654695878000,5.3397328,-0.1007175055071711,0.2307365088224411,-0.3837387667097151,-0.0561139360070228,0.0275883879512548,0.0069176154211163,-0.2368650199064053,-9.647132807260752,-1.7456043347917496,100,standing
1783068654705839600,5.3496944,-0.0626870135268196,0.2639735925137996,-0.3889868964962661,-0.0292245298624038,-0.009471096098423,-0.0029070517048239,-0.236887450933922,-9.646400401332974,-1.7496332980468867,100,standing
1783068654715801600,5.3596564,-0.0699307375773787,0.260483412310481,-0.4013303913712501,0.0031186470296233,-0.0376915596425533,-0.0118189183995127,-0.2366767855916172,-9.64620341745615,-1.7507577720321714,100,standing
1783068654725763800,5.3696186,-0.1020081298395991,0.2073211464434862,-0.3849013807483017,0.0226992722600698,-0.0575337074697017,-0.0143710253760218,-0.2363224922612309,-9.64646177613139,-1.749379615546763,100,standing
1783068654735726800,5.3795816,-0.1302532321962528,0.181000710272789,-0.3748414667658508,0.026320431381464,-0.0622030906379222,-0.0154368551447987,-0.2359098928723484,-9.646925301989912,-1.746869824682921,100,standing
1783068654745688600,5.3895434,-0.1329615047742612,0.1779705487966537,-0.3076408848047256,0.0133985057473182,-0.0435638949275016,-0.0114865880459547,-0.2355959132860414,-9.64733738992214,-1.7446388507604598,100,standing
1783068654755650800,5.3995056,-0.0845660514502786,0.1194528933763504,-0.1867806088484823,0.0007459437474608,-0.0020937956869602,-0.0152261424809694,-0.2346110121682286,-9.647478844219446,-1.7439933924637734,100,standing
1783068654765612800,5.4094676,-0.0535437759978696,0.0487649076908826,-0.0902566095083951,-0.0110060535371303,0.0218496210873127,-0.0208909530192613,-0.2325633223908021,-9.647418053942918,-1.7445998339243232,100,standing
1783068654775574800,5.4194296,-0.0097547752897255,-0.032195465683937,-0.097152652632445,-0.0084914602339267,0.0286648962646722,-0.0208589863032102,-0.2301143035371787,-9.647261986598371,-1.745783636881411,100,standing
1783068654785537800,5.4293926,0.0024624445907771,-0.0506458991318941,-0.1508832199066877,-0.00367619888857,0.0210043136030435,-0.0235114935785532,-0.2275174737107008,-9.647218147456645,-1.746371812032908,100,standing
1783068654795499800,5.4393546,-0.0026076617477461,-0.0130237322241067,-0.1926755121059715,0.0031948524992913,0.0119312703609466,-0.0204794574528932,-0.225140752908308,-9.647281275820731,-1.7463289958044883,100,standing
1783068654805461800,5.4493166,0.0142922543225809,-0.0291477685511112,-0.2082657338172197,0.0108961816877126,0.002153473906219,-0.0176610331982374,-0.2231863309049047,-9.647467153781651,-1.7455526046045124,100,standing
1783068654815423700,5.4592785,0.0103126283681951,-0.0409749844670295,-0.2306915006369352,0.0157313589006662,-0.0132460659369826,-0.009519912302494,-0.2220497828893363,-9.647760583770276,-1.7440758100502192,100,standing
1783068654825385700,5.4692405,-0.0265899555607698,0.0095142627984285,-0.2465187459744512,0.0262282099574804,-0.0152333164587616,-0.011465617455542,-0.2213595356028526,-9.6481218182981,-1.742165154123306,100,standing
1783068654835348700,5.4792035,-0.0543131712014786,0.1088759697824716,-0.2321574815362691,0.0275699105113744,-0.0183596033602952,-0.0096211116760969,-0.2205710521062835,-9.64857248467505,-1.7397670069403943,100,standing
1783068654845310700,5.4891655,-0.0123716615235432,0.1136807397156953,-0.2119059900157153,0.0252798572182655,-0.0225104056298732,-0.0118302041664719,-0.2198658081800676,-9.64903717957735,-1.737273290428519,100,standing
