time,seconds_elapsed,acc_x,acc_y,acc_z,gyr_x,gyr_y,gyr_z,grav_x,grav_y,grav_z,fs_hz,activity
1783067921685233400,0.0,0.6492274399615824,0.3990659535706043,0.3158604316174984,-0.2040528953075409,-0.6915469169616699,-0.177646979689598,0.1205084029118064,-8.322077797442674,-5.186414211872219,50,standing
1783067921705159400,0.019926,0.9805387578848748,0.2174427274852991,0.1924433107852935,-0.2171569019556045,-0.7539523243904114,0.025701692327857,0.0594425106136826,-8.297873330512642,-5.226102663660049,50,standing
1783067921725084400,0.039851,0.6027540042087436,0.8734726870685815,0.0764040252447128,-0.0655898675322532,-1.1664601564407349,0.1402806788682937,-0.0531350034007336,-8.282928274837136,-5.249824900031089,50,standing
1783067921745010400,0.059777,0.0157521342746913,1.398665020430088,0.0171288294553756,0.0127124125137925,-1.928275227546692,0.3372942507266998,-0.2448474152287468,-8.279301316511631,-5.250105470538139,50,standing
1783067921764936400,0.079703,0.530487115301378,1.2027402972698211,-0.0418529363453388,0.3866905570030212,-2.3178539276123047,0.2757958471775055,-0.5336293953824788,-8.298106554746628,-5.198755807051063,50,standing
1783067921784862500,0.0996291,0.8543500534474849,0.081868135869503,0.3707283323585987,0.3010583817958832,-1.5972412824630735,0.3523135781288147,-0.78237451216951,-8.334231761094927,-5.108703780204057,50,standing
1783067921804788200,0.1195548,-1.138701467275247,0.5177712434500455,0.7944114253133535,0.0980449914932251,-0.7501125931739807,0.3584901690483093,-0.9681959205970168,-8.345614155852795,-5.058035669240355,50,standing
1783067921824714500,0.1394811,-0.7677100270010531,1.0451888516455887,-0.0898684869736433,0.1726118922233581,-0.8804497718811035,0.0310051329433918,-1.0707374997261911,-8.351843990153073,-5.026989373591542,50,standing
1783067921844640500,0.1594071,0.1457270061872899,0.5256301402568817,-1.441101309621334,0.613577127456665,-1.4859107732772827,-0.0830209478735923,-1.183314150657505,-8.391181144285202,-4.935405899393558,50,standing
1783067921864566500,0.1793331,-0.045383886950463,0.603301408958435,-1.1907657818377018,0.9436563849449158,-1.415221095085144,-0.0216909497976303,-1.318113812378049,-8.469750238609313,-4.764062659782171,50,standing
1783067921884492300,0.1992589,-0.6466644576057792,0.3866360955864191,-0.8538800978481769,1.090141534805298,-1.1210579872131348,0.1752681583166122,-1.4385355507865547,-8.56388222824633,-4.556417103689909,50,standing
1783067921904417500,0.2191841,-1.085163134637475,-0.1456868203073739,-1.1199497858583929,1.2627840042114258,-0.9832847118377686,0.0357732884585857,-1.5593822366088628,-8.66273072501123,-4.32386623892188,50,standing
1783067921924343300,0.2391099,-1.5795155085772274,0.236488204216957,-1.3183739246189594,1.4010777473449707,-1.0775079727172852,-0.2101770043373108,-1.6258716015607118,-8.778101902031898,-4.0585540912806986,50,standing
1783067921944269300,0.2590359,-2.152824076462537,0.0035445407390594,-1.7041241772815583,1.3864789009094238,-1.0997099876403809,-0.3144204616546631,-1.6662264083027838,-8.89695566047132,-3.773360016083717,50,standing
1783067921964195600,0.2789622,-2.0821154863804576,-0.3390419852405786,-1.388737500655651,1.1505690813064575,-1.038385033607483,-0.4994679093360901,-1.668550905727595,-9.003581805500387,-3.5102480088353154,50,standing
1783067921984121600,0.2988882,-1.794689706608653,-0.725304571339488,-1.1299345887780188,0.7849708795547485,-1.460663914680481,-0.6130739450454712,-1.65251191733554,-9.087929483225942,-3.293802183432877,50,standing
1783067922004047400,0.318814,-1.9115902851536868,0.2001911484330892,-0.2949555907547473,0.471660852432251,-1.807588577270508,-0.9702539443969728,-1.6159664397485554,-9.153308256587383,-3.126657856816053,50,standing
1783067922023973400,0.33874,-1.1174848570495843,0.2558966690421104,-0.1433832195401191,0.2887805104255676,-1.889237880706787,-1.11125385761261,-1.5339438439697026,-9.209911602818964,-2.9991563892796638,50,standing
1783067922043899600,0.3586662,-0.5894971938811242,-0.1100865146160125,0.1511044614419341,0.1014547944068908,-1.557427167892456,-0.8854362964630127,-1.4476689975738524,-9.251540667280556,-2.9126664388284085,50,standing
1783067922063825400,0.378592,-0.3803879949770867,-0.4012386214345693,0.3203796626076102,-0.0758089646697044,-1.464007019996643,-0.5609691739082336,-1.4002993436336515,-9.272682239508628,-2.8682588495641945,50,standing
1783067922083750400,0.398517,0.4632094860486686,0.1163233631789684,0.6147156601592898,-0.089787945151329,-1.8965721130371092,-0.2332686483860016,-1.4192438442088662,-9.278184344056248,-2.8410230521142483,50,standing
1783067922103676700,0.4184433,0.2269146124467253,0.4321428782641887,0.2273734621301293,-0.0421836823225021,-2.2123899459838867,0.04268279671669,-1.5220280729874969,-9.277222805547714,-2.7905159769311547,50,standing
1783067922123602400,0.438369,-1.6880356506593523,-0.1939806033551692,-0.0539385109364986,-0.1464691460132599,-2.341618061065674,0.0985235795378685,-1.6638466735593973,-9.270148921638729,-2.732463308674097,50,standing
1783067922143528400,0.458295,-1.8207862708956,-0.1006657753199338,1.3435600960627196,-0.4175529479980469,-2.4059717655181885,-0.1216506883502006,-1.7947578034088014,-9.254828018388151,-2.7013720048397776,50,standing
1783067922163454500,0.4782211,-1.5543572480536996,-0.6938906114220619,2.6475638422846792,-0.4200303554534912,-1.7270050048828125,-0.3224891722202301,-1.8645625765189529,-9.23920316375494,-2.707568521392345,50,standing
1783067922183380500,0.4981471,-1.171417522767186,-1.3488999957859515,1.5882514804795385,-0.033180121332407,-1.2152960300445557,-0.2664292454719543,-1.883733287065476,-9.237510972884296,-2.700058291892707,50,standing
1783067922203306500,0.5180731,-1.0528902198031544,-1.5628782620310782,0.2731160993903875,0.3800986111164093,-0.9447702765464784,-0.0307664144784212,-1.9129270867154,-9.2532270129323,-2.624671042475104,50,standing
1783067922223232500,0.5379991,-0.4462779327310621,-0.932450945737958,0.2637058814883232,0.4401480555534363,-0.7881723642349243,0.2935593724250793,-1.9793476242147383,-9.27103797943294,-2.510065589129925,50,standing
1783067922243157200,0.5579238,-0.2350283607974648,-0.7173597498148679,0.9364534593775868,0.4172036647796631,-0.3845150172710418,0.6738067865371704,-2.0984199938409027,-9.271846957728268,-2.4082889299586414,50,standing
1783067922263082200,0.5778488,-0.4698081536613404,-0.249867910271883,-0.2669482244104146,0.4996088445186615,-0.5256106853485107,0.8375798463821411,-2.263173187537491,-9.258404707831144,-2.3087637029759582,50,standing
1783067922283008000,0.5977746,-0.7695780128300189,0.2499339612454175,-0.7071902379781008,0.7404335141181946,-0.598715603351593,0.5580967664718628,-2.422790771911293,-9.251982565829158,-2.168245809739083,50,standing
1783067922302934300,0.6177009,-1.2029948565527795,0.2390110006928443,-0.059344461633265,0.980228304862976,-0.1046539768576622,0.2271273881196975,-2.510561263692378,-9.26889103053212,-1.9887455671571197,50,standing
1783067922322860300,0.6376269,-0.9391019280597568,0.1142225915074348,-0.5250847813338041,1.276071071624756,0.3094439506530761,0.0592988021671772,-2.528749539072812,-9.30451530162096,-1.7893600360184907,50,standing
1783067922342786300,0.6575529,-1.312039168639481,-0.1243219607174396,-1.591705274195224,1.4174054861068726,0.3976867496967315,-0.1877981275320053,-2.5049171203255653,-9.352378292036056,-1.5584658524163066,50,standing
1783067922362712000,0.6774786,-0.8578037010326981,0.7502648250728845,-2.422988340310007,1.3917497396469116,-0.5578394532203674,-0.3221908807754516,-2.457567340129614,-9.406801371619103,-1.2817398919656873,50,standing
1783067922382638300,0.6974049,-0.3215432995595038,0.5181085125803947,-0.942417628479004,1.2759279012680054,-0.152415320277214,-0.4829229116439819,-2.388543196003139,-9.457010048377514,-1.014991793237254,50,standing
1783067922402564400,0.717331,-0.2424697628445923,-0.0266752409577369,-0.7603466586261988,1.3073312044143677,-0.0298246014863252,-0.460475891828537,-2.3024169642977417,-9.501798453652858,-0.7649099479537457,50,standing
1783067922422490000,0.7372566,0.1564231722466647,0.0516916087925434,-0.4910620271574705,1.0744593143463137,0.3048476278781891,-0.499282032251358,-2.2078047899283466,-9.539462706136703,-0.5427839945556595,50,standing
1783067922442415400,0.757182,0.289347249353677,0.4073854536265134,-0.8269049971610307,0.946810245513916,0.6761682629585266,-0.4075190126895904,-2.116122823791951,-9.568198386755585,-0.3767798509499058,50,standing
1783067922462341400,0.777108,-0.2862529366001486,0.9983826768070458,-1.4795160882115364,1.1083747148513794,0.7197351455688477,-0.4001614153385162,-2.037319920711964,-9.590274609485268,-0.21527939370526,50,standing
1783067922482267100,0.7970337,0.2441502632774412,0.0310053791165351,-0.8153548446208239,1.3894360065460205,0.8258110880851746,-0.2234850823879242,-1.968424225270748,-9.607063247200848,-0.0049585505642055,50,standing
1783067922502193200,0.8169598,0.9923324368573724,-1.0184288550138474,0.0528723247434012,1.0042574405670166,0.6014139652252197,0.0343750976026058,-1.9558488213360308,-9.60733680344522,0.2100414930517785,50,standing
1783067922522119200,0.8368858,1.217929390834272,0.6206885970890522,0.5376958776364102,0.4819247722625732,0.5065710544586182,-0.0353844240307807,-1.9619277028582989,-9.602836569416525,0.3267610707404091,50,standing
1783067922542045200,0.8568118,1.1323163693480194,1.3986036456316708,-0.0748643945872783,0.3997619450092315,0.5731605291366577,-0.0085974019020795,-1.9578671754211183,-9.601587446138264,0.3829686956526711,50,standing
1783067922561971200,0.8767378,1.198577916893363,0.584237227526307,-1.1131751771569252,0.4670747518539428,0.4616900980472564,-0.007990644313395,-1.9623282464832064,-9.59795756520331,0.4459409558616578,50,standing
1783067922581897200,0.8966638,0.6719257401123643,0.9572183072477578,-0.0990063542077317,0.3574643135070801,0.560594916343689,-0.1618796288967132,-1.9526736984312532,-9.596844051003456,0.5079656330222264,50,standing
1783067922601823000,0.9165896,-0.0136538468211889,0.9624041854530572,-0.0607329933822154,0.3522158861160278,0.6114158630371094,-0.371273010969162,-1.907992260661721,-9.603526889768242,0.5497491573931649,50,standing
1783067922621749200,0.9365158,0.3028418139599264,0.4798293430685996,-0.4503566168794408,0.4404040575027466,0.6502799391746521,-0.5444381237030029,-1.826302111707628,-9.61625193130672,0.6022390038913116,50,standing
1783067922641674200,0.9564408,0.8609580734103918,-0.325337285014987,-0.4476280321657657,0.3472824692726135,0.5516371726989746,-0.6322680115699768,-1.7213741488985717,-9.631848144367336,0.6593649492248892,50,standing
1783067922661600000,0.9763666,1.0952261173598468,-0.0369341846436262,0.2106172653794288,0.2221775203943252,0.4583601951599121,-0.7123708128929138,-1.5984573788039385,-9.65045464515984,0.6957379197891801,50,standing
1783067922681526300,0.9962929,1.4246303595528005,0.1014496191740036,0.3464017003536224,0.2989665269851684,0.3520420491695404,-0.7015578746795654,-1.468025410773605,-9.668679453158378,0.7293427408143878,50,standing
1783067922701452300,1.0162189,1.6542748353548349,0.1594721845537424,0.5343944614708424,0.4154373705387115,0.43888920545578,-0.6582856774330139,-1.3407842016085982,-9.682259650221466,0.7915446377053856,50,standing
1783067922721378000,1.0361446,1.5492049798570573,-0.1712105531424284,0.5240167867761105,0.2734047770500183,0.4057838022708893,-0.6501865386962891,-1.2241921044908464,-9.692600426971913,0.85160141232647,50,standing
1783067922741304000,1.0560706,1.3667138848960398,0.1202437514930963,0.7579471232037991,-0.1055938825011253,0.2953387200832367,-0.713935375213623,-1.0961689511679111,-9.706925889444353,0.8627774708572774,50,standing
1783067922761230300,1.0759969,1.5828218566462398,0.2358095743030309,0.5721650969386101,-0.4903204143047333,-0.1113702952861785,-0.976895272731781,-0.9262121244136244,-9.73001625765264,0.79956303592287,50,standing
1783067922781156400,1.095923,1.2540417377009987,-2.008911718481779,-1.0608874291021375,-0.8382513523101807,-0.5328242182731628,-0.6237300038337708,-0.7645770627375692,-9.753201318407058,0.6788624805729836,50,standing
1783067922801082000,1.1158486,0.4017258934948593,0.0608639262855052,-1.1131740081131458,-0.9748978614807128,-0.5464494824409485,-0.3715920150279999,-0.6638910483472049,-9.771147309464215,0.5042986349472776,50,standing
1783067922821007400,1.135774,-1.027775067768991,0.8285001573979854,-1.4034779736697671,-0.6398769617080688,-0.1840108782052993,-0.3217967450618744,-0.5968403962507843,-9.78236662261486,0.3456892777679488,50,standing
1783067922840933000,1.1556996,-1.948356273623556,1.4076210648238658,-0.6723018799483775,-0.0753195136785507,0.3856134116649627,-0.4718264937400818,-0.5208138260163366,-9.788974058055878,0.27411681913184,50,standing
1783067922860859100,1.1756257,-1.9799195788837969,0.7381073542892932,0.6296563319206238,0.5490238666534424,0.6589875221252441,-0.5619537830352783,-0.4235597223034128,-9.792228675937652,0.3212905303748324,50,standing
1783067922880785200,1.1955518,-1.1684127879932522,0.2382131283134222,1.4849170704722403,0.3322619795799255,0.6508030891418457,-0.4439709484577179,-0.3251201351329684,-9.792424490770696,0.4160788650287315,50,standing
1783067922900711400,1.215478,-0.0924892091323621,-0.0644786096513271,1.8112451200902464,-0.2398141324520111,0.4393631517887115,-0.3898098170757293,-0.2539219531693495,-9.79424586097896,0.4226945568414404,50,standing
1783067922920637200,1.2354038,0.1526213140119798,-1.195302840745449,1.391268480437994,-0.3455424904823303,0.024093572050333,-0.2468704432249069,-0.1963156404403038,-9.798272632277012,0.3545527850400656,50,standing
1783067922940563200,1.2553298,-0.0140904390070121,-0.76608841714859,-0.1242775005212053,-0.3012472093105316,-0.0846030637621879,-0.2022229582071304,-0.150810364733031,-9.801021638724208,0.2960615244363434,50,standing
1783067922960489200,1.2752558,-0.1443218886297196,0.2286865905553102,-0.4717921670854091,-0.3518968224525451,-0.0436612293124198,-0.2880566716194153,-0.1049744322992861,-9.803398304727674,0.2296785972673445,50,standing
1783067922980415200,1.2951818,-0.3562773803429678,0.1098351702034473,-0.8279074522018433,-0.183282658457756,0.0645631402730941,-0.34253790974617,-0.0440030772836646,-9.80500515540242,0.1741413093646988,50,standing
1783067923000341200,1.3151078,-0.1732477397921495,0.2943488570332527,-0.9362707962870598,0.0228112507611513,0.1682779490947723,-0.2874193489551544,0.0179239299223991,-9.805314952003956,0.1608485692071728,50,standing
1783067923020267300,1.3350339,-0.1809768362068571,0.3252186270713806,-0.6954477777361869,0.1242063790559768,0.2759809195995331,-0.3237281143665313,0.074285256692185,-9.804759656208754,0.1775521224551834,50,standing
1783067923040192000,1.3549586,-0.4584041681261733,0.5279734885126351,-0.3793137898743152,0.2111996263265609,0.2848246991634369,-0.4403972029685974,0.1456616036677267,-9.803411164209246,0.205733804186806,50,standing
1783067923060118300,1.3748849,-1.4365465689264236,1.550378261420131,-0.3761468502759933,0.4524212479591369,0.7488696575164795,-0.7106096148490906,0.2544095540232025,-9.79945044388473,0.2764875120522454,50,standing
1783067923080044300,1.3948109,-1.502816007517278,-0.1203793605715036,-0.6311024390757084,0.6960771083831787,0.7837359309196472,-0.8834905028343201,0.4002862526131793,-9.790567464727165,0.3936271600501612,50,standing
1783067923099970000,1.4147366,-1.3423210557870566,0.5957803658038378,-0.4924702134549617,0.8062123656272888,0.8360476493835449,-1.1228063106536863,0.5899430744851007,-9.773353879597783,0.5512777917325496,50,standing
1783067923119896000,1.4346626,-0.8417541181813925,-0.6362871482372283,-0.3574490910034626,0.7868324518203735,0.8657976388931274,-1.201982021331787,0.8082352218739688,-9.746917708092928,0.7174768733885138,50,standing
1783067923139822300,1.4545889,1.6837274320714175,-0.9130115012526512,-0.3727215520024299,0.6894091963768005,0.3091461658477783,-0.852626383304596,1.004960959218815,-9.71589713140726,0.8728096931152045,50,standing
1783067923159748400,1.474515,3.533409980975091,-1.9700825138717888,0.646544484487921,0.2464024275541305,-0.4527886807918548,-0.1065182015299797,1.10326073605977,-9.696264794698356,0.96729670673497,50,standing
1783067923179674000,1.4944406,2.171251713556796,-0.7675994062334298,1.1618774679403752,-0.1736140996217727,-0.7388821840286255,0.3371219933032989,1.0865083387013523,-9.699251117032766,0.956242082626745,50,standing
1783067923199600000,1.5143666,0.595474076333642,0.2411456746339798,0.3241524591445923,-0.2654368281364441,-0.8046317100524902,0.4487895965576172,1.0204621874723585,-9.712308167004585,0.8944959666792303,50,standing
1783067923219525000,1.5342916,-0.5615123316295445,0.3398217374414205,0.2336322302639484,-0.3606435656547546,-0.6090131998062134,0.3056970536708832,0.9593985738962888,-9.72539152046144,0.8165246921177953,50,standing
1783067923239456000,1.5542226,-1.2716791012004016,0.5831237133264541,-0.3631401422519236,-0.1457346826791763,-0.1490727663040161,0.1929015070199966,0.918983196073398,-9.73421020221114,0.7556395038485526,50,standing
1783067923259381800,1.5741484,-0.6085867289502174,-0.4443038561791181,-0.374078738765046,0.0483955442905426,0.2596271932125091,0.1966417133808136,0.8809272408582269,-9.737937698301671,0.7529608592238277,50,standing
1783067923279307800,1.5940744,-0.0391957729000598,-0.0190320327281951,-0.811447315788269,0.0702164396643638,-0.111722394824028,0.0187051147222518,0.846341153710708,-9.739883571672438,0.7673034189615399,50,standing
1783067923299233800,1.6140004,-0.4656464308720082,0.3919640126109123,-0.6409492948293686,-0.0054260357283055,-0.3519148528575897,-0.0578914247453212,0.8680220935124904,-9.737281280219554,0.7760726355463266,50,standing
1783067923319159800,1.6339264,-0.4210967297233641,0.8447609718471765,1.0501006621498614,-0.3608007133007049,-0.272219181060791,-0.1109175905585289,0.8894625025566667,-9.738922033163904,0.7298389998987317,50,standing
1783067923339085800,1.6538524,-0.3987435166832059,-0.9241828836083412,-0.1063069960772991,-0.2686543762683868,-0.318987637758255,0.1914101094007492,0.8802772525168955,-9.744678404733538,0.660864467067644,50,standing
1783067923359011800,1.6737784,-0.5599344147883355,0.0023678981751203,-0.7568892847139388,-0.1749722957611084,-0.3993861079216003,0.1556073129177093,0.848884627648443,-9.750508426061272,0.6142842099394649,50,standing
1783067923378937600,1.6937042,-0.3341724064428359,-1.847415334624052,2.153110930579901,-0.39020836353302,-0.1902415007352829,0.2135198563337326,0.810468972275406,-9.756830030298232,0.5637095494128763,50,standing
1783067923398864000,1.7136306,-1.1651023482710123,1.5381424647033213,-1.7131576708257197,-0.1692172735929489,-0.4027320742607116,-0.0477775931358337,0.8109100671064108,-9.760278124925494,0.4997460496768355,50,standing
1783067923418788900,1.7335555,-0.8193274745788425,0.0507458523750305,-0.5054676421940326,-0.0801580548286438,-0.2054521739482879,-0.0312915295362472,0.8184297220215201,-9.76102923555374,0.4720988949470222,50,standing
1783067923438714600,1.7534812,-0.0602593114558607,-0.3154676329076289,-0.2323766407122835,-0.0872671976685524,-0.1898041367530822,0.0252160113304853,0.8211666727047413,-9.761728323733806,0.4524930809188633,50,standing
1783067923458641000,1.7734076,-0.0890662306800484,-0.1987941411167383,-0.6008557693719864,-0.0206263251602649,-0.2557160854339599,-0.0295515358448028,0.8188488972816615,-9.76258114117086,0.4380502026118338,50,standing
1783067923478567000,1.7933336,-0.5323000464748591,-0.0966331588029861,-0.2425193010747432,0.0070878667756915,-0.0944987311959266,0.0149950366467237,0.8216990990810096,-9.76253964011669,0.4336063018802553,50,standing
1783067923498492700,1.8132593,-0.6078522041305899,0.0766840112298727,-0.2321884611964225,0.0605207681655883,-0.0236003547906875,-0.0044138426892459,0.8210857164230198,-9.762277189788222,0.4406342277556657,50,standing
1783067923518418700,1.8331853,-0.3176858934789895,-0.0356733709275722,-0.0270656650474295,0.0190385784953832,-0.0410419441759586,0.0027358243241906,0.8221141826879232,-9.76184990428686,0.4481461742883548,50,standing
1783067923538345000,1.8531116,-0.1257172144681215,0.0583352845907211,-0.168040690934658,-0.0151729891076684,-0.0602379292249679,0.0002720192424021,0.8218312740933149,-9.761884975600244,0.4478624985087662,50,standing
1783067923558271000,1.8730376,-0.1385628867115825,0.2583727037668228,-0.2785515319099649,-0.04512470215559,-0.0792369842529296,-0.0125908125191926,0.8228555756397545,-9.762157362800837,0.4400107255624607,50,standing
1783067923578196700,1.8929633,-0.2459092357739806,0.0799853908628225,-0.1631447721192613,-0.0702041983604431,-0.0754643827676773,-0.0289596673101186,0.8277003122571855,-9.762285957616568,0.4278534374419599,50,standing
1783067923598122800,1.9128894,-0.1666517207942903,0.0489852724432945,0.0591734524479135,-0.1054759696125984,-0.0913977324962616,-0.0255578588694334,0.8337361583553254,-9.76256009838283,0.4094912302667274,50,standing
1783067923618047700,1.9328143,-0.1281923724099993,0.1746709227293729,-0.1216670622944831,-0.0844563022255897,-0.1831251233816146,-0.1189124882221221,0.8466025811258703,-9.762401108428834,0.3862256881546229,50,standing
1783067923637973800,1.9527404,-0.2293837790392339,-0.3421083870738745,-0.1993886364111676,-0.0729031860828399,-0.0667754188179969,-0.0095825679600238,0.8563651926621794,-9.76231927536428,0.3662343819402158,50,standing
1783067923657899800,1.9726664,-0.3012657237496227,-0.0264385095924139,-0.4729974512219428,-0.0087499227374792,-0.0143021801486611,-0.03199128434062,0.859862971650064,-9.762254977956411,0.359722040904127,50,standing
1783067923677826000,1.9925926,-0.3070302055604755,0.1210287643909454,-0.1511678820669651,-0.0023846323601901,0.032337948679924,-0.041677888482809,0.8680215820558369,-9.761581024217604,0.3584159632742404,50,standing
1783067923697751800,2.0125184,-0.0860326351378113,0.1328366910845041,-0.1349941613793373,-0.008602513000369,0.0057070599868893,-0.020747723057866,0.8735754898559301,-9.761118667402863,0.3575053877679631,50,standing
1783067923717677800,2.0324444,-0.2874889812011271,0.1538064138770103,-0.0433399600327014,-0.044823870062828,-0.0182100087404251,-0.0469520688056945,0.8802034566283226,-9.760690212857725,0.3529407102009281,50,standing
1783067923737603800,2.0523704,-0.3161442900601774,0.0999070659071207,-0.1308253877947107,-0.045634739100933,-0.0504180751740932,-0.0757525861263275,0.8925481936123222,-9.75991162970066,0.3433106024704873,50,standing
1783067923757529900,2.0722965,-0.2469011694207787,0.0348076940089464,-0.2540110014259815,-0.0487263910472393,-0.0668873563408851,-0.1435521095991134,0.9301465412531048,-9.75661317267716,0.3372096917795017,50,standing
1783067923777455900,2.0922225,-0.0335187501769512,0.3345096025079488,-0.2158020110735669,-0.0664826780557632,0.0089407637715339,-0.1649064570665359,0.9503482022825628,-9.755093415763971,0.3245884394090622,50,standing
1783067923797382000,2.1121486,-0.2736426805477589,-0.2877566191613674,-0.229664532209374,-0.0354619622230529,-0.0752105414867401,-0.1358460336923599,0.9922023076716808,-9.751279994955658,0.3137608655223622,50,standing
1783067923817307000,2.1320736,-0.10415580939278,0.1091688152492046,-0.5474176091730595,0.0634426325559616,-0.0189652331173419,-0.0544750578701496,1.0085655595820398,-9.749571437472104,0.3147305873373523,50,standing
1783067923837233000,2.1519996,-0.3828518278073519,-0.2305307571172714,0.0918377046873793,-0.0081783328205347,0.4848401844501495,0.1098654419183731,1.0150705575618892,-9.7485005933702,0.326698271169886,50,standing
1783067923857159000,2.1719256,-0.023990020461753,1.1331091271609066,-1.413573835748434,-0.1066465154290199,-0.1637283116579055,0.0380934886634349,0.9899004604700952,-9.751784437346458,0.3052085796238854,50,standing
1783067923877084700,2.1918513,-0.5674117649316788,-0.0923275705635547,0.1147544881607405,-0.0159280691295862,-0.0363628938794136,-0.0194627474993467,0.9826561884302646,-9.752928346684577,0.2918105707272887,50,standing
1783067923897010700,2.2117773,-0.5810549442283809,-0.0310994871407747,-0.1063046579897403,0.0051165390759706,0.0254285205155611,-0.071222499012947,0.9945034972861408,-9.751758133861422,0.29080804262124,50,standing
1783067923916937000,2.2317036,-0.0076074793290346,-0.0750976188212633,-0.2592646841704845,0.0109935589134693,0.0160465165972709,-0.0319047681987285,1.0041938473038374,-9.750705994459986,0.2927833247495815,50,standing
1783067923936863000,2.2516296,-0.2266148988477885,0.0456429762780666,-0.1412286353221163,0.0113435359671711,0.0355096645653247,-0.0415387824177742,1.0107160156141966,-9.749942024350164,0.2958042617396451,50,standing
1783067923956788700,2.2715553,-0.0687003189995884,0.0624351211249828,-0.0729658674895763,-0.0082265604287385,0.0337076298892498,-0.0059413146227598,1.015906423864141,-9.74937503811717,0.2966746696323156,50,standing
1783067923976714800,2.2914814,-0.1038623063389211,0.0677665452808141,-0.1081353805482387,-0.0236379075795412,0.0234972406178712,0.0103739518672227,1.014257560678571,-9.74961936826706,0.2942842490981333,50,standing
1783067923996641000,2.3114076,-0.2898953116904944,-0.001076104798913,-0.1063034524133428,-0.0147317349910736,0.0330028161406517,-0.0022000204771757,1.0136925472069531,-9.749760238042471,0.2915547328026965,50,standing
1783067924016565800,2.3313324,-0.1376795280057937,0.1189233165442943,-0.0268377015104517,-0.0229195486754179,0.0419690832495689,0.0057955323718488,1.013209366799891,-9.749899938774108,0.2885537243558094,50,standing
1783067924036491800,2.3512584,-0.1340142104312777,-0.0035164836883544,-0.1362193192601203,-0.0062438924796879,0.0255948882550001,0.0047200266271829,1.011489045813307,-9.750161804580689,0.2857066643616184,50,standing
1783067924056418000,2.3711846,-0.1883827833481133,-0.0072685296982526,-0.1506056085417047,0.0119809415191411,0.0357143357396125,0.004171413835138,1.0095938066512349,-9.750299167224764,0.2876740189118311,50,standing
1783067924076343800,2.3911104,-0.1874813775289803,0.0218821614623069,-0.1063070143436081,0.0144635904580354,0.0358834154903888,-0.0053877900354564,1.0091412405781448,-9.75027111017406,0.2902113188371062,50,standing
1783067924096269800,2.4110364,-0.218657437037304,0.0374146616369485,-0.1760533352647908,0.0261542592197656,0.0245426744222641,-0.0128581682220101,1.010838838276267,-9.749942024350164,0.2953147246570326,50,standing
1783067924116195800,2.4309624,-0.2868729681946337,-0.0294061272263526,-0.0559948224117979,0.0152514837682247,0.0051179062575101,-0.0245456881821155,1.0145607814088464,-9.74941244751811,0.3000543386658653,50,standing
1783067924136121900,2.4508885,-0.1821297143027186,0.0809165342330932,-0.0408300230383872,0.0135982977226376,0.0321456864476203,-0.017042675986886,1.0177062398277223,-9.74900211315155,0.3026955921559594,50,standing
1783067924156048000,2.4708146,-0.2108745280761271,-0.0046060324907302,-0.1924596773982048,0.0237923823297023,0.035357691347599,-0.0223064422607421,1.021311863104254,-9.748473705363272,0.3075312504177913,50,standing
1783067924175974000,2.4907406,-0.275766175507754,0.045118075621128,-0.1058697371711954,0.0145146176218986,0.0385882295668125,-0.0238947160542011,1.0253010788708925,-9.747920747655629,0.3117708972815424,50,standing
1783067924195899000,2.5106656,-0.3048033232912421,-0.0856307032734155,-0.179255400975421,0.0361602641642093,0.0534020513296127,-0.019032971933484,1.028899395623803,-9.747353761422634,0.3175206199146807,50,standing
1783067924215825000,2.5305916,-0.3517128854390233,-0.0130178870052099,-0.1430137651732191,0.0454894416034221,0.0824298486113548,-0.0269665885716676,1.0327139124106617,-9.746647074458002,0.3267683772640302,50,standing
1783067924235751000,2.5505176,-0.2627182586904615,0.0620125117987394,-0.2070387858381494,0.0591636039316654,0.0684968307614326,-0.0258444193750619,1.036793656004965,-9.74581120815575,0.3385705683365464,50,standing
1783067924255672800,2.5704394,-0.2950756369378418,0.0849848065853118,-0.1781763005018234,0.0306796580553054,0.0585774630308151,-0.0274666361510753,1.04086952714175,-9.74498995490074,0.3495108818827196,50,standing
1783067924275599000,2.5903656,-0.4945330642689019,0.1030851114213466,-0.2247989354670047,0.0208983700722455,0.0244890190660953,-0.053706057369709,1.0486412571217865,-9.743936646455523,0.3555819819573312,50,standing
1783067924295524900,2.6102915,-0.3056272068947553,0.0481155038714408,-0.0768763554641976,0.0010921366047114,-0.0018978139851242,-0.0308281444013118,1.0569576153725384,-9.742985629341003,0.3569980958329513,50,standing
1783067924315451000,2.6302176,-0.283840249435231,0.0099696053504943,-0.1182406315097585,-0.0021730603184551,-0.0037645059637725,-0.0200351141393184,1.0612073817715049,-9.74254840696752,0.3563143513524904,50,standing
1783067924335377000,2.6501436,-0.2722853476546704,0.0589735824942588,-0.1687234125018119,0.0223080851137638,0.0121084079146385,-0.0277337599545717,1.0655142121199517,-9.742022921788692,0.3578655263172462,50,standing
1783067924355303200,2.6700698,-0.2173174936704337,0.0199298583507537,-0.2495440851449966,0.0431423597037792,0.0201302878558635,-0.0320481359958648,1.07114958765842,-9.741136786603928,0.3650640229865908,50,standing
1783067924375229000,2.6899956,-0.1818647797562181,0.0359352367341518,-0.2837012062907219,0.0594022460281848,-0.0165136978030204,-0.0292775016278028,1.077296273719892,-9.740083478158711,0.3749800349863246,50,standing
1783067924395155000,2.7099216,-0.2031286631897091,0.0647533349394798,-0.295584499775432,0.0836938247084617,-0.0297758150845766,-0.0295112133026123,1.08374596131593,-9.738825587052109,0.3888086538525298,50,standing
1783067924415080200,2.7298468,-0.1170141949873417,0.0925420900970697,-0.0777542342772707,0.0579765513539314,0.003995147999376,-0.0223991777747869,1.0886113023299724,-9.73773428468406,0.4023182333648205,50,standing
1783067924435006000,2.7497726,-0.0283493116497993,0.0140267717868089,-0.0758896459817886,0.0261810589581727,-0.0056526837870478,0.0060849543660879,1.089130357768014,-9.737329211014508,0.4106291482554748,50,standing
1783067924454932000,2.7696986,-0.1231632191363722,0.0327934315770864,-0.1285574428627267,0.0119287436828017,-0.0223622806370258,0.0112828528508543,1.0877269937761127,-9.737390001291036,0.4128689630715176,50,standing
1783067924474858000,2.7896246,-0.2574479901373386,-0.0050724809587001,-0.2393897708773613,0.0157119370996952,-0.0301029179245233,-0.004044019151479,1.087188502985239,-9.73738298702836,0.4144660230046137,50,standing
1783067924494784000,2.8095506,-0.2775705945812166,0.0645516748875379,-0.2299613962640985,0.0245335027575492,-0.0179342590272426,-0.0099900923669338,1.0895043787121772,-9.736977328836918,0.4179056785970926,50,standing
1783067924514710000,2.8294766,-0.237362941224873,0.010352467188239,-0.2377729467978701,0.0498483031988143,-0.0434445366263389,-0.015192637220025,1.0923925013691187,-9.736348967805505,0.4249699544275179,50,standing
1783067924534636000,2.8494026,-0.2784855905342847,-0.0461199461400508,-0.1234977848529815,0.0330579280853271,-0.011143903248012,-0.0126428361982107,1.0950579211860894,-9.735690211635829,0.4330972563795745,50,standing
1783067924554561800,2.8693284,0.1301996936444193,-0.8026555220454931,1.046620345753431,-0.0922042578458786,0.0404629707336425,0.0962372496724128,1.0851568510271608,-9.736769823566078,0.4337439933178946,50,standing
1783067924574487800,2.8892544,-0.4900207014109939,0.9759569099873304,-0.7809925562918185,-0.0067866211757063,-0.0437093824148178,0.023285187780857,1.0788447452709078,-9.737987967184186,0.4220126755245029,50,standing
1783067924594414000,2.9091806,-0.6044706719335168,0.0831879862964153,-0.3810836856236681,0.0329589210450649,-0.0219050012528896,-0.0390899181365966,1.0819645577918735,-9.737508074712752,0.4250776160530746,50,standing
1783067924614340000,2.9291066,-0.2598351044695824,0.00076455463171,-0.204559280514717,0.0210011303424835,-0.0273038391023874,-0.0310949943959712,1.0892763421099632,-9.73648633044958,0.4297631435208022,50,standing
1783067924634264800,2.9490314,-0.232135269704461,-0.0820399853050708,-0.2223240697860717,0.0272616706788539,-0.0336671806871891,-0.0331175178289413,1.0947959092490374,-9.73568319737315,0.4339116415023803,50,standing
1783067924654191000,2.9689576,-0.2691725493963807,0.0330827699124813,-0.189700697546266,0.0363098792731761,-0.0161908268928527,-0.0412510186433792,1.1028037860725075,-9.734538703513143,0.4392958918239921,50,standing
1783067924674116900,2.9888835,-0.1970443017747253,0.0419260015815496,-0.2270189861366525,0.037432812154293,-0.009252649731934,-0.032769177109003,1.110132886851579,-9.73335446216464,0.4469860810004174,50,standing
1783067924694043000,3.0088096,-0.2093248144160956,0.0747018975019454,-0.153745660133101,0.0250335037708282,-0.0393864139914512,-0.0231690723448991,1.1156795611932873,-9.732461897239087,0.4525717721782624,50,standing
1783067924713969000,3.0287356,-0.264755244410783,0.0702373193085193,-0.1903682580769062,0.0155618712306022,-0.0415709093213081,-0.0238640960305929,1.1205326272476464,-9.731738259139656,0.4561251903435215,50,standing
1783067924733895200,3.0486618,-0.2651438053369522,0.006809095492959,-0.1955191380340606,0.0153084658086299,-0.0310904439538717,-0.0161397773772478,1.1248114736106245,-9.73115665985942,0.4579837507570162,50,standing
1783067924753821000,3.0685876,-0.1846217503141611,-0.0222182615488767,-0.2500912341663613,0.0306063387542963,-0.0036499055568128,-0.0034625383559614,1.127039378793165,-9.730711254179475,0.4619786290794611,50,standing
1783067924773747000,3.0885136,-0.1293899846967309,0.014478022685647,-0.1827916853427887,0.0216436311602592,0.018612366169691,0.000283375266008,1.1270238889630884,-9.730447634807229,0.4675520818302408,50,standing
1783067924793673000,3.1084396,-0.0609005319688469,0.099262922784686,-0.2588216165781021,0.0298228748142719,-0.0249456390738487,0.012001609429717,1.1257217933885753,-9.73038801357448,0.4719052720710635,50,standing
1783067924813599000,3.1283656,-0.2083452287942171,0.0156546652495861,-0.129369891756773,0.0104855243116617,-0.0377057828009128,0.0014678307343274,1.124127436869219,-9.73042717654109,0.4748834476316347,50,standing
1783067924833525000,3.1482916,-0.2328777586348354,0.0211246210932731,-0.0807119515717029,0.0018621233757585,-0.038887333124876,-0.0041825682856142,1.1247178770430386,-9.730360541045664,0.4748567788204177,50,standing
1783067924853451000,3.1682176,-0.2365853809811174,0.0045937575310468,-0.0698129564166069,0.0052704368717968,-0.0118999248370528,0.0010694514494389,1.1240861550107597,-9.730439451500771,0.4747324948536232,50,standing
1783067924873376800,3.1881434,-0.2083268163546919,0.0923743323147296,-0.1321182406168431,0.0092881051823496,-0.013515162281692,0.0111375320702791,1.1230617073338478,-9.730533559525012,0.4752379236251115,50,standing
1783067924893302000,3.2080686,-0.139658207667619,0.04584171372056,-0.1531809754550457,0.0053923241794109,-0.0144588630646467,0.0263277012854814,1.1199340768326074,-9.73083634186387,0.4763983822392299,50,standing
1783067924913228000,3.2279946,-0.2872732926238328,0.0847603501796722,-0.1301168376665562,0.0239515211433172,-0.0437969341874122,-0.0925582945346832,1.1192585887238382,-9.730850370389222,0.4777250277331099,50,standing
1783067924933153800,3.2479204,-0.3397325247880071,-0.38905893881917,-0.1904745679955929,0.0117350369691848,-0.0036556236445903,-0.0533675737679004,1.1435859513811766,-9.727641345214844,0.4854104676691815,50,standing
1783067924953080000,3.2678466,-0.2826184525553137,0.1760936490088701,-0.3400070674130693,0.0327682718634605,0.0059510725550353,-0.0128934420645236,1.1460274993143975,-9.7271620372653,0.4891952469049021,50,standing
1783067924973006000,3.2877726,-0.2843848777059465,-0.0040770401805639,-0.0796784438055008,0.0170442294329404,-0.0151729024946689,-0.0395497307181358,1.1504875474631786,-9.726408588549496,0.4937260222023352,50,standing
1783067924992931800,3.3076984,-0.2322810348507016,0.0133335288256406,-0.1286765757303684,0.0097553273662924,-0.0237665772438049,-0.0497968345880508,1.15913635253869,-9.725264094689487,0.4960371852215379,50,standing
1783067925012857900,3.3276245,-0.141995491508767,0.0473532873272895,-0.0892775353431701,-0.0022610793821513,-0.0382108092308044,-0.045712761580944,1.168659090904519,-9.724117847263813,0.4961423626290634,50,standing
1783067925032784000,3.3475506,-0.0644652387131005,0.1123357548475265,-0.0856032307446002,-0.012954450212419,-0.0589802861213684,-0.0183931346982717,1.1755244466293602,-9.723409406733513,0.4938142484750598,50,standing
1783067925052710100,3.3674767,-0.0775586021073162,0.0324123233050107,-0.1070048421483486,-0.011001843959093,-0.0407043136656284,-0.0057236808352172,1.1781434700213371,-9.723243987038732,0.4908256611183285,50,standing
1783067925072636000,3.3874026,-0.0571416908919811,0.0230015208810567,-0.1415011321205645,0.0018884693272411,0.0022151113953441,0.0200427584350109,1.1771790089033545,-9.723407653167843,0.4898577659342438,50,standing
1783067925092562000,3.4073286,-0.0368297744210809,0.0467389548212289,-0.0929378114163875,0.0226494707167148,0.0292027238756418,0.0388022996485233,1.170783608777821,-9.72410264969468,0.4914228963591158,50,standing
1783067925112488000,3.4272546,-0.1306070323362946,0.0075660513401031,-0.0310428615827113,0.0043679913505911,0.0374829769134521,0.0485373064875602,1.161609903045371,-9.725030870455504,0.494769832166843,50,standing
1783067925132414000,3.4471806,-0.2392464168839156,0.0721563046723604,-0.0970318027317524,0.0137939685955643,0.0186379179358482,0.0363855995237827,1.1536818865250795,-9.72587667362988,0.4967131482543424,50,standing
1783067925152340000,3.4671066,-0.2784474504809826,0.1441547884345054,-0.1643009198844432,0.0119191035628318,0.0048011979088187,0.0143348928540945,1.1496376526355745,-9.726198745191097,0.4997877699267118,50,standing
1783067925172266000,3.4870326,-0.3088525256168097,0.0344406142622232,-0.0482605018327012,-0.0018284427933394,0.0178049281239509,0.007530665025115,1.1471222357485442,-9.726467625260351,0.5003155931930989,50,standing
1783067925192191700,3.5069583,-0.2760984031368046,0.0206400524467229,-0.1368541465649381,0.0062038227915763,0.0241353269666433,0.0095696737989783,1.1459417937923222,-9.72658277607262,0.5007721047889441,50,standing
1783067925212117000,3.5268836,-0.1594562563322484,0.0228664963245391,-0.1884580405414104,0.0208563283085823,0.0341176055371761,0.0324758775532245,1.1407795887235552,-9.7270147377491,0.5041930191483348,50,standing
1783067925232043000,3.5468096,-0.2213797746732831,-0.0024099837511777,-0.1504360606610774,0.0384142436087131,0.0289364587515592,0.0316971987485885,1.1341690845426171,-9.727475925520062,0.5101643851755187,50,standing
1783067925251972000,3.5667386,-0.2358963027384132,0.0502536849439144,-0.1491699862480163,0.0435160361230373,0.0390724763274192,0.0220490954816341,1.127886058750376,-9.727766432899235,0.5184753365987912,50,standing
1783067925271898400,3.586665,-0.2720809111237526,0.0843640443384647,-0.1063841529667377,0.0333359614014625,0.0282796286046504,0.0101183420047163,1.124267137600854,-9.72775941863656,0.5264167605899274,50,standing
1783067925291824000,3.6065906,-0.2350703002430498,-0.0083335285812616,-0.0143779963772743,0.0262122303247451,-0.0059315590187907,0.0141417263075709,1.1221221614614127,-9.727688691487907,0.5322735968593507,50,standing
1783067925311750100,3.6265167,-0.183606947248429,-0.0070218614608049,-0.0185842889606952,0.0283624697476625,-0.0057672560214996,0.0265676528215408,1.118692187012732,-9.727802088734506,0.5373773862717672,50,standing
1783067925331676200,3.6464428,-0.1354044957458972,0.053939679980278,-0.1326362000763416,0.0312297940254211,0.0207241009920835,0.0369130298495292,1.1117897872131317,-9.728310038256645,0.5424940351657569,50,standing
1783067925351602400,3.666369,-0.1802958499390631,-0.0250800807207822,-0.2684977919399738,0.0487953647971153,0.0307992286980152,0.0215455517172813,1.1050561681091784,-9.72859820754826,0.5510136974362656,50,standing
1783067925371528200,3.6862948,-0.2212804059520363,0.0687643241465091,-0.1934884359240531,0.0558773651719093,0.0219036135822534,0.0247801672667264,1.1007004571177064,-9.72847019725442,0.5618964355763048,50,standing
1783067925391454200,3.7062208,-0.1532882352218031,0.0979693758428096,-0.0493312363367527,0.0422712974250316,0.0225837677717208,0.0452253706753253,1.09391021245569,-9.728646722865104,0.5720158977262676,50,standing
1783067925411380200,3.7261468,-0.1533200916647911,0.0636146862983703,-0.0903273366570472,0.0328872837126255,0.0061068711802363,0.0476208291947841,1.0842155515890568,-9.72930606355667,0.5791929132161662,50,standing
1783067925431306200,3.7460728,-0.3032046559229493,0.0287298353999853,-0.1003682536780834,0.0382417328655719,0.0226944796741008,0.0289644990116357,1.0763820084191855,-9.72973568714559,0.5865404264347628,50,standing
1783067925451232300,3.7659989,-0.2345545327406376,0.2144996597707271,-0.0897334989497438,0.07123614102602,-0.0363086238503456,-0.1350694447755813,1.0818025721631943,-9.728607559898496,0.5952088860588148,50,standing
1783067925471158300,3.7859249,-0.1194832885146141,-0.4407388571739196,-0.0491360790908336,0.0175373926758766,0.0374871455132961,0.0218646861612796,1.0891349608778953,-9.727285955905916,0.6033938730148598,50,standing
1783067925491084000,3.8058506,-0.1570993910077959,0.0195779761731624,-0.2562941439270973,0.031686894595623,-0.0247396156191825,0.0195851121097803,1.0845534052412955,-9.727317520087956,0.6110846832457929,50,standing
1783067925511010000,3.8257766,-0.3447992335930466,0.0292284325718879,-0.1135830514948815,0.0129769556224346,-0.0336887277662754,-0.0059666475281119,1.0838593585625291,-9.727242701286077,0.6135222125910222,50,standing
1783067925530936300,3.8457029,-0.3206611098974943,-0.0137041157037019,-0.2852969510495662,0.0244433004409074,-0.0300986319780349,-0.0248824581503868,1.0871048432897776,-9.726656425830722,0.6170441761720925,50,standing
1783067925550862300,3.8656289,-0.3303029445983469,0.0606885697185993,-0.2080593245249241,0.0330433845520019,-0.0160021912306547,-0.0333688594400882,1.093454796838388,-9.72563234347999,0.621957009589672,50,standing
1783067925570788000,3.8855546,-0.1435212397713214,0.0478004465728998,-0.1862334963597357,0.0458762794733047,-0.003012825269252,-0.0097145978361368,1.0973111069403587,-9.724712890547512,0.6294602248266339,50,standing
1783067925590714000,3.9054806,-0.1622420876584947,0.0666764119565486,-0.1421990512568503,0.0426344498991966,0.0005203582113608,-0.0076370979659259,1.0986740658566354,-9.723987498882412,0.6382472693290561,50,standing
1783067925610640400,3.925407,-0.1875302581720054,0.0891460179179906,-0.1837222441911697,0.0287009589374065,-0.0078890109434723,-0.0018571780528873,1.0998707282952964,-9.72341349838674,0.6449057773701846,50,standing
1783067925630566100,3.9453327,-0.1848421881318092,0.0903700067549943,-0.1393020877063274,0.008620579726994,0.0024018655531108,0.0050524491816759,1.098828525765985,-9.723290748789903,0.6485187802355736,50,standing
1783067925650492200,3.9652588,-0.165646927665919,0.0394201562404632,-0.1692085656702518,-0.002492157742381,0.0327474251389503,0.0154179446399211,1.096392749986425,-9.723516958761214,0.6492456332053989,50,standing
1783067925670418200,3.9851848,-0.1659605967249721,0.0225274736285209,-0.2788836499411612,0.0206042099744081,0.0591759942471981,0.0278214402496814,1.0910201170373708,-9.723981653663516,0.651330988112092,50,standing
1783067925690344200,4.0051108,-0.2129294147793203,-0.0009404957205057,-0.2119862156450748,0.0327754914760589,0.0746967941522598,0.0234486199915409,1.0848675857570025,-9.72415701023042,0.6589543956626206,50,standing
1783067925710270200,4.0250368,-0.1897553138103336,-0.0145715461879968,-0.1795348024386912,0.0361313149333,0.0541934221982955,0.0257880557328462,1.0790515929546207,-9.72429203478694,0.66645534587726,50,standing
1783067925730196200,4.0449628,-0.2725771702080964,0.0571031124472618,-0.1828174773711711,0.0234793331474065,0.0384859405457973,0.0197617653757333,1.0734376985955982,-9.72443991882503,0.6733297616913915,50,standing
1783067925750122200,4.0648888,-0.3050252224136143,0.0210422035068273,-0.0953868850689381,0.001886160694994,0.0478988699615001,0.0259700082242488,1.069224684010446,-9.724742701163889,0.675681439384073,50,standing
1783067925770048300,4.0848149,-0.1718099803403019,0.0358721083700656,-0.1413047327656298,0.0008089758921414,0.0479222312569618,0.0453094728291034,1.0614055346921083,-9.725504917708038,0.6770080848779529,50,standing
1783067925789974300,4.1047409,-0.2271536088343709,0.0651847120940685,-0.1370809775907546,0.0005231786053627,0.0420212261378765,0.0351759083569049,1.0525544850427655,-9.726386376717686,0.6781705527860671,50,standing
1783067925809900300,4.1246669,-0.2771460855588317,0.0619336013436317,-0.1804887421626597,-0.0020801634527742,0.0265739224851131,0.0152307599782943,1.0473306859798728,-9.726876206061243,0.67923065629825,50,standing
1783067925829825300,4.1445919,-0.2549891257431358,0.1330973878473043,-0.1061806662838906,-0.0179533809423446,0.0214031152427196,0.0135664027184247,1.0447765445176511,-9.727263159552216,0.6776465289119631,50,standing
1783067925849751300,4.1645179,-0.1725524692706763,0.0470826536923646,-0.0822445679664611,-0.0292659141123294,0.0156932510435581,0.0267494358122348,1.0404504980120808,-9.728037066534162,0.6731633190833032,50,standing
1783067925869677300,4.1844439,-0.2503192342359572,0.0370925900757312,-0.1155902996640652,-0.0229701828211545,0.0065623060800135,0.0218660030514001,1.0362161483779548,-9.72882207943201,0.6683518271483481,50,standing
1783067925889603000,4.2043696,-0.2792361166406423,0.0217862998723983,-0.1095406442362815,-0.0212611928582191,0.0228038430213928,0.0131197292357683,1.0325115947715937,-9.729525259265303,0.6637984746929257,50,standing
1783067925909529000,4.2242956,-0.2343608367994427,0.0097369656383991,-0.1571100585322827,-0.0155699150636792,0.031302947551012,0.010912325233221,1.029535355439782,-9.730047237312792,0.6607904519833624,50,standing
1783067925929455400,4.244222,-0.2051748551297932,-0.0226215816527605,-0.1013010775487869,-0.0122651774436235,0.0357213802635669,0.0099987117573618,1.0269847211088985,-9.730459325245022,0.6587007862277329,50,standing
1783067925949381000,4.2641476,-0.1640625080186873,0.0315162512481212,-0.1347358027040958,-0.0088539123535156,0.0289401300251483,0.0119040934368968,1.0240299629565328,-9.73087608935237,0.6571202390380203,50,standing
1783067925969307100,4.2840737,-0.2226031789883971,0.0458569112896919,-0.1476828894954174,-0.0138077633455395,0.0131402630358934,-0.0043423837050795,1.0224163172148168,-9.7311519836843,0.6555527705255896,50,standing
1783067925989233200,4.3039998,-0.2835978920467197,0.107577162143588,-0.0886274739366024,-0.0326209031045436,0.0057923542335629,-0.0155810052528977,1.0243041037227958,-9.731221541789171,0.6515641392808407,50,standing
1783067926009159200,4.3239258,-0.2213988446999341,0.1290256083637476,0.0546316808324307,-0.0821797549724578,-0.0122259818017482,-0.008859540335834,1.0262992230627686,-9.731718385395409,0.6408841937039047,50,standing
1783067926029085200,4.3438518,-0.2895014170020819,0.1367167473882436,0.117612818467617,-0.1190581023693084,-0.0402962788939476,-0.0204241964966058,1.028561541971564,-9.732826638898253,0.6201007141984999,50,standing
1783067926049011200,4.3637778,-0.1975952867209911,0.0136135148108005,0.1775472818832844,-0.1576711237430572,-0.0853661447763443,-0.0019819017034024,1.0304779700521378,-9.734370361208915,0.5920393161119892,50,standing
1783067926068937200,4.3837038,-0.3026927608780562,0.1009855087935924,0.0972364584583789,-0.193161204457283,-0.0983906611800193,-0.0274430066347122,1.032774775752425,-9.73630162153244,0.5551840419234708,50,standing
1783067926088863200,4.4036298,-0.4527613764662295,0.1423889478057622,0.0409259576935321,-0.226926252245903,-0.1133779287338256,-0.0647095218300819,1.0423337544754148,-9.737602182736993,0.5128828503539785,50,standing
1783067926108789200,4.4235558,-0.4799554536662995,0.1675976233422756,0.2622866623401642,-0.2735088169574737,-0.1720924973487854,-0.0790924727916717,1.0584545028667895,-9.738418759816884,0.4618098118511959,50,standing
1783067926128715300,4.4434819,-0.3094420159425586,-0.172167999997735,0.3852525322735309,-0.3065014481544494,-0.2137655615806579,-0.0661341995000839,1.074539010901004,-9.73937796023786,0.4003444125412032,50,standing
1783067926148641000,4.4634076,-0.163551197495684,-0.4692366373836993,0.0750771605551242,-0.2465240508317947,-0.166944608092308,-0.0523328073322773,1.087264052439481,-9.74023779193759,0.34061657761354,50,standing
1783067926168567300,4.4833339,-0.2103263196088373,-0.5639817904829979,-0.2592517881562933,-0.1210465803742408,-0.0882705524563789,-0.0567537732422351,1.0975278914961963,-9.74036404866576,0.3018988340213894,50,standing
1783067926188493300,4.5032599,-0.2658917741600424,0.1239209787011146,-0.0556990908682346,0.0807520896196365,-0.1612268239259719,0.1080173030495643,1.1028148919884115,-9.739932671511172,0.2964656117252074,50,standing
1783067926208419000,4.5231856,0.3006236995190381,-0.5651823984444141,-0.1419756908297538,0.1445984840393066,0.0431379713118076,0.0099980691447854,1.0811297874681651,-9.74170611092448,0.3173508163057267,50,standing
1783067926228345000,4.5431116,-0.521099876416102,-0.0642436318516731,0.0340788317451253,0.1048927456140518,0.0750550180673599,-0.0686803981661796,1.0886755266726016,-9.74001333553195,0.3425591995812952,50,standing
1783067926248267500,4.5630341,-0.1151364184167236,0.0045090018570423,-0.0117418757200241,0.0748586878180503,0.1706867516040802,-0.0493928790092468,1.099302865279466,-9.738135266700386,0.3614444442499429,50,standing
1783067926268193500,4.5829601,0.4019200278274715,0.4790606967836618,0.102616324865818,0.1964140832424163,0.1313452869653701,0.0016161197563633,1.1040328164108095,-9.736540690985322,0.388942874691449,50,standing
1783067926288119300,4.6028859,0.7203130466625094,1.6885557290107012,0.3816705456009134,0.438902199268341,0.0396804809570312,0.135836973786354,1.0937434045214205,-9.734868373858928,0.4543545274091884,50,standing
1783067926308045300,4.6228119,1.1810609649032353,1.4607950211286544,1.2114051766972989,0.4100705981254577,-0.0637716352939605,0.3397285938262939,1.0464443315993994,-9.735454064792394,0.5442923898246139,50,standing
1783067926327971600,4.6427382,0.902035933730006,1.339602006086707,1.4911374062918126,0.1783312410116195,-0.3919829726219177,0.3255304396152496,0.9842956262003628,-9.73875895155668,0.5984018003486097,50,standing
1783067926347897300,4.6626639,0.693292791659385,-0.6232990718483925,0.9246317964196205,-0.1675194054841995,-0.6775947213172913,0.4931637644767761,0.915461013296619,-9.746137955892085,0.5874558607792482,50,standing
1783067926367823400,4.68259,0.569996228466928,0.7266881346523761,-0.1004242947142571,0.0222859382629394,-0.7749201655387878,0.5410898923873901,0.8207356608763337,-9.756420280453565,0.5559210874937475,50,standing
1783067926387749400,4.702516,-0.2670626445703208,-0.1246633215010166,-0.3081704981693998,-0.0372010096907615,-0.5838267207145691,0.7126986384391785,0.7068474158897996,-9.765633514478802,0.5505830144014209,50,standing
1783067926407675400,4.722442,-0.9509360121078788,-0.4200952975958585,-1.1257353835225106,-0.1697653830051422,-0.6029925346374512,0.6230425238609314,0.5781885584792122,-9.775761525261402,0.5201519645741209,50,standing
1783067926427601400,4.742368,-1.6136767213761805,-0.7260720485806464,-1.6262158849537371,-0.1755437403917312,-0.3410369753837585,0.4214825332164764,0.4794237579423934,-9.783125332027671,0.4805899887101724,50,standing
1783067926447527400,4.762294,-1.859283320941776,-0.6567343084603547,-1.6032909364402292,-0.0943707823753357,0.0116147631779313,0.1343318074941635,0.4238098611395806,-9.787220492386815,0.4483880202202126,50,standing
1783067926467453400,4.78222,-1.1538065358180551,-0.1328477970004081,-1.1014321323931218,0.2808263301849365,0.332675576210022,-0.3321137130260467,0.4404841517604887,-9.785731130611897,0.4645746369220316,50,standing
1783067926487379200,4.8021458,-0.0127055696530267,-0.1339531278938055,-0.9713386025369168,0.5315403938293457,0.3090992569923401,-0.5788121819496155,0.5317984901608899,-9.776545369115471,0.5538500168407335,50,standing
1783067926507305500,4.8220721,-0.1628456065095961,-0.6064227558493613,-0.1777366669755428,0.4572210311889648,0.1827652156352996,-0.5711991786956787,0.64153622787185,-9.763763628953695,0.6540335250690579,50,standing
1783067926527232500,4.8419991,-0.3490053069807589,-0.1243850890815257,0.5030465525269509,0.5352714657783508,0.1538754105567932,-0.6278266310691833,0.7534757499434054,-9.74885364459157,0.7500185221616178,50,standing
1783067926547158500,4.8619251,-0.1723578965466469,-0.3297697145044803,0.5527203917562962,0.5078492760658264,0.000904640473891,-0.5821177959442139,0.872512171473354,-9.729917473453282,0.8589603967871516,50,standing
1783067926567084300,4.8818509,-0.2715356983311474,-0.039013913527131,1.130840524641797,0.2960562705993652,-0.1903949677944183,-0.4826501607894897,0.9776753312777728,-9.713017776578663,0.9337100058883429,50,standing
1783067926587010300,4.9017769,-0.0732337246455252,0.3691232352495193,1.019339540117979,0.325034350156784,-0.3284249901771545,-0.396613746881485,1.067425964025408,-9.698578916859626,0.9841578982301056,50,standing
1783067926606936600,4.9217032,0.3011786299880594,0.4777350011378526,0.98953959126845,0.3811497986316681,-0.4777699410915375,-0.2347248494625091,1.1368389613389969,-9.684339379104973,1.0447836318455637,50,standing
1783067926626862300,4.9416289,0.5073367970667779,0.2684258957475424,1.1386205840587615,0.2452814579010009,-0.6801880598068237,-0.1378407031297683,1.184914790787175,-9.672850016841291,1.0965169608879834,50,standing
1783067926646788400,4.961555,0.8280882155962288,0.032654315367341,0.8001940273027867,-0.0623311698436737,-0.9475306272506714,-0.0387959666550159,1.220749635886773,-9.668567224955558,1.0949656397927552,50,standing
1783067926666714400,4.981481,0.827772573775798,-0.4496884718269109,-0.0057505994159728,-0.2895458340644836,-1.0674220323562622,0.167578712105751,1.2312407078281045,-9.673893388414385,1.0345087599381804,50,standing
1783067926686640400,5.001407,0.5201993473798037,-0.5171884751260281,-0.8873428069889545,-0.3974486589431762,-1.114194393157959,0.26750048995018,1.208114902980253,-9.68630045004487,0.941511400354281,50,standing
1783067926706566400,5.021333,-0.0191791130486875,-0.7783423340439796,-1.4506769472181795,-0.5516031384468079,-1.0862549543380735,0.3069755434989929,1.1725859089594333,-9.701377607667446,0.823844513611868,50,standing
1783067926726492400,5.041259,-0.3621358605802059,-0.8772627270013094,-1.8820692993760109,-0.6265997290611267,-0.9752410054206848,0.3502241373062134,1.1245396709319204,-9.717978613856436,0.6831728180527686,50,standing
1783067926746418400,5.061185,-0.4239173401020467,-0.5734919616281986,-2.254569902104139,-0.5981462597846985,-0.9341440796852112,0.4017837643623352,1.0621215740069747,-9.733844876030089,0.5427160073533653,50,standing
1783067926766344200,5.0811108,-0.666118149812147,-0.1639046140432357,-1.8993162022531032,-0.48865607380867,-0.7630412578582764,0.0639955177903175,1.0188142010696233,-9.744350487953424,0.4243376113407313,50,standing
1783067926786270500,5.1010371,-1.6209315148100256,-0.5534323394179343,-1.2935107015192508,-0.8787037134170532,-0.7502610087394714,0.2160107940435409,0.9935006769191472,-9.752407537680863,0.2717844489278271,50,standing
1783067926806196500,5.1209631,-0.7681137124311178,0.6001140110939741,-0.9101976128757,-0.884242832660675,-0.4570490717887878,0.1393412351608276,0.968029331858456,-9.75838310495913,0.0850954456192441,50,standing
1783067926826122200,5.1408888,-0.9171357415758072,0.4467985956043004,-1.4145429730415344,-0.6051274538040161,-0.4318024516105652,0.2401283532381057,0.926862185820192,-9.762487617668508,-0.0718072903052903,50,standing
1783067926846048300,5.1608149,-0.8328506076924502,0.5329974541544914,-0.5917676230311394,-0.4748612344264984,-0.0453954637050628,0.2832499742507934,0.876544861055538,-9.76578841277957,-0.1773699525550007,50,standing
1783067926865974500,5.1807411,-0.4404881703484803,0.4434516232639551,-0.1297446068206802,-0.4218056797981262,0.3177915215492248,0.348084956407547,0.8148815280206501,-9.769166949301958,-0.2641014018782414,50,standing
1783067926885900300,5.2006669,-0.011901961652562,0.2496779406577348,-0.4338707249701022,-0.2888181507587433,0.1122368201613426,0.3027229011058807,0.750363390076533,-9.77246540632546,-0.3259886250631884,50,standing
1783067926905826300,5.2205929,-0.4235838703639805,-0.4642945048063993,0.0618406988957896,-0.3975141048431396,-0.0738996565341949,0.1646802425384521,0.7047528547633439,-9.773609900185464,-0.3876016892155632,50,standing
1783067926925752300,5.2405189,-0.1891748105086386,-0.1332026017874479,0.3887614171773195,-0.6044946908950806,-0.2738301455974579,0.1346798986196518,0.6784897748030722,-9.77101111586392,-0.487222887386009,50,standing
1783067926945678600,5.2604452,0.1994909642744809,-0.4525444457799196,0.7110919946569949,-0.6530115604400635,-0.2452398091554641,0.341834545135498,0.6299501272354274,-9.766805480867625,-0.6189150115452706,50,standing
1783067926965604400,5.280371,0.1845552974818274,0.1854372314155101,0.1339561235684901,-0.2650133371353149,-0.1727567464113235,0.545669436454773,0.5413366452915593,-9.765535314801337,-0.7152985795013607,50,standing
1783067926985530400,5.300297,0.5274467977574094,0.120419692581892,-0.5301105005413294,0.1336945593357086,-0.1275217980146408,0.8772668838500977,0.4007553314296528,-9.771596222275496,-0.7250497197955846,50,standing
1783067927005456400,5.320223,0.1445931615854613,0.0489408487796783,0.3218652249902486,0.1013662293553352,-0.0611971393227577,1.0316145420074463,0.2109457301488146,-9.779425308465957,-0.6991017701990903,50,standing
1783067927025382400,5.340149,-0.6971779625296592,-0.3001671879231929,1.2254501417279242,0.0368620306253433,0.1077138856053352,1.27093505859375,-0.0086625099447002,-9.782264915806056,-0.691094185636565,50,standing
1783067927045308400,5.360075,-0.139499857034441,-0.1440291162282228,0.4135007947016507,-0.1197091192007064,0.3972540199756622,1.392982840538025,-0.2640726141751743,-9.778290166956186,-0.6969139778312295,50,standing
1783067927065234400,5.380001,0.0788355632405728,0.0304366393178701,0.8645014451056718,-0.2904872298240661,1.134263038635254,1.760067105293274,-0.5552816570790484,-9.762866387853023,-0.7406018014535307,50,standing
1783067927085160200,5.3999268,0.3675824355483055,-0.1229991876810789,-0.116377650649473,-0.3818290829658508,1.045885443687439,2.081164598464966,-0.9197449011608958,-9.728391286799312,-0.8263393991675227,50,standing
1783067927105086200,5.4198528,-0.1147685349524021,0.2051286048352718,-1.9008090711593624,-0.5400078296661377,-0.0206948295235633,1.3756204843521118,-1.257408145394176,-9.681678050941228,-0.9243487416945396,50,standing
1783067927125012500,5.4397791,-1.7404541124217212,0.2718950331628322,0.251075021039322,-0.8365590572357178,-0.3347651362419128,0.577660858631134,-1.4444323537401853,-9.643099021700024,-1.0462493204839527,50,standing
1783067927144938500,5.4597051,-1.3032862456023693,0.4290875823467969,2.191620401716232,-1.332621932029724,-0.0078960694372653,0.3634898066520691,-1.5302514191925525,-9.606062545725704,-1.245910599824041,50,standing
1783067927164864300,5.4796309,-0.3807300864130258,0.0058323594152927,1.4010089532077312,-1.7036054134368896,0.3548190295696258,0.4052881598472595,-1.598825919855386,-9.550616552835702,-1.549150180929899,50,standing
1783067927184790300,5.4995569,-0.026022330006957,-0.1036053359031677,0.1163438214451074,-1.4559919834136963,0.2920641601085663,0.3160411119461059,-1.6572510746866465,-9.483526299381255,-1.8672538614295424,50,standing
1783067927204716500,5.5194831,0.1757481965720653,0.1782464431285858,-0.8461474577695131,-1.2979673147201538,-0.1761419922113418,0.2481952905654907,-1.706091824092716,-9.420762676954268,-2.123410496582091,50,standing
1783067927224642300,5.5394089,0.0853679606840014,0.2300759990870952,0.3578556990429758,-1.2937357425689695,-0.1725804358720779,0.3273545205593109,-1.768790856850892,-9.353030618464944,-2.3585098767891526,50,standing
1783067927244568600,5.5593352,-0.2387557107575237,0.125662269410491,1.0918903970658778,-1.2463053464889526,0.2325108647346496,0.2610386312007904,-1.8257943083159625,-9.278994491395354,-2.5955986772477626,50,standing
1783067927264494600,5.5792612,-0.6047654901616275,0.2469482234328985,2.094296922561526,-1.152307152748108,1.042574167251587,0.1946897059679031,-1.833129911901057,-9.206797270190716,-2.836349507345259,50,standing
1783067927284420600,5.5991872,-0.5206541054099798,0.7290490185648203,0.9698734984204171,-1.2906349897384644,1.0969001054763794,0.07895477861166,-1.7860094104163349,-9.130301475009322,-3.101311234113574,50,standing
1783067927304346600,5.6191132,-0.20940745119825,0.0902192001074552,-2.408946517084539,-1.2365385293960571,-0.1334197521209716,0.1601072251796722,-1.7747870285257696,-9.043335723739862,-3.352400210613012,50,standing
1783067927324272600,5.6390392,0.4846642158791422,-0.0768050072610378,-0.7259212419331074,-0.8859713077545166,-0.385486900806427,0.2060165107250213,-1.834694676999748,-8.962652998262643,-3.5320167730510232,50,standing
1783067927344199700,5.6589663,-0.1650055610224604,0.4463941064566373,0.3695315237894654,-0.5619722604751587,-0.0176243968307971,0.2042191177606582,-1.884730335278809,-8.90406052404046,-3.651832362259924,50,standing
1783067927364125400,5.678892,-0.8739211614884436,0.1761672987669706,0.0936971053510904,-0.4908469021320343,0.2676528096199035,0.2395907789468765,-1.9160719606123864,-8.857542518493533,-3.747398184092343,50,standing
1783067927384051500,5.6988181,-0.5103105521805584,0.5731412484943866,-0.0139832249060273,-0.3311615288257599,0.2762517929077148,0.1103178858757019,-1.9244427524641157,-8.818471906343103,-3.834247030983865,50,standing
1783067927403977700,5.7187443,-0.1676686427518725,0.5706698899447917,-0.7241729369610548,-0.1446602493524551,0.0888375490903854,-0.0041957404464483,-1.9166335400179024,-8.798942445486784,-3.882719677729905,50,standing
1783067927423903500,5.7386701,-0.3470616255670786,0.0103051209151744,-0.4336816321387887,0.0643300563097,0.1657261252403259,0.0879111438989639,-1.9147104630008336,-8.794181514695286,-3.8944358344867824,50,standing
1783067927443829500,5.7585961,-0.2642407190173864,-0.3539081304609775,-0.4669786293238401,0.1089083775877952,0.1090940758585929,0.26047283411026,-1.92795017606318,-8.79688025225997,-3.8817891188815232,50,standing
1783067927463755500,5.7785221,0.0424491486728191,-0.4233253655582666,-0.2761187883377075,-0.1517030894756317,-0.1833661645650863,0.4582429528236389,-1.9961175572298464,-8.781631829723715,-3.8818613073349,50,standing
1783067927483681800,5.7984484,0.3489788573652506,0.0137403560608625,0.4973135618329047,-0.2817882597446441,-0.0922832414507865,0.5166385769844055,-2.096895706883073,-8.74299960899055,-3.9157849119856953,50,standing
1783067927503607600,5.8183742,-0.1715761715844273,0.0566325723260641,0.5550321758300065,-0.3406233787536621,0.0988651514053344,0.4346242547035217,-2.1804276843115686,-8.69790491424501,-3.970210914178193,50,standing
1783067927523533600,5.8383002,-0.4150929592639207,0.396222254577279,-0.209537068927288,-0.3593744337558746,-0.1432894170284271,0.1777734160423278,-2.2354379161328075,-8.656068344512581,-4.030594363470375,50,standing
1783067927543459600,5.8582262,-0.6456567418679595,0.0766132840812206,-0.0705114600747823,-0.328492671251297,-0.1043992787599563,0.0792408660054206,-2.267488128127157,-8.622267197197676,-4.084774866469204,50,standing
1783067927563385600,5.8781522,-0.4560223510235547,0.2474988430529832,-0.1900111152023076,-0.1299653202295303,0.0019816106650978,0.1647446453571319,-2.2937184017963705,-8.596528944829107,-4.124190638795495,50,standing
1783067927583311600,5.8980782,-0.1964062230668962,0.1363736330389976,-0.1459381647199392,0.1780402511358261,0.2320552319288253,0.1294760704040527,-2.311370378343016,-8.590898245465755,-4.126066077278554,50,standing
1783067927603237600,5.9180042,-0.3066447133742273,0.7523316944748163,-0.462187595655024,0.3283515572547912,0.1220383197069168,-0.1007150709629058,-2.299144518498331,-8.612495160245896,-4.087693384264409,50,standing
1783067927623163400,5.93793,-0.4237051586560905,0.8045102100014686,0.0291299406334757,0.3724273443222046,0.2038912028074264,-0.2834180295467376,-2.2548079486437143,-8.648812089774012,-4.035377213832736,50,standing
1783067927643089400,5.957856,-0.7217080081522464,0.5417267040550708,-0.1875564155265688,0.4869872033596039,0.2733802795410156,-0.513176679611206,-2.166596873488277,-8.700716464534402,-3.971620488715172,50,standing
1783067927663015700,5.9777823,-0.5855569318227469,0.1775134526789188,-0.1790858165621757,0.5379106402397156,0.3062260150909424,-0.5754522085189819,-2.045521055085212,-8.765514807659388,-3.892553381741047,50,standing
1783067927682941700,5.9977083,-0.0730593909919262,0.006408113476634,0.1874690295040607,0.3883785307407379,0.2409025579690933,-0.4876282513141632,-1.9295405139945447,-8.823055727002025,-3.821118961602449,50,standing
1783067927702867500,6.0176341,-0.0155604110948741,-0.1113759699046611,0.3411442182168364,0.1798367798328399,0.1830094009637832,-0.2986636459827423,-1.8460808711498973,-8.859397790971398,-3.778020409110188,50,standing
1783067927722793500,6.0375601,0.038031039969623,-0.0781453159540891,0.2541945412993431,0.0031941214110702,0.1343148201704025,-0.17620150744915,-1.7934296235449612,-8.873774691370128,-3.769630766427517,50,standing
1783067927742719700,6.0574863,0.2106919380508363,0.3341150502324104,0.0633195027440786,-0.0274910647422075,0.1161975860595703,-0.0731474533677101,-1.75974041217193,-8.877374761688708,-3.777025552853942,50,standing
1783067927762645500,6.0774121,0.2105620280608534,0.1290840605527162,0.0659901832580566,0.011724816635251,-0.0455596819519996,0.0755400359630584,-1.7617055747650563,-8.875402000311016,-3.780743404333293,50,standing
1783067927782571500,6.0973381,-0.3196976716928184,0.4083645277917385,0.1659299823909998,0.0832927227020263,-0.1169629991054534,-0.0742404088377952,-1.7713382032461464,-8.87890036382079,-3.768006672357023,50,standing
1783067927802497500,6.1172641,-0.8892055321209132,0.0803881264448165,0.6619663638949393,0.0251742154359817,0.0933418646454811,-0.1772719770669937,-1.7489052760332822,-8.88835675895214,-3.756172442178428,50,standing
1783067927822423600,6.1371902,-0.1701652818731963,0.3662590779900551,0.3780643743351101,-0.0526283532381057,0.1332269012928009,-0.1482401192188263,-1.7086844709344209,-8.892459518095851,-3.764961605572701,50,standing
1783067927842349600,6.1571162,0.1661132300034165,0.1704611960798502,-0.2094169496789574,0.0561513677239418,0.0340204387903213,-0.0811829045414924,-1.6838874449387191,-8.894781823563575,-3.7706440351232886,50,standing
1783067927862275600,6.1770422,-0.4063780301496386,0.1166226383864879,-0.4052712379515171,0.2567713856697082,0.0498895905911922,-0.1611153185367584,-1.662361841829121,-8.910375114014744,-3.7432811041623353,50,standing
1783067927882201600,6.1969682,-0.6712098469279706,0.3422977721661329,-0.2299643554061651,0.366036057472229,0.0364145301282405,-0.3126640319824219,-1.616449839351326,-8.941821222636102,-3.6879973160967223,50,standing
1783067927902127600,6.2168942,-0.6036553369626403,0.2586900991529226,-0.1479120951414108,0.4256225526332855,0.0779160559177398,-0.390996903181076,-1.5484328264407812,-8.98211348553598,-3.6186163213565945,50,standing
1783067927922054700,6.2368213,-0.1867297554440796,0.11790566393435,0.0605289952427148,0.3952739834785461,0.153752714395523,-0.3028804957866668,-1.4746964129701257,-9.02313873888552,-3.546636542294919,50,standing
1783067927941980700,6.2567473,0.331519773042202,0.0074111530393362,-0.0269143104106187,0.2533507347106933,0.06806281208992,-0.1197914332151413,-1.4270168162979184,-9.05225611229837,-3.491514959053695,50,standing
1783067927961906700,6.2766733,0.1357756671458482,-0.0410930578887462,0.0723038964495062,0.0819532796740531,-0.0375915840268135,-0.0069611892104148,-1.41787065615952,-9.06540200959742,-3.4609967789322136,50,standing
1783067927981832400,6.296599,-0.3637792438730597,0.2583803025513887,0.2479050857663154,-0.0324465744197368,-0.0352554284036159,-0.0528796426951885,-1.4167586032643913,-9.06754603588879,-3.455835742907226,50,standing
1783067928001758500,6.3165251,-0.3349462403595447,0.1368862587362527,0.2018114431113004,-0.1037498638033866,-0.0090831192210316,-0.0259465407580137,-1.409079885330051,-9.06411606144011,-3.4679514203757047,50,standing
1783067928021684700,6.3364513,-0.1899476945772767,0.0609486819595098,-0.0094067107707262,-0.0743243694305419,0.0031677200458943,0.0249973684549331,-1.410127202425897,-9.0568621447891,-3.4864266960039734,50,standing
1783067928041610500,6.3563771,-0.2867695078201592,0.5375713379412889,-0.3123790192425251,0.1053533554077148,-0.0721891671419143,-0.0553924962878227,-1.4119167161911723,-9.057487583211064,-3.484076918007433,50,standing
1783067928061536500,6.3763031,-0.5555429018311202,0.48902328787148,-0.1711389492109417,0.290432333946228,-0.010921218432486,-0.1446123719215393,-1.3954324682496486,-9.07463161023557,-3.445901208870113,50,standing
1783067928081462500,6.3962291,-0.5086366276189684,0.4066220680385827,-0.2373749239236116,0.3470593094825744,-0.0060829757712781,-0.2277818918228149,-1.3630305202081798,-9.101913584914804,-3.386398926326632,50,standing
1783067928101388800,6.4161554,-0.4654711473703384,0.2771761884361505,-0.0068698857694864,0.3381884396076202,0.0741278454661369,-0.2422895282506942,-1.316862204881757,-9.131532478109,-3.324362449130416,50,standing
1783067928121314600,6.4360812,-0.1018818731114268,0.1536293037444353,-0.0043184477210044,0.3261185586452484,0.0504354611039161,-0.1881449371576309,-1.272240242214501,-9.15882029800713,-3.2661613123133777,50,standing
1783067928141240600,6.4560072,0.0186914025969803,0.1463642811775207,-0.1678334779247641,0.3292640149593353,-0.010707520879805,-0.1216143742203712,-1.243774318447709,-9.183726191204784,-3.2066435399398205,50,standing
1783067928161166600,6.4759332,-0.1053200308665633,-0.0081347911387681,0.0924684403389692,0.26764976978302,0.0170768611133098,-0.0496059134602546,-1.2278013810291886,-9.20550138516128,-3.1498639603585,50,standing
1783067928181092600,6.4958592,-0.0647708705961704,-0.1026993269741535,0.1731970507845282,0.0753876864910125,0.0068761236034333,-0.0098175229504704,-1.2228606366913766,-9.217178963473438,-3.1174662501007315,50,standing
1783067928201018600,6.5157852,-0.141014371516928,0.050155485266447,0.1027571946412324,-0.0236663557589054,-0.056919477880001,-0.0497669763863086,-1.2203886205546557,-9.218152192419767,-3.1155604164794086,50,standing
1783067928220944600,6.5357112,-0.1100410680390894,0.2121931363940238,-0.1057736198529601,0.0556411482393741,-0.0835595056414604,-0.0907645672559738,-1.2106602766141294,-9.220674988895654,-3.1118840660542246,50,standing
1783067928240874800,6.5556414,-0.1271753043219447,0.0103606504946947,0.0221206463932991,0.1034713983535766,-0.0642735585570335,-0.0461416505277156,-1.2022050944145768,-9.227737766888737,-3.0941803593203425,50,standing
1783067928260800500,6.5755671,-0.2400167436692863,0.0450292282938957,0.0500011714875698,0.0916910022497177,-0.0518071614205837,-0.0283866357058286,-1.1994969314344226,-9.234723387992382,-3.0743267810761927,50,standing
1783067928280726800,6.5954934,-0.3408690545372664,-0.0133697691828012,0.0070870356515049,0.1110574752092361,-0.0500931069254875,-0.0752903521060943,-1.1941134848304091,-9.241565801233053,-3.055803282392025,50,standing
1783067928300652800,6.6154194,-0.3245799638416617,0.0661328065991401,-0.1384238435670733,0.1546172797679901,-0.0669517889618873,-0.1376351416110992,-1.177482156568393,-9.252384132367371,-3.02940393576622,50,standing
1783067928320578800,6.6353454,-0.1741656035557389,-0.0261596926510334,0.0704372257947921,0.1117455288767814,-0.0469395481050014,-0.0906715393066406,-1.1582076933864502,-9.263941299170256,-3.0013892628982664,50,standing
1783067928340504600,6.6552712,-0.1279608286764472,-0.0282610488444566,0.1539358854755759,0.0331597030162811,-0.0619427934288978,-0.0470713526010513,-1.1499446727581322,-9.2693229922086,-2.9879230476036667,50,standing
1783067928360430600,6.6751972,-0.3263380595553666,0.0267582430660724,0.0493596587136387,0.0073036453686654,-0.03461454808712,-0.0647841840982437,-1.1429537909574805,-9.271819485199453,-2.9828555350810286,50,standing
1783067928380356900,6.6951235,-0.1491595379192382,0.1658516564577817,-0.0159136084467172,0.0029428228735923,-0.0104259476065635,-0.0495797246694564,-1.132935597224906,-9.273394771692155,-2.981776799933612,50,standing
1783067928400282600,6.7150492,-0.1192258066222071,0.1077425818383693,-0.1322641518935561,0.0519797503948211,-0.0381304211914539,-0.0130083421245217,-1.1286021711304783,-9.27543942926228,-2.977055032108724,50,standing
1783067928420208600,6.7349752,-0.343291094052419,0.2756359732568263,-0.1610258437365293,0.1045097261667251,-0.0795997381210327,-0.100216194987297,-1.123157057467103,-9.281423764368892,-2.9604142784312364,50,standing
1783067928440134700,6.7549013,-0.3919424583662301,0.2145370691716671,0.1660968633905053,0.0936132371425628,0.0160105489194393,-0.0857461914420127,-1.1063786488845944,-9.289757877472043,-2.9405276747003195,50,standing
1783067928460060700,6.7748273,-0.0569913226358592,0.101737788465619,-0.0753688369780778,0.0583647415041923,0.0052233962342143,0.0080128666013479,-1.097313225832209,-9.29502325065434,-2.927259612326324,50,standing
1783067928479986700,6.7947533,-0.0476161760471761,0.0976999112516641,-0.0978685458168387,0.0664266198873519,0.0018697095802053,0.0864579156041145,-1.1071370660364628,-9.297119930672643,-2.9168796726092694,50,standing
1783067928499913700,6.8146803,-0.368202978599444,0.1995762314051389,-0.2281888701662421,0.1049042344093322,-0.0388201959431171,0.017728378996253,-1.120242046803236,-9.300833982759714,-2.899984944170713,50,standing
1783067928519839700,6.8346063,-0.4939223850246518,0.2414537176698446,0.1085296405628323,0.0413927659392356,-0.0036223863717168,-0.05450139939785,-1.1163277959689497,-9.305900618499518,-2.885204723668098,50,standing
1783067928539765500,6.8545321,-0.2039397603768855,0.0416635512530803,-0.0502840800821781,-0.0496824271976947,0.0310955215245485,0.0095180058851838,-1.109579125426337,-9.306026875227689,-2.8874013569295403,50,standing
1783067928559691800,6.8744584,0.0071038406558334,-0.06040741468966,-0.2414548867136239,-0.0437959991395473,0.0155687276273965,0.0671213418245315,-1.1169658746767788,-9.301818902143836,-2.8980916777700183,50,standing
1783067928579617800,6.8943844,-0.1278043229404837,0.150060213086009,-0.3081245766684413,0.0386413931846618,-0.0243829805403947,0.0254969019442796,-1.1261585773706435,-9.300548736077548,-2.898608979642391,50,standing
1783067928599543800,6.9143104,-0.3160813078265637,0.0021767595171928,-0.1425695650696754,0.0312382970005273,-0.0078995805233716,-0.0024454819504171,-1.12926816075854,-9.302902021205425,-2.889836475121975,50,standing
1783067928619469600,6.9342362,-0.283831554672122,0.0870750568628311,-0.0336973946794867,-0.0179160386323928,-0.0494077950716018,-0.0482590869069099,-1.1266524983674286,-9.303703400716184,-2.8882758016765115,50,standing
1783067928639395800,6.9541624,-0.3174133601479232,-0.0078927990764379,-0.0901668853983283,-0.0251340437680482,-0.0377910248935222,-0.10067730396986,-1.1146184347677974,-9.304054698371887,-2.891811574587226,50,standing
1783067928659321900,6.9740885,-0.1585552889045327,0.1032236431092023,-0.09128273768574,0.0053926035761833,0.013821929693222,-0.0937615409493446,-1.0963055100943893,-9.305786052209138,-2.8932392693027853,50,standing
1783067928679247600,6.9940142,-0.0648260348495095,0.0799853908628225,-0.060847559672594,0.0216359384357929,0.0008076733793132,-0.017674583941698,-1.0858872111283242,-9.30768750191629,-2.891053741957247,50,standing
1783067928699173600,7.0139402,-0.1433642225787043,0.1701905624449253,-0.0141653034746646,0.027854299172759,-0.0346710868179798,-0.0146477334201335,-1.084262751731649,-9.30945684967637,-2.885961387254297,50,standing
1783067928719099600,7.0338662,-0.2969190728474408,0.0321305837541818,0.1726686429962515,-0.0425266809761524,-0.0412283353507518,-0.0383845530450344,-1.0816919513955712,-9.30996070754528,-2.885299416214228,50,standing
1783067928739025700,7.0537923,-0.2811318672593683,0.029084640187025,0.1835267216190695,-0.1161826476454734,-0.0417980961501598,-0.0676992908120155,-1.0739861993238329,-9.306315629041194,-2.89989785040915,50,standing
1783067928758951700,7.0737183,-0.0912764540754258,0.2158896528244018,-0.0335977336972951,-0.0856671035289764,-0.0474554300308227,-0.0491036176681518,-1.0639257008194922,-9.3014354557842,-2.9192008090332147,50,standing
1783067928778877700,7.0936443,-0.0919171631317585,0.0434469275385141,-0.2224368825107812,-0.0033611052203923,-0.0522128567099571,-0.0027878649998456,-1.0634347024321555,-9.299280908098815,-2.926237575802207,50,standing
1783067928798803700,7.1135703,-0.2882754554037005,0.1315098263949155,-0.1460650059700012,0.0053046592511236,-0.022949855774641,-8.97711724974e-05,-1.0660944962259382,-9.299805808755757,-2.923601089818776,50,standing
1783067928818729700,7.1334963,-0.4368249716658145,0.0581716184616088,-0.0432850149750709,-0.0363449454307556,-0.024120956659317,-0.0479980856180191,-1.064189758583158,-9.299041838645934,-2.926722144448757,50,standing
1783067928838655700,7.1534223,-0.4477170986887067,0.1445271288782358,-0.1676475999638438,0.0059364642947912,-0.0553651489317417,-0.1070828586816787,-1.0518013285879044,-9.299654417586328,-2.9292519551873206,50,standing
1783067928858581800,7.1733484,-0.2804389165591448,-0.0071329206198453,-0.0627706366896629,0.0071801990270614,-0.015537635423243,-0.0654376670718193,-1.0365215610653162,-9.302271322086453,-2.9263907205373045,50,standing
1783067928878507500,7.1932741,-0.0523812715571373,0.0700163700342178,-0.0530631894066929,-0.0203927159309387,0.0122571196407079,0.0382447242736816,-1.033838021069765,-9.302057387074829,-2.928016860434413,50,standing
1783067928898433800,7.2132004,-0.1399769912932068,0.1608054789841175,-0.2492380879357457,0.001885610865429,-0.0404693819582462,0.0351874381303787,-1.0439555835235863,-9.300220234775542,-2.9302614244908094,50,standing
1783067928918359800,7.2331264,-0.3681014179211109,0.2866945428878069,-0.1035965680748224,0.0654089450836181,-0.0337001904845237,-0.0391467064619064,-1.045824226939678,-9.302210531809925,-2.9232728807777164,50,standing
1783067928938285600,7.2530522,-0.2558787680592387,0.1558884808480739,-0.1096191893652081,0.0814936235547065,0.0037388391792774,-0.0664629116654396,-1.0357928814645856,-9.308172655084729,-2.9078227981895206,50,standing
1783067928958211600,7.2729782,-0.1064168131273239,0.0033463878184556,-0.0009597849428653,0.0508766509592533,0.0274337194859981,-0.0288252849131822,-1.02589078839235,-9.312900268128514,-2.896173861449957,50,standing
1783067928978137900,7.2929045,-0.00590491319485,0.0263110838204622,-0.1254825289294123,0.07261274009943,0.0135912355035543,-0.0049142958596348,-1.0218059302315117,-9.31656112872362,-2.8858240246102214,50,standing
1783067928998063900,7.3128305,-0.1109248651362955,-0.0931973391354084,-0.0643561523154377,0.0596548803150653,0.0366989374160766,0.0040785162709653,-1.020634986755997,-9.320505482435228,-2.873479214560985,50,standing
1783067929017989600,7.3327562,-0.4164861671879887,-0.1030927102059125,0.1044596146449446,-0.0181501694023609,-0.0461152531206607,-0.0826244205236435,-1.0146477290399372,-9.322579366099834,-2.868864121980965,50,standing
1783067929037915600,7.3526822,-0.4610402522508054,0.0691483550280332,0.2124146701902151,-0.0984181314706802,-0.038387008011341,-0.1313598603010177,-0.995532182746753,-9.321390448576212,-2.8794056820005176,50,standing
1783067929057841700,7.3726083,-0.0880733471851795,0.0695662881791591,-0.0470849917799234,-0.0950973704457283,-0.0241047926247119,-0.0298512540757656,-0.9806383458018302,-9.317319838136434,-2.897633412608504,50,standing
1783067929077767700,7.3925343,-0.0671625880382955,0.0349234293431043,-0.1483876036986708,-0.047328520566225,-0.045602910220623,0.0357540100812912,-0.9846402749195694,-9.312605669096111,-2.911402410241961,50,standing
1783067929097693700,7.4124603,-0.3357943816214799,0.2533253572493791,-0.1234647593662142,0.0043864012695848,-0.0803356543183326,-0.0195428319275379,-0.991042323981598,-9.311337841117382,-2.9132804790735243,50,standing
1783067929117619700,7.4323863,-0.5809650009226054,0.1547252822875976,0.0483577881947159,-0.0141794774681329,-0.0183338914066553,-0.085638515651226,-0.9839450591970236,-9.312546047863364,-2.911822681480646,50,standing
1783067929137545500,7.4523121,-0.3397549558155238,0.3586322363734245,-0.100695293675363,-0.025975028052926,0.0033867249730974,-0.0912181660532951,-0.9656832071237266,-9.31324455152154,-2.915699522913992,50,standing
1783067929157471700,7.4722383,0.0341935076333582,0.176483525109291,-0.1409624221339821,-0.009697725996375,0.0262757465243339,0.0184516888111829,-0.9582057839151472,-9.312756475743653,-2.919724832907319,50,standing
1783067929177397800,7.4921644,-0.0101974227569997,0.112077396172285,-0.16975275554955,0.0420330315828323,0.0070400796830654,0.0718075037002563,-0.9672355511322616,-9.312545463341474,-2.9174206476181745,50,standing
1783067929197323800,7.5120904,-0.3804568224295973,0.1277455054253339,-0.1199994213432073,0.0528363697230815,-0.0109713654965162,-0.0146934231743216,-0.9739131292000412,-9.315195101067424,-2.906720097644627,50,standing
1783067929217249500,7.5320161,-0.4282792616385966,0.2599818925291299,0.1014420203894376,0.0159056801348924,0.0686700418591499,-0.0486147329211235,-0.964547700287774,-9.31799496091902,-2.900862311527133,50,standing
1783067929237175800,7.5519424,-0.0145946348026394,0.1260702656894922,-0.1775561227768659,0.035872358828783,0.0536049008369445,0.019023498520255,-0.9574511661555616,-9.319355727878213,-2.8988433729201555,50,standing
1783067929257098000,7.5718646,0.0240848591383546,0.1175432603627443,-0.1737389025762677,0.0914298295974731,0.0006075407145544,0.0685911923646926,-0.9653053137220442,-9.322050373789668,-2.887547195141017,50,standing
1783067929277024000,7.5917906,-0.2725220059547573,0.0352320569008588,0.0126344406455755,0.0793535932898521,-0.0051466100849211,0.0522683523595333,-0.9778498110618442,-9.326081236740944,-2.87026375964582,50,standing
1783067929296950000,7.6117166,-0.4565048007782548,0.0459679704487323,0.1365054427251219,0.0181191116571426,-0.0007368350634351,-0.0418349876999855,-0.9791183696929364,-9.329037163937093,-2.8602093986213206,50,standing
1783067929316876000,7.6316426,-0.2461692749496549,0.0582090278625488,0.2948161822840571,-0.0630727559328079,0.0719886049628257,-0.0129102626815438,-0.9700852414749562,-9.328559025031328,-2.864842611379921,50,standing
1783067929336802000,7.6515686,0.0121052291397005,0.1523357568025589,0.1542994580909609,-0.0822992026805877,0.1089453101158142,0.0570396743714809,-0.9697858201369642,-9.323473684591054,-2.8814444943517445,50,standing
1783067929356728000,7.6714946,-0.1856890142194926,0.2973825256407261,0.1369084705680608,-0.0504666045308113,0.1246764957904815,0.0349475182592868,-0.9726557495500892,-9.318733796587583,-2.8957769710868595,50,standing
1783067929376653800,7.6914204,-0.4051549911607056,0.2213940954595804,-0.0108902273267507,-0.0569146685302257,0.1667036116123199,0.0049840197898447,-0.9676204587966204,-9.315469826355576,-2.907941163872182,50,standing
1783067929396580000,7.7113466,-0.2645184399802238,0.1825058541387319,-0.069068567790091,-0.0289512351155281,0.1722720116376876,-0.0049845743924379,-0.9577215075295418,-9.31264366301894,-2.920241550257802,50,standing
1783067929416506000,7.7312726,-0.1684871195279061,0.1340343764364719,-0.0468356931939721,0.0128130111843347,0.1814590990543365,-0.0159557275474071,-0.9458641156710684,-9.312654768934843,-2.924068707330525,50,standing
1783067929436432000,7.7511986,-0.1428071001525968,0.0664578007698059,-0.1732791761100292,-0.0536598786711692,0.0671358630061149,0.0045574395917356,-0.9378756742004304,-9.311817149066924,-2.929306900244951,50,standing
1783067929456358000,7.7711246,-0.075936919189617,0.068535191565752,-0.1690826012030243,-0.1175104901194572,-0.0088033806532621,0.0290918108075857,-0.9386060343015938,-9.306261853027344,-2.9466709997609257,50,standing
1783067929476284000,7.7910506,-0.084556498170644,-0.0135153151333332,-0.3129433751270175,-0.1059546321630477,-0.05232435464859,0.0787250474095344,-0.9507858630474656,-9.298432182314992,-2.96741188223362,50,standing
1783067929496210200,7.8109768,-0.2339320899933576,-0.0830079535543918,-0.4331745593994855,-0.073388822376728,-0.1216476708650589,0.0570177212357521,-0.9699023591887204,-9.291787921994924,-2.9820047634705897,50,standing
1783067929516136000,7.8309026,-0.2638013777520507,0.017609306448698,-0.3834904910370707,-0.036224614828825,-0.1642207652330398,0.0306428130716085,-0.9862711640570312,-9.287657690322398,-2.989490735311806,50,standing
1783067929536062000,7.8508286,-0.0909854352395981,0.1215735387921333,-0.6313479382693767,0.0400951728224754,-0.2261248379945755,0.0513703003525733,-1.0049603746969251,-9.286876769077775,-2.9856925120726228,50,standing
