time,seconds_elapsed,acc_x,acc_y,acc_z,gyr_x,gyr_y,gyr_z,grav_x,grav_y,grav_z,fs_hz,activity
1783066049599437600,0.0,-0.0929454832661896,0.110993984849751,0.0245136790096759,0.0846063792705535,0.0206758398562669,0.0930733233690261,0.3863847877064719,-3.2828622717455027,-9.232762901574374,50,standing
1783066049619365600,0.019928,-0.137133109636791,0.0962973509773612,-0.049099838733673,0.0668023452162742,-0.0221179630607366,0.1232527941465377,0.3799949770715087,-3.29869200130105,-9.227384131145476,50,standing
1783066049639293700,0.0398561,0.0602605535648763,0.0413119613364338,0.1019704281777143,-0.0170748606324195,-0.1741873770952224,0.1729469001293182,0.3533378197597339,-3.304758461733162,-9.226272955033185,50,standing
1783066049659221800,0.0597842,-0.054287653167732,-0.1088894137859344,0.3892494929552078,-0.110891155898571,-0.2255609482526779,0.2199033349752426,0.2993940663925372,-3.2934207828998563,-9.232233324742316,50,standing
1783066049679149600,0.079712,-0.4524336058165877,-0.1668611257612705,0.7688987983942032,-0.1764378100633621,-0.0432155169546604,0.1443720906972885,0.2616456610228866,-3.268369051490724,-9.2422771643728,50,standing
1783066049699078700,0.0996411,-0.5631457049850375,0.0002887538135051,0.3591799333840608,-0.2791318297386169,-0.0014836514601483,-0.0001848231768235,0.2547426584350876,-3.226325561009347,-9.257230403354765,50,standing
1783066049719006500,0.1195689,-0.3127863579344004,0.001532908655703,0.1702782407283783,-0.3079712092876434,0.0360762439668178,-0.0111024696379899,0.2583182884321547,-3.1711566314950583,-9.276174757799506,50,standing
1783066049738934500,0.1394969,-0.3230531196005642,-0.0644482145130634,0.1568365753531456,-0.3160378932952881,0.1487754881381988,0.0620489045977592,0.2727749395362101,-3.1132559389293197,-9.295354674565791,50,standing
1783066049758862600,0.159425,-0.4968265455009415,-0.0950067266449332,0.3151718648314476,-0.3715859651565552,0.2684329748153686,0.0503389500081539,0.3082831647636369,-3.051124184665084,-9.31482626775503,50,standing
1783066049778790400,0.1793528,-0.3600133520008995,-0.1200268938720226,0.3219154938727617,-0.452399730682373,0.3284500539302826,-0.018738267943263,0.3648017553212121,-2.973431288653612,-9.33788039560616,50,standing
1783066049798718700,0.1992811,-0.5496271384486928,0.0392424615859985,0.0321428587138652,-0.3930668532848358,0.4133261144161224,-0.093980997800827,0.4344061835536733,-2.8911855516433715,-9.360700714701414,50,standing
1783066049818647600,0.21921,-0.7187421440839767,0.1098807629108429,-0.0652045858383178,-0.2247024178504943,0.5185979604721069,-0.2097614705562591,0.5324432543378324,-2.8317887753009794,-9.373785821723937,50,standing
1783066049838575600,0.239138,-0.4186396188948303,0.233351367495954,-0.2199450656950473,-0.1222627684473991,0.4713960886001587,-0.2418434172868728,0.6404025476668029,-2.7988883762180805,-9.37691301383376,50,standing
1783066049858503700,0.2590661,-0.4563358008868992,0.5036407190278173,-0.1255675768643617,0.0279738809913396,0.2517472803592682,-0.3804461061954498,0.7292747901447116,-2.7898040292695163,-9.37312823459804,50,standing
1783066049878431500,0.2789939,0.1056326770123094,0.5329457239672541,-0.4558756360292434,0.2008555829524994,0.2604722678661346,-0.3847642242908478,0.7918936703387648,-2.8035464311569926,-9.363942473101616,50,standing
1783066049898359600,0.298922,0.0490442360889166,-0.4629577032446861,-0.0683189184665679,0.2836343348026275,0.1782879084348678,-0.2830565273761749,0.8559639183849096,-2.8458286988303065,-9.345531787142155,50,standing
1783066049918287600,0.31885,-0.398133568091318,0.7449944834545255,-0.3201531603753567,0.2502346336841583,-0.1501495540142059,-0.3960170447826385,0.8804155650090426,-2.8900495333507656,-9.329676630884409,50,standing
1783066049938216700,0.3387791,0.0502856875173747,0.0830307499080896,-0.1434457633823156,0.161893755197525,-0.452346920967102,-0.4408673942089081,0.8505326140511781,-2.923002539403736,-9.322179553127288,50,standing
1783066049958144800,0.3587072,0.0876196120683103,0.0802910958111286,-0.2338917579829692,-0.0501318760216236,-0.6826378107070923,-0.411137580871582,0.766362192588672,-2.9283436081707475,-9.327801484662292,50,standing
1783066049978072600,0.378635,0.2146677828792482,0.0591869329839944,0.073376786378026,-0.2530631721019745,-0.6400858163833618,-0.3239928483963012,0.6614603140689432,-2.892425030310452,-9.34701705726385,50,standing
1783066049998000600,0.398563,0.1064114062998443,0.1585427947491407,0.1929752257049083,-0.1449361890554428,-0.3196838200092315,-0.2279461324214935,0.5832683094289154,-2.844837349705398,-9.366807799404858,50,standing
1783066050017928700,0.4184911,-0.5900857343588024,0.0629953853562474,-0.6405185021966695,0.3360883891582489,-0.4830433428287506,-0.0921723842620849,0.5359169217977673,-2.859572562022507,-9.365149510803818,50,standing
1783066050037856800,0.4384192,-0.5921833276925608,0.5473974431678652,-1.0276508568674323,0.7804082632064819,-0.7225751280784607,-0.2007083296775818,0.4224943215616047,-2.964792931906879,-9.33819486838281,50,standing
1783066050057785900,0.4583483,-0.4732504030697047,1.2079410807833075,0.4351081578105688,0.9631926417350768,-0.418529212474823,-0.4367532134056091,0.3300472528042271,-3.1274922618135808,-9.28871625946462,50,standing
1783066050077713700,0.4782761,-0.1864190820597112,1.2498416556626557,0.7565028426796198,0.9458151459693908,-0.0815770179033279,-0.6091719269752502,0.3222899897409603,-3.302869286985695,-9.2280855574131,50,standing
1783066050097641700,0.4982041,0.4226456031331792,0.8073544935166835,0.4778384615123272,0.8092678785324097,-0.1266377121210098,-0.7813986539840698,0.3554698998849839,-3.460429208177328,-9.168939540961384,50,standing
1783066050117569800,0.5181322,0.5062570390060543,0.2201625078380107,0.0988596026808023,0.6805279850959778,-0.3127385377883911,-0.8495457172393799,0.372714282011427,-3.589702069300413,-9.118415806904435,50,standing
1783066050137497900,0.5380603,0.404367384446971,-0.1046247420787811,0.1956441526532173,0.6251673698425293,-0.2912808954715729,-0.7548297047615051,0.3724013801373541,-3.699612058305741,-9.07439078721702,50,standing
1783066050157426000,0.5579884,0.6100306441482156,-0.4492839826792478,0.1517921514451503,0.6956285238265991,-0.1748196929693222,-0.5230176448822021,0.3790739167038351,-3.812544610002637,-9.027247343248128,50,standing
1783066050177354000,0.5779164,0.8964707008183002,-0.659074441845715,-0.1155605621129274,0.7512626051902771,-0.1755476593971252,-0.2826857566833496,0.3838286734828725,-3.9428804241821167,-8.97088365099132,50,standing
1783066050197282800,0.5978452,-0.1421212367802858,0.7362824769496917,-0.0604214432150125,0.719412624835968,-0.1075988337397575,-0.3153036832809448,0.3783989400517195,-4.070806839132309,-8.913794567069411,50,standing
1783066050217211000,0.6177734,0.0167636128721758,0.3023772651880979,-0.1849737055569887,0.7540895342826843,-0.1630003154277801,-0.4020767509937286,0.3856118671052158,-4.197593728658557,-8.854484299966693,50,standing
1783066050237138700,0.6377011,-0.1651970284739509,0.3688555242240429,-0.1760989097058773,0.92034912109375,-0.164562851190567,-0.4431712329387665,0.3917483970988542,-4.340387165611982,-8.785098629051447,50,standing
1783066050257066800,0.6576292,-0.448318169854395,0.4779778699830174,-0.0336795667618513,1.085267424583435,-0.1097763702273368,-0.4953516721725464,0.4074671405605971,-4.512207667346298,-8.697375337412954,50,standing
1783066050276994800,0.6775572,-0.6135624715361744,0.7015618767023086,0.1448480313956737,1.219654202461243,-0.1222750470042228,-0.5391995906829834,0.4405813285246491,-4.706163428521156,-8.592339676445722,50,standing
1783066050296922600,0.697485,-0.759130999226123,0.3539204054206609,-0.3742494922220706,1.3493036031723022,-0.4730174839496612,-0.4945595264434814,0.4351655505536124,-4.920710434564948,-8.471577454036474,50,standing
1783066050316851000,0.7174134,-0.5555702282294631,0.8865577940911054,-0.0817769504547119,1.400542140007019,-0.405108630657196,-0.4473925530910492,0.4141626561438664,-5.147188701421023,-8.336983690151571,50,standing
1783066050336779800,0.7373422,-0.4974289683734997,0.5798392848283052,-0.5293307483404874,1.583759307861328,-0.598885715007782,-0.3432127833366394,0.3715836705463007,-5.387844546711444,-8.185563294628261,50,standing
1783066050356707800,0.7572702,-0.1005881617727689,0.7702402761310339,-0.3021276743412017,1.8332078456878664,-0.7744934558868408,-0.3189038932323456,0.2987082760854624,-5.660546804603934,-8.00246005911827,50,standing
1783066050376636000,0.7771984,0.137849112419039,1.0934095694571733,-0.1348673201292753,2.1521120071411133,-0.9426193237304688,-0.273468017578125,0.2007808031556196,-5.971895311754942,-7.776023877838253,50,standing
1783066050396563700,0.7971261,0.0295855206475593,0.904250102648139,-0.8510720546901226,2.4451308250427246,-1.2191801071166992,-0.2151774317026138,0.0658833116503665,-6.321580271562934,-7.496910583859681,50,standing
1783066050416491800,0.8170542,0.2966315611429512,1.038349361014366,-0.9686439566254617,2.6841366291046143,-1.5646886825561523,-0.3785459697246551,-0.099708410663018,-6.697194622397422,-7.162962122365832,50,standing
1783066050436419800,0.8369822,0.274230490373075,1.0098919128149748,-0.9770435361802576,2.836220979690552,-1.9307215213775637,-0.6231386661529541,-0.27617581575457,-7.083083699008822,-6.776728177839517,50,standing
1783066050456347600,0.85691,-0.016672537055239,0.6622831747591496,-0.3093623017698526,2.866806745529175,-1.6537892818450928,-0.6852855682373047,-0.4216160408897325,-7.463312265640496,-6.34756577669084,50,standing
1783066050476277000,0.8768394,-0.4439916118921712,0.569755697709322,0.6469488275051116,2.49918794631958,-0.9972972869873048,-0.6281519532203674,-0.4815169673619791,-7.802638328519463,-5.9209255874961615,50,standing
1783066050496204800,0.8967672,-0.907081599747017,0.6211743347793817,-1.31302028863132,1.4134373664855957,-1.3449774980545044,-0.4893251061439514,-0.5276438912320882,-8.03437086264193,-5.598291716220975,50,standing
1783066050516132900,0.9166953,-0.0679456281747668,0.390106986567378,0.8972457768440246,0.5077344179153442,-0.7893701791763306,-0.5263347029685974,-0.5683134630117566,-8.144477251002192,-5.43276096228063,50,standing
1783066050536061000,0.9366234,0.3309204189095646,-0.0009200374543666,1.3463082257270813,-0.1768707185983657,0.005976986605674,-0.4578530490398407,-0.5300879233833402,-8.164653777590393,-5.406275690937042,50,standing
1783066050555988700,0.9565511,0.6972774773813784,-1.0696282963752746,1.469768601179123,-0.4876629114151001,0.805982232093811,-0.265751302242279,-0.4235903731700032,-8.130241220378876,-5.467187548017502,50,standing
1783066050575916800,0.9764792,1.0076435493662952,-1.384315592560172,1.1288391947567462,-0.7433907985687256,1.0407438278198242,-0.0707887560129165,-0.2886349546321667,-8.064401259246468,-5.572477476006746,50,standing
1783066050595844900,0.9964073,1.1382583996828646,-0.238657364949584,-0.200361244302988,-0.9533821940422058,0.5130862593650818,-0.0350179001688957,-0.1919501387071795,-7.9668702748209235,-5.715112507528066,50,standing
1783066050615774000,1.0163364,0.7973521549403667,0.0411491719901561,-0.4002741603165864,-0.7568480968475342,0.2497776597738266,-0.0041305581107735,-0.1492717752552125,-7.864652009361982,-5.856223690482974,50,standing
1783066050635702000,1.0362644,0.5539185154996812,0.1229331367075443,-0.0974047276973724,-0.3907021284103393,0.1923434138298034,0.0490521527826786,-0.1246081024487502,-7.797996055671573,-5.945260987329482,50,standing
1783066050655629800,1.0561922,0.4888147962199524,0.1949631846517324,-0.6417834075659513,-0.0906020104885101,-0.0022437879815697,0.0430787689983844,-0.1231003465006127,-7.769468464845419,-5.982523088753223,50,standing
1783066050675558000,1.0761204,0.1059370119874365,0.2778273458212614,-0.3984247330576181,0.2033642679452896,0.0818910598754882,-0.0186829566955566,-0.1228459698807448,-7.776915273720026,-5.972844575303792,50,standing
1783066050695486000,1.0960484,-0.0152818498818203,0.1894897216767072,-0.2002776576727628,0.3025493323802948,0.174670934677124,-0.0322994291782379,-0.1003879082266241,-7.809785277664661,-5.930225330761075,50,standing
1783066050715413800,1.1159762,0.4810345541398972,-0.081586396318674,-0.0166606274217367,0.1174145564436912,0.0570365712046623,0.0246406327933073,-0.0858416608766652,-7.836188131421804,-5.895521097126603,50,standing
1783066050735341800,1.1359042,0.1982653132033534,-0.1745294684320688,0.566941224810481,-0.095184288918972,0.2779166102409363,0.088654063642025,-0.079453064951254,-7.836469286450743,-5.895237019488215,50,standing
1783066050755270700,1.1558331,-0.1623488177022896,0.0262906255543231,0.4573439550161361,-0.2553138732910156,0.4483674764633178,0.0184668954461812,-0.0425050527116749,-7.815675504747032,-5.923156707549095,50,standing
1783066050775198700,1.1757611,-1.1894131251197309,0.913935045838356,-0.4859744216948747,-0.2765397429466247,0.2915652990341186,-0.3687864542007446,0.0285245928681804,-7.781402648267149,-5.968194703671336,50,standing
1783066050795127000,1.1956894,0.0823557275902014,-0.0380634809345006,-0.5872036761164665,-0.0846057310700416,0.1518658846616745,-0.4431942701339721,0.1256404137717094,-7.758953500571846,-5.996102701294422,50,standing
1783066050815054800,1.2156172,0.4974704328950494,-0.5079951148450375,-0.8786948056310415,0.0884797498583793,0.0263857971876859,-0.4550594389438629,0.2029832268370315,-7.758584667259454,-5.9944596102625125,50,standing
1783066050834983000,1.2355454,0.5019442538408562,-0.5179349095791578,-0.4574357249528169,0.0474285371601581,-0.0164953619241714,-0.3429349362850189,0.2655468879788182,-7.766601384976505,-5.981620002433657,50,standing
1783066050854911000,1.2554734,0.3286058948894962,-0.2561269706666469,0.1626139897108078,-0.11302100867033,0.0802510231733322,-0.1660180389881134,0.3089998981982469,-7.761455838781595,-5.986209668311476,50,standing
1783066050874838800,1.2754012,0.2608466195996851,-0.1098322475939989,0.1749883181154727,-0.1923857480287552,0.0760923624038696,0.0006508374935947,0.3315686171526089,-7.740754996058344,-6.011752105847001,50,standing
1783066050894767900,1.2953303,0.1477653801470994,0.0441191277116537,-0.26052257527709,-0.0584576576948165,-0.0177780073136091,0.0612378008663654,0.3285312222180888,-7.724269140681624,-6.033085401254892,50,standing
1783066050914695700,1.3152581,-0.1537489480687305,0.052141690647602,-0.5638029267847537,0.1418143361806869,-0.0841649547219276,0.0053017819300293,0.3161057116154581,-7.729897501957416,-6.026537002524734,50,standing
1783066050934623700,1.3351861,-0.3359022624427452,-0.0052764790982007,-0.5633019915252924,0.2416013926267624,-0.0225292816758155,-0.0714129582047462,0.3127083242621272,-7.7535829134494065,-5.996212006887793,50,standing
1783066050954551800,1.3551142,-0.4206855916392057,-0.035060207465291,-0.2565413966864347,0.234196588397026,0.1382205784320831,-0.0987263545393943,0.33344672251679,-7.782308072674274,-5.957758649852871,50,standing
1783066050974480000,1.3750424,-0.214820891081728,-0.0708785398215055,-0.0698614717334508,0.14630788564682,0.1670707464218139,-0.093176320195198,0.3684987101430073,-7.804398908451199,-5.9267158613353965,50,standing
1783066050994408000,1.3949704,-0.0464669694794341,-0.1191226385086774,-0.0397504111081361,0.0569452196359634,0.0832729116082191,-0.0730824097990989,0.3963195774719119,-7.815710576060414,-5.909990351983905,50,standing
1783066051014335700,1.4148981,-0.2121838571090251,0.022704583761096,-0.0027191958308219,0.0192844253033399,0.0744332075119018,-0.0892356410622596,0.4165887142470106,-7.818673517519235,-5.904674125397205,50,standing
1783066051034264600,1.434827,-0.2642112737271934,0.1374655199289322,-0.0676911419570445,0.0223031286150217,0.0817968621850013,-0.0996531173586845,0.4413821600461378,-7.820159372162818,-5.900903959208726,50,standing
1783066051054192600,1.454755,-0.1757978809326887,0.1990887401491403,-0.073455112311244,0.0216336771845817,0.0869424194097518,-0.077094942331314,0.4651970431366935,-7.82267515437603,-5.895737954747677,50,standing
1783066051074120400,1.4746828,-0.0609365165976807,0.28088848695755,-0.0250555308014154,-0.0100083341822028,0.0666187554597854,-0.0177348759025335,0.4820166970450431,-7.823072629261016,-5.893859885916114,50,standing
1783066051094048500,1.4946109,0.0145927716391161,0.2978741085499525,0.0666442632526159,-0.0263757947832345,0.0363203845918178,0.0521940626204013,0.4851968614511192,-7.820754999968409,-5.896674943336844,50,standing
1783066051113976600,1.514539,0.0246155319489538,0.3818558755725622,-0.0150491005718708,0.0279047898948192,-0.0394989661872386,0.0602100305259227,0.4753235926145687,-7.82079007128179,-5.897431899183988,50,standing
1783066051133904600,1.534467,-0.1323588079070672,0.3533995964169502,-0.1892781247526407,0.0856152549386024,-0.1027809754014015,-0.0066257081925868,0.4618608113860711,-7.828395285588503,-5.888402789553999,50,standing
1783066051153832700,1.5543951,-0.162349310892634,0.2851116576105356,-0.0638426498353481,0.0388529002666473,-0.061384804546833,-0.0198242422193288,0.4541427478220313,-7.8365733313471075,-5.878117542383074,50,standing
1783066051173761500,1.5743239,-0.1569501187302172,0.2773550521343946,0.0592389554321765,-0.0324539877474308,0.0086513292044401,0.0004843428032472,0.4539808352585882,-7.836747518870234,-5.877897177630663,50,standing
1783066051193689600,1.594252,-0.0111082905242219,0.2242939085543155,-0.0410725996226072,-0.0619699731469154,-0.0510922372341156,0.0229766443371772,0.4502945844938978,-7.830822220474481,-5.886072885301709,50,standing
1783066051213617700,1.6141801,-0.0627854689326137,0.2718161227077245,0.0811117645442485,-0.0816231146454811,-0.1317653208971023,-0.0002582388697192,0.437178643941693,-7.822379970821737,-5.898273026183247,50,standing
1783066051233545500,1.6341079,-0.1527414149940013,0.2696469619750976,0.0978127239763736,-0.0965645313262939,-0.1792495995759964,-0.0073506771586835,0.4193955883612856,-7.811980741882324,-5.913328556495904,50,standing
1783066051253473500,1.6540359,-0.1723427720427513,0.2314560552686452,-0.0678781889617443,-0.0816169381141662,-0.1408187747001648,0.0069013638421893,0.3996423286864534,-7.801472791871428,-5.928549506503344,50,standing
1783066051273401600,1.673964,-0.2516084703288972,0.2336918514966964,-0.1890016458988189,-0.053725279867649,-0.0460371375083923,0.0090738059952855,0.3871800662700086,-7.793383593440056,-5.940004381975531,50,standing
1783066051293329400,1.6938918,-0.0886854877341538,0.1881049893200397,-0.3385901498198509,-0.0013133082538843,-0.0041115349158644,0.0398230925202369,0.3810772558828815,-7.789994535523652,-5.944842469656467,50,standing
1783066051313258800,1.7138212,-0.0301746639134362,0.2094581584721803,-0.3695399993568659,0.0686757341027259,0.0147747304290533,0.0613095201551914,0.372994341061823,-7.7945882930547,-5.939331012758612,50,standing
1783066051333186600,1.733749,-0.051425322539173,0.1717734477221965,-0.2471072133868932,0.092091180384159,0.0599096715450286,0.0676660165190696,0.3671605203418061,-7.80508689071536,-5.925892269992828,50,standing
1783066051353114600,1.753677,-0.0279384292939677,0.1257183835119009,-0.118013800483942,0.0465306937694549,0.1252015829086303,0.0807962715625763,0.3668674556793644,-7.814547962021828,-5.91342909426093,50,standing
1783066051373042700,1.7736051,0.0741091923058032,0.0710299309909343,-0.1501812091171741,-0.0034930484835058,0.1524372100830078,0.0878813564777374,0.369566375907138,-7.817019905093312,-5.909992105549573,50,standing
1783066051392970500,1.7935329,0.0536420487405732,0.1042155767560005,-0.3095534404277801,0.0238421112298965,0.1382946223020553,0.0574809163808822,0.3753688881734386,-7.818332741257548,-5.907888995790481,50,standing
1783066051412898600,1.813461,0.0120869993632659,0.1443915197998285,-0.3067272770911455,0.059679701924324,0.1412082463502884,0.0406080223619937,0.3849016730092465,-7.82364370714724,-5.900240526863932,50,standing
1783066051432826600,1.833389,0.1283680212378501,0.1219850422024726,-0.2499211017638444,0.0429923608899116,0.1217199712991714,0.0787005051970481,0.3916227248925715,-7.830565615364908,-5.890607021600007,50,standing
1783066051452755700,1.8533181,0.1628037401292473,0.1566302391260862,-0.0507861843854188,0.0319386199116706,0.1139790266752243,0.1270435899496078,0.3884612651869654,-7.835134238454699,-5.884739006349444,50,standing
1783066051472683800,1.8732462,0.0511582325682044,0.2520604518800973,-0.0943687210023403,0.0936621576547622,0.0863188132643699,0.1186875849962234,0.3806960014803335,-7.843175506091117,-5.874525070849061,50,standing
1783066051492611600,1.893174,-0.0093079631039872,0.2570510997742414,-0.2038508399844169,0.1494592130184173,0.0639331713318824,0.0970466285943985,0.3727776661038398,-7.858940061455964,-5.853927688500285,50,standing
1783066051512539600,1.913102,0.0312501111252233,0.1599953316450119,-0.0460720153450965,0.1108015328645706,0.0551591776311397,0.1213527992367744,0.3630448651839047,-7.875908731913566,-5.831693060338496,50,standing
1783066051532467700,1.9330301,0.0383623177506029,0.131132225254178,0.1305178927481174,0.022017603740096,0.0655977055430412,0.139754980802536,0.3490495114486664,-7.884604664066433,-5.820787050920725,50,standing
1783066051552395500,1.9529579,-0.1312228261470794,0.1829524288624525,0.0233843827188014,-0.0096985017880797,0.1062127873301506,0.1196153536438942,0.3383211966853588,-7.885398444792628,-5.820345152372122,50,standing
1783066051572323600,1.972886,-0.120103283576481,0.1607686541050672,-0.222724467280507,0.0153948320075869,0.1036026775836944,0.1012590304017067,0.3328878830576315,-7.886258861014246,-5.8194923349350685,50,standing
1783066051592252400,1.9928148,-0.2887094629067927,0.1912882955312728,-0.2280073761194944,0.0861212611198425,0.1565970629453659,0.0766353607177734,0.3339000923074782,-7.89253662610948,-5.810916814291477,50,standing
1783066051612180700,2.0127431,-0.2080481455437839,0.1447276198863983,-0.3282131327122449,0.1170909032225608,0.1596071571111679,0.0557332187891006,0.341973764376156,-7.905233026075362,-5.793161961892247,50,standing
1783066051632108800,2.0326712,-0.1454145061720162,0.138771341830492,-0.0885842923820018,0.0763366967439651,0.1391911655664444,0.0620856098830699,0.3508669361341744,-7.917382898074388,-5.776013258692622,50,standing
1783066051652036600,2.052599,-0.0475248079692944,0.0913064108222723,-0.0462602313935756,0.0335601344704628,0.0757484659552574,0.08707045763731,0.3509897953288629,-7.923937142023444,-5.767011621591449,50,standing
1783066051671964700,2.0725271,-0.2131871158674359,0.2083347074002027,-0.0135480483591556,0.0327699966728687,0.0697828456759452,0.0979192778468132,0.3448680610455572,-7.927839994680881,-5.762014543956518,50,standing
1783066051691892700,2.0924551,-0.2271917854202911,0.181569450071454,-0.1643617101609706,0.0488980524241924,0.0457832664251327,0.0760040581226348,0.336576946833916,-7.933395875242352,-5.754852397242188,50,standing
1783066051711820500,2.1123829,-0.3101598453557118,0.1424929927021264,-0.0123626379668712,0.0402047932147979,0.0554866790771484,0.0366492271423339,0.3339521512882784,-7.939061061397195,-5.747188730746507,50,standing
1783066051731749600,2.132312,-0.2613646155918017,0.1358510704696178,0.0162432787925004,0.0085691194981336,0.0690706819295883,0.0101023251190781,0.3373804087039083,-7.942144998887181,-5.742724152553081,50,standing
1783066051751677400,2.1522398,-0.2161403761824593,0.1168091008692979,-0.0892097308039665,-0.0047624474391341,0.0672124549746513,-0.0175324231386184,0.3451278810255229,-7.942107589486241,-5.74231732531786,50,standing
1783066051771605500,2.1721679,-0.1879738006884232,0.1323392629563808,-0.1105459488213062,-0.0132225062698125,0.0723752602934837,-0.0205947812646627,0.3572140036059543,-7.94087833995223,-5.743277110260725,50,standing
1783066051791533800,2.1920962,-0.0703703711036592,0.116350251185894,-0.1295610304147005,-0.0174181014299392,0.0736214816570282,-0.0133812669664621,0.3672512673651799,-7.938805625331401,-5.745510568401217,50,standing
1783066051811461600,2.212024,-0.187850028178282,0.2034212163954973,-0.0566354949355125,0.021994337439537,0.1093700304627418,-0.021662974730134,0.3814810143781825,-7.938637283027171,-5.744814402830601,50,standing
1783066051831389700,2.2319521,-0.0648736003182828,0.2057873610049486,-0.1936088474333286,0.0552462004125118,0.0787921398878097,-0.0317596532404422,0.3972187182687223,-7.94309893861115,-5.737576268270612,50,standing
1783066051851317800,2.2518802,0.0888302664997056,0.1368944420427084,-0.1272556760817766,0.0232974719256162,0.0243366844952106,0.0134218912571668,0.4049737893749028,-7.948276048988103,-5.729858825761079,50,standing
1783066051871246600,2.271809,0.0844318123450502,0.1164893673956394,-0.0781008922904729,-0.0189917627722024,0.0276795569807291,0.0481854267418384,0.4020400374779477,-7.948371910578012,-5.72993306004107,50,standing
1783066051891174700,2.2917371,-0.0175528635537251,0.2314911265820264,-0.1613999377459287,-0.0081032011657953,0.0411720685660839,0.0365256704390049,0.3989791155373677,-7.946656338831782,-5.73252599914372,50,standing
1783066051911102500,2.3116649,-0.0295234334630891,0.2537263392657041,-0.1689355939477682,-0.0024193935096263,0.0482558123767375,0.0323358103632926,0.3988288934117183,-7.946594379511475,-5.732621276211738,50,standing
1783066051931030500,2.3315929,-0.023719021500647,0.2347252861976623,-0.1086971060842275,-0.0005253811832517,0.0521664582192897,0.0408414490520954,0.3988603845285251,-7.946748693290353,-5.732406756678223,50,standing
1783066051950958600,2.351521,-0.0180263993496075,0.2402706453651189,-0.1172422315895557,0.0109274731948971,0.0330872349441051,0.0435667894780635,0.3969087024714797,-7.947505064615607,-5.731493148964643,50,standing
1783066051970886700,2.3714491,-0.0194370333325117,0.2202987014383077,-0.1286661274015903,0.0140587948262691,-0.0153276342898607,0.0279870759695768,0.3924836525708436,-7.949380210837721,-5.729196562460064,50,standing
1783066051990814700,2.3913771,-0.0455791537942364,0.1921300070524215,-0.0620551818966865,-0.0349156446754932,-0.0214642342180013,0.0282085593789815,0.3861542668862268,-7.948595197939873,-5.73071631937325,50,standing
1783066052010742800,2.4113052,-0.103082481072843,0.2112456264108419,-0.0104623573035001,-0.0775261223316192,0.0370868854224681,0.0470573902130126,0.3809594016568735,-7.941523067596554,-5.740858358681201,50,standing
1783066052030672100,2.4312345,-0.1269724386936053,0.3073515464693307,-0.1493313142895698,-0.0352932326495647,0.0385470427572727,0.0483752563595771,0.3786627786196768,-7.934380210104584,-5.750879401957988,50,standing
1783066052050600200,2.4511626,-0.1163023203909397,0.2773573902219534,-0.2780874580621719,0.0484937094151973,0.0219055525958538,0.0358176156878471,0.3750256276937201,-7.935361037835478,-5.749764134192467,50,standing
1783066052070528300,2.4710907,-0.1884671006307005,0.223300805863738,-0.245302209791541,0.0869045630097389,0.0348017215728759,0.0269270613789558,0.3734193250082433,-7.944303053703904,-5.737508463731408,50,standing
1783066052090456300,2.4910187,-0.0869213641384616,0.1669388671725988,-0.1393003341406583,0.0506302118301391,0.0266286060214042,0.030868973582983,0.372729223852232,-7.953032888126373,-5.725446270015835,50,standing
1783066052110384000,2.5109464,-0.1636705495590344,0.1310018768727779,-0.0143956050992012,-0.0176604259759187,0.0230056419968605,0.0037619899958372,0.3728639926804229,-7.955103264659643,-5.7225604854464525,50,standing
1783066052130312200,2.5308746,-0.1447921730225905,0.1327829150706529,-0.0665659373193979,-0.0554406680166721,0.0309342090040445,0.0037840555887669,0.3747851700013503,-7.9504493013739586,-5.728897871774435,50,standing
1783066052150240300,2.5508027,-0.152048500826396,0.165437230437994,-0.1027180316746234,-0.0499454885721206,0.0285633914172649,0.011577476747334,0.3777020438287407,-7.943898564556241,-5.737787280672788,50,standing
1783066052170169000,2.5707314,-0.090681812650524,0.1681914975821971,-0.2115846491068601,-0.0273645427078008,-0.004497701767832,0.0110104400664567,0.3764897454295307,-7.939470811241865,-5.743991396009922,50,standing
1783066052190097200,2.5906596,-0.1988218693738803,0.2046422826230526,-0.1381757140249014,0.0066419374197721,0.0108569655567407,-0.0206897370517253,0.3765914157057181,-7.938212335613369,-5.745723918890953,50,standing
1783066052210025000,2.6105874,-0.1789092544188723,0.2520008306473493,-0.0780196437478065,0.0226730108261108,0.0218485482037067,-0.0223538186401128,0.3836134963622316,-7.939932583534717,-5.742883142507076,50,standing
1783066052229953300,2.6305157,-0.041344256170839,0.2045838304340839,-0.0357785848677158,0.0097491256892681,0.003825947176665,0.0080431923270225,0.3862589693697169,-7.942045045644044,-5.739783422926068,50,standing
1783066052249881300,2.6504437,-0.0073250456584617,0.1905722562164068,-0.0592635053515434,0.0061232312582433,-0.0345834903419017,0.0168401468545198,0.3815686195963993,-7.942697956594825,-5.739193640339375,50,standing
1783066052269809200,2.6703716,-0.0319277181258425,0.2042342863440513,-0.1382698220491409,0.0057801408693194,-0.0445643737912178,0.0032458589412271,0.3742983728650957,-7.94304165546596,-5.739195393905043,50,standing
1783066052289737200,2.6902996,-0.1121885283965617,0.183615276685357,-0.1480465351760387,-0.000559898559004,0.004881614819169,-0.0077569899149239,0.3721089730620384,-7.943073219648003,-5.73929534714818,50,standing
1783066052309666000,2.7102284,-0.0102095881188288,0.1671253296554088,-0.177421682742238,-0.0067133526317775,0.0082928054034709,-0.0064105340279638,0.3741282404625788,-7.9421467524528495,-5.740446855270863,50,standing
1783066052329594000,2.7301564,-0.0232770498868078,0.1667524046897888,-0.1905617348223924,-0.0025308360345661,0.00654341513291,-0.0156507771462202,0.3759727358181029,-7.941174108028411,-5.741671428629756,50,standing
1783066052349522200,2.7500846,-0.0759273841762915,0.1850350803554058,-0.1535340266764163,0.0047809984534978,0.035551119595766,-0.0043325163424015,0.3811881689114496,-7.941200996035337,-5.74129032035768,50,standing
1783066052369450000,2.7700124,0.0862757962439209,0.0864355899155139,-0.2119868001669645,-0.0087162228301167,-0.0125584099441766,0.0242883488535881,0.380443889882788,-7.940763189139962,-5.74194323130846,50,standing
1783066052389378000,2.7899404,0.0288879851037636,0.1336386551171541,-0.0723836836874484,-0.0356261990964412,-0.0263366885483264,0.0217469744384288,0.3737869162116199,-7.9378388261258594,-5.746423591592907,50,standing
1783066052409306400,2.8098688,-0.0743800816690549,0.1929933458834886,-0.0546574728608131,-0.0416585877537727,-0.0174539629369974,0.0009622572688385,0.369016377341561,-7.932699125149845,-5.753825392282009,50,standing
1783066052429234200,2.8297966,-0.0936677331261336,0.2052086843341589,-0.2300590479522943,-0.0140420589596033,0.0162728354334831,-0.0139867821708321,0.3693001261863857,-7.928903239998221,-5.7590364049285645,50,standing
1783066052449163300,2.8497257,-0.1594340445004403,0.2455208209782838,-0.1880477061748504,0.0224936977028846,0.0630213692784309,-0.0052528972737491,0.3761092216793447,-7.929261551916599,-5.758101169905066,50,standing
1783066052469091000,2.8696534,-0.0476698059305548,0.1957856069505214,-0.1578682564884424,0.0372162424027919,0.0342549495398998,0.0177342556416988,0.3815111903207376,-7.932946962431073,-5.75266686989665,50,standing
1783066052489019100,2.8895815,-0.0246827884988859,0.1080260749548673,-0.0559866756379604,0.0104003902524709,-0.0263978764414787,0.0163969937711954,0.3788748504677787,-7.936018040439486,-5.748605611807108,50,standing
1783066052508947200,2.9095096,-0.1015993663756176,0.0807791715890169,-0.0406400534242391,-0.0349810868501663,-0.0670567601919174,-0.0009495071135461,0.3713958563566207,-7.934358582794665,-5.751382090783119,50,standing
1783066052528875000,2.9294374,-0.1851119449838995,0.1286567750513553,-0.0802875886797905,-0.0537389628589153,-0.0292357951402664,-0.0011283328058198,0.3652755833780393,-7.928666508632898,-5.759619173252582,50,standing
1783066052548803000,2.9493654,-0.247201065682806,0.1924719523578882,-0.1476537364661693,-0.0309170391410589,0.0207913219928741,-0.0247247908264398,0.366312452145107,-7.923199475398659,-5.767071827346086,50,standing
1783066052568731100,2.9692935,-0.208581229507178,0.1990975079774856,-0.1987999863356351,0.0098830815404653,0.0273706875741481,-0.0299393441528081,0.3745293320767581,-7.921594962811469,-5.768747651603817,50,standing
1783066052588659200,2.9892216,-0.1066693631162866,0.1886976945161819,-0.2040834796965122,0.0259743332862854,0.0049848686903715,-0.0311661325395107,0.3814040401518345,-7.923914345669746,-5.765110171884298,50,standing
1783066052608588300,3.0091507,-0.0219378006396815,0.1454635329455137,-0.1164917054831981,0.0025908858515322,-0.0165953673422336,-0.0106845535337924,0.3837615265307947,-7.925721102830767,-5.762469886508583,50,standing
1783066052628516000,3.0290784,-0.0307296309150755,0.1768108573675155,-0.0194470432698726,-0.0360365472733974,-0.0242439229041337,0.0001802942715585,0.381031334381923,-7.923400550928711,-5.765841408768296,50,standing
1783066052648444200,3.0490066,-0.1014447968684136,0.2568155374526977,-0.0607172112911939,-0.0244109760969877,-0.0243607647716999,0.0020504996646195,0.3781248358180746,-7.919158091053366,-5.77185730805695,50,standing
1783066052668372200,3.0689346,-0.0483258221538737,0.2555377726018428,-0.1976502317786216,0.0015859531704336,-0.0312851183116436,0.0038860384374856,0.3739373210003599,-7.9177312731206415,-5.774087843587994,50,standing
1783066052688300000,3.0888624,-0.0734774337409064,0.2606862414062023,-0.1911678840219974,0.0177196692675352,-0.0097088944166898,0.0060299378819763,0.3705081137366592,-7.918839526623487,-5.772788451427221,50,standing
1783066052708228000,3.1087904,-0.1342035224582999,0.2440425651192665,-0.2027928553640842,0.0306641850620508,0.015074455179274,-0.0030919318087399,0.3703316611912101,-7.921648738825321,-5.768944635480642,50,standing
1783066052728156200,3.1287186,-0.0869859172746539,0.1827840865582227,-0.1241132864028215,0.0116703696548938,0.0196525529026985,0.0016442337073385,0.3726442124499007,-7.924284932547807,-5.765173300248384,50,standing
1783066052748085200,3.1486476,-0.0571224016696214,0.2012047093898057,-0.1047089132308959,-0.0029265705961734,0.0146547202020883,-0.0057646795175969,0.374803070984222,-7.92400143943131,-5.765424644660949,50,standing
1783066052768013300,3.1685757,-0.1166502205131575,0.2240571771889924,-0.115538934803009,0.0212476886808872,0.0284233912825584,-0.0247814245522022,0.379413852715306,-7.924258629062772,-5.7647699801445,50,standing
1783066052787941000,3.1885034,-0.0797102637158706,0.226029354044795,-0.1407096164166927,0.0402725338935852,0.020072154700756,-0.0290820728987455,0.3863176772870123,-7.927427906748652,-5.759950012642145,50,standing
1783066052807869200,3.2084316,-0.0580003170153126,0.2469324413418769,-0.0361912573218345,0.0371326692402362,0.0208178404718637,-0.0195610057562589,0.3924403248857706,-7.931421360298991,-5.754035235640406,50,standing
1783066052827797200,3.2283596,-0.0060335445431992,0.1827180355846882,-0.0198380884140729,0.0018792415503412,0.0082969833165407,0.000558286323212,0.3950913143185898,-7.9336466351330275,-5.750785878455639,50,standing
1783066052847725000,3.2482874,-0.0088217139570042,0.1948275755733251,0.0442044679075479,-0.0226244609802961,0.0078975614160299,0.0211457200348377,0.3935400297559797,-7.931989515575766,-5.753178326550126,50,standing
1783066052867653000,3.2682154,-0.0861607184968888,0.2248538805246353,-0.0305576353490352,0.0017801881767809,-0.0020479490049183,0.0142942490056157,0.3905234949463978,-7.930143010926246,-5.755928502041101,50,standing
1783066052887581200,3.2881436,-0.0597508870096877,0.1995318077415227,-0.1016647232294082,0.0264168586581945,-0.0264597963541746,0.0201769061386585,0.3865594501536339,-7.932204035109281,-5.753354852160811,50,standing
1783066052907510300,3.3080727,-0.0223627480534836,0.1478168180733919,-0.0364461088657379,0.0172621682286262,-0.0247887335717678,0.0468872152268886,0.3779016580540686,-7.934808080127834,-5.750338719210029,50,standing
1783066052927438300,3.3280007,-0.1209757555620744,0.2064566385686397,-0.0942208369642496,0.0470330528914928,-0.0018554102862253,0.0249417442828416,0.3704216044969856,-7.938530900043249,-5.745685924968123,50,standing
1783066052947366100,3.3479285,-0.1266931102955713,0.1789735883593559,-0.1165513267159461,0.053005076944828,-0.0064145973883569,0.0072485008276999,0.3682083123616874,-7.944716310679912,-5.737272316887975,50,standing
1783066052967294200,3.3678566,-0.0642353024147451,0.0850654706060886,-0.0439174676597118,0.0070006675086915,-0.0165934599936008,-0.0041516036726534,0.3662040598671883,-7.948222272974252,-5.73254295027852,50,standing
1783066052987222300,3.3877847,-0.1125268204402178,0.1450678116261959,0.0749175860792398,-0.0422558784484863,0.0015641028294339,-0.0104067474603652,0.3663122329493984,-7.945825733226537,-5.735857773914933,50,standing
1783066053007150000,3.4077124,-0.1349505414333194,0.2408873159587383,0.0815811356216669,-0.048170480877161,-0.0017889683367684,-0.0236315596848726,0.3694326665248721,-7.939891667002439,-5.743868061891198,50,standing
1783066053027076900,3.4276393,-0.1291674279872328,0.3016787615299224,0.0028255788147449,-0.0103842820972204,-0.0007114383624866,-0.0215365421026945,0.3723286071620881,-7.935890030145645,-5.749208838397264,50,standing
1783066053047005000,3.4475674,-0.1453063696224242,0.3803700209289789,-0.0220154324531555,0.0345059186220169,0.008799722418189,-0.0173917300999164,0.376346720229648,-7.937218648400902,-5.747112742900848,50,standing
1783066053066933000,3.4674954,-0.0699718367727473,0.3071270900636911,0.0099427173435688,0.0441587641835212,-0.0099854720756411,0.0229036305099725,0.3768784890187904,-7.941787271490693,-5.740763666135073,50,standing
1783066053086861800,3.4874242,0.0982711352683603,0.2340536705464124,0.0289437704116106,0.018212791532278,-0.081673264503479,0.0682348012924194,0.3641089872840792,-7.945627580305933,-5.736271030890942,50,standing
1783066053106790100,3.5073525,-0.0085829367650672,0.243411281478405,0.0284182852327823,-0.0142960026860237,-0.0950538739562034,0.0705028846859932,0.3416761331364512,-7.945707075282931,-5.73754178147912,50,standing
1783066053126718000,3.5272804,-0.1097537389976903,0.2377753214180469,-0.1160094749242067,-0.0302260164171457,-0.0886187553405761,0.049457874149084,0.3211916731102391,-7.943662417712807,-5.741553939729928,50,standing
1783066053146646000,3.5472084,-0.1392090391280129,0.1841588820427656,-0.146951141154766,-0.0494540147483348,-0.047187753021717,0.03335502743721,0.3072522142807021,-7.939426972100138,-5.74817248108685,50,standing
1783066053166574000,3.5671364,-0.0995046408523805,0.151958740183711,-0.2435498131662607,-0.0446720905601978,-0.0199472438544034,0.0395420342683792,0.2979241399704478,-7.934312405565381,-5.755720996770262,50,standing
1783066053186502000,3.5870644,-0.0224280135757289,0.1303062958240509,-0.2540583476990461,-0.0239969417452812,-0.01657010987401,0.0594571530818939,0.2880346141188405,-7.930465667009353,-5.761521792003512,50,standing
1783066053206430000,3.6069924,-0.0695390165797434,0.1127197857290506,-0.2284118652671575,-0.0012322119437158,-0.0312096159905195,0.0657230913639068,0.2752905938852578,-7.929788206139206,-5.763077789273858,50,standing
1783066053226358000,3.6269204,-0.0319727445776574,0.0173000943690538,-0.2186380747497081,-0.0045493468642234,-0.0676743686199188,0.0771115645766258,0.2586737873389385,-7.929986943581699,-5.763573463836312,50,standing
1783066053246286800,3.6468492,-0.0269890013483352,-0.0053963060855865,-0.2001741972982883,-0.0254286583513021,-0.0704439952969551,0.0776321664452552,0.2375291829035617,-7.928539082860946,-5.766475615018606,50,standing
1783066053266215000,3.6667774,-0.11039547096733,0.0408785383552312,-0.1906979284226894,-0.0513014569878578,-0.0359394773840904,0.0352286510169506,0.2217259577624499,-7.924386054834723,-5.77280949421525,50,standing
1783066053286143000,3.6867054,-0.2111742234087549,0.0531990907460451,-0.1185468844473361,-0.0500359982252121,0.0166773255914449,0.0020242226310074,0.2186561949282884,-7.918450819566845,-5.781065281385183,50,standing
1783066053306071000,3.7066334,-0.0848689433869905,0.0818915167450904,-0.1563040759116411,-0.0385107919573783,0.0300571676343679,0.0137197626754641,0.2208893973404541,-7.913175509512424,-5.788199371048807,50,standing
1783066053325999000,3.7265614,0.007901859165728,0.0519248330265283,-0.153034844982624,-0.0083399778231978,0.0103699602186679,0.0464745536446571,0.2187990191987715,-7.9102932320743795,-5.792216789996624,50,standing
1783066053345927000,3.7464894,0.0037203356973826,0.0432277318298816,-0.1366401750206947,0.0283507425338029,-0.0326297841966152,0.0459390394389629,0.2093635572575964,-7.911473381769657,-5.790954807236791,50,standing
1783066053365855000,3.7664174,-0.0329134229612536,0.0635392829746007,-0.0853495482444763,0.0276811439543962,-0.0371937192976474,0.031408168375492,0.1984127405837178,-7.915173989853263,-5.786280385684966,50,standing
1783066053385783000,3.7863454,-0.0937733306587673,0.0710071346372366,-0.0104003979831933,-0.0064593823626637,-0.0106094582006335,0.0125588057562708,0.1920851815300062,-7.916656337365508,-5.7844654452174895,50,standing
1783066053405710800,3.8062732,-0.0524982307340018,0.0472287841647863,-0.0790466487079858,-0.0331081673502922,-0.0001353000989183,0.0141668645665049,0.1898654413876123,-7.914276748752593,-5.787794881901145,50,standing
1783066053425639000,3.8262014,-0.027468217966333,0.040841713476181,-0.1612538072735071,-0.0266930237412452,-0.0071196085773408,0.007795647252351,0.1874308894507587,-7.910432932806015,-5.793125137013196,50,standing
1783066053445568000,3.8461304,-0.0997638032452203,0.0692255119174718,-0.229863817641139,0.0090024508535861,0.0117029091343283,-0.0146374842151999,0.1880499711971729,-7.909487176388501,-5.794395887601375,50,standing
1783066053465496000,3.8660584,-0.0792219139433465,0.0712608171373605,-0.2178910557746887,0.0021330127492547,0.0236215461045503,-0.0116127980872988,0.1924975799894891,-7.910475602903961,-5.7929018496513365,50,standing
1783066053485424000,3.8859864,-0.0454561850016936,0.0735755238205194,-0.135669868683815,-0.0144877815619111,0.0132179521024227,-0.0077622290700674,0.1961411789225414,-7.909348060178757,-5.794318146190047,50,standing
1783066053505352000,3.9059144,-0.1133916753749363,0.1557481955945491,-0.189445298013091,0.0130094969645142,0.0187199432402849,-0.0248912759125232,0.2004807790294289,-7.908622083991766,-5.795161026754975,50,standing
1783066053525280000,3.9258424,-0.1571645286658778,0.192642048227787,-0.2203986546814441,0.0480422228574752,0.0429030135273933,-0.0360661260783672,0.2087894654303789,-7.912445441672205,-5.789645478203893,50,standing
1783066053545208000,3.9457704,-0.0900961947822943,0.1906786392003297,-0.1047474916756153,0.0297561436891555,0.0645885169506073,-0.0235682222992181,0.2193829748328775,-7.916767396524548,-5.783343163189292,50,standing
1783066053565136000,3.9656984,-0.1216110760572366,0.2506844873517752,-0.0094826986163854,0.0147426817566156,0.0729155391454696,-0.0298125315457582,0.2315945869565009,-7.918862907499075,-5.779996190848946,50,standing
1783066053585064000,3.9856264,-0.0835257120844908,0.2556201901882887,-0.0498825135439634,0.0205746218562126,0.0425680540502071,-0.0128896571695804,0.242291191407293,-7.920506583052873,-5.77730446754694,50,standing
1783066053604992000,4.0055544,0.0419562505893409,0.2102916866868734,-0.0717138216018676,-0.0026764997746795,-0.0081499284133315,0.0351065844297409,0.2420559213466942,-7.9212664615094655,-5.776272786411643,50,standing
1783066053624919800,4.0254822,-0.0223852338799275,0.2081172652572393,0.0124725280821323,-0.0381739027798175,-0.0194791164249181,0.058627501130104,0.2312792921959422,-7.9187933493942015,-5.780104911920428,50,standing
1783066053644849200,4.0454116,-0.1575912844442762,0.2762105582743883,-0.0587245761692523,-0.0310121290385723,0.0121925268322229,0.0323895029723644,0.2238808707740157,-7.914611679795384,-5.786120226687193,50,standing
1783066053664777000,4.0653394,-0.132386810158845,0.2857797661304473,-0.1571925491839647,0.0058539230376482,0.0465874895453453,0.0215342305600643,0.2230672711024992,-7.91310770497322,-5.788208138877153,50,standing
1783066053684705000,4.0852674,-0.0388420275589451,0.2280506307393312,-0.1351619191616773,0.0230102594941854,0.0433441773056983,0.036873061209917,0.2243927110199816,-7.91523302656412,-5.785249873593449,50,standing
1783066053704633000,4.1051954,0.0246596633516252,0.1392570795208215,-0.1194084697127342,0.0103962961584329,0.0114816203713417,0.0486124977469444,0.2204466037427075,-7.917718998160958,-5.781999347364902,50,standing
1783066053724561000,4.1251234,0.0201034430856816,0.0908306100040674,-0.0715226829439401,-0.0139452461153268,0.0038176632951945,0.0541537813842296,0.2128821963704191,-7.917924749866128,-5.782001100930572,50,standing
1783066053744489000,4.1450514,-0.0424968785383738,0.0593207884967327,-0.1291921971023082,-0.017607083544135,0.0112658394500613,0.0464979037642478,0.2056018118375912,-7.916192811506986,-5.784635541087389,50,standing
1783066053764417000,4.1649794,-0.1006344303335994,0.0397352135390043,-0.2224637705177068,0.0036767260171473,0.0180147159844636,0.0303534641861915,0.2013406289954669,-7.915462159144877,-5.785785295644402,50,standing
1783066053784344800,4.1849072,-0.0867389202436432,0.0231079038649797,-0.2463713003277778,0.0198033265769481,0.0286982841789722,0.0196784101426601,0.1997153110822662,-7.916790777400135,-5.784024131190776,50,standing
1783066053804273000,4.2048354,-0.139876563126035,0.0638350510507822,-0.1455932968050241,0.0210098456591367,0.0470116324722766,0.0051777651533484,0.2028741221730597,-7.919061060419678,-5.780804000100493,50,standing
1783066053824201000,4.2247634,-0.0494930941012687,0.0332528657823801,-0.1650391710311174,0.0221546776592731,0.0304241012781858,0.0028368546627461,0.2067623252506367,-7.921249510374665,-5.777668624684214,50,standing
1783066053844130000,4.2446924,-0.1079548180832527,0.0957435164868831,-0.1504495046645403,0.0310160275548696,0.0378463976085186,0.0018571536056697,0.2107559066651388,-7.924034172657132,-5.77370264366269,50,standing
1783066053864058000,4.2646204,-0.1035667209258303,0.094290979591012,-0.1998679078280925,0.0522750914096832,0.0420594848692417,-0.0052306675352156,0.2148972259872593,-7.928416917786001,-5.767529507985711,50,standing
1783066053883986000,4.2845484,-0.1301809706776402,0.1442915665566921,-0.1878764412611722,0.0717976614832878,0.0581866763532161,-0.0091587444767355,0.2211607433614321,-7.935622319120168,-5.757375193718075,50,standing
1783066053903914000,4.3044764,-0.1049854286173358,0.2040869868278503,-0.0893260506600141,0.0674233809113502,0.0771832168102264,-0.0101738097146153,0.2303816492364741,-7.943641959446668,-5.745941945555805,50,standing
1783066053923842000,4.3244044,-0.0691702197999693,0.2237555638939142,-0.0465904862612485,0.0550312735140323,0.055693719536066,-0.013248330913484,0.2403555106369778,-7.950742146840691,-5.735705798223615,50,standing
1783066053943769900,4.3443323,-0.05550481040515,0.2518687287002801,0.007493570625782,0.0326508693397045,0.0280079208314418,-0.0239951685070991,0.2477892225679941,-7.955212570253014,-5.72918721010983,50,standing
1783066053963698000,4.3642604,-0.1291623864859342,0.3312427096664905,-0.017618658798933,0.0386430062353611,0.0510598011314868,-0.0268313940614461,0.2562045842138118,-7.959019561320543,-5.723527284651994,50,standing
1783066053983626000,4.3841884,-0.1335295869858004,0.3579869242072105,-0.0535083028256893,0.04321775957942,0.0564534105360507,-0.0148677164688706,0.2662581049880944,-7.963617410504818,-5.716666751232743,50,standing
1783066054003553800,4.4041162,-0.0666601914741098,0.3135246821463108,-0.0184177002221345,0.0354735553264617,0.0349947251379489,0.0219217240810394,0.2709154110083356,-7.968236302477121,-5.710009046909213,50,standing
1783066054023482000,4.4240444,-0.0263413145619444,0.2581125915259122,-0.0787456199347972,0.0258193500339984,0.0020384625531733,0.036578468978405,0.2680060081013478,-7.97178142773807,-5.705196093669533,50,standing
1783066054043410700,4.4439731,-0.0858300800367258,0.2654839970767498,-0.1151683479249477,0.0185227990150451,0.0022556860931217,0.0363480672240257,0.261803828992974,-7.974812758257984,-5.701245894739031,50,standing
1783066054063338800,4.4639012,-0.1221166144265793,0.2629974409580231,-0.069141340765357,-0.0119460271671414,0.027439922094345,0.03128083050251,0.2581371962442063,-7.975618813943862,-5.700284940752387,50,standing
1783066054083266800,4.4838292,-0.1172593471211381,0.2360375378400087,-0.0074807111442089,-0.04961758852005,0.0373974107205867,0.0207058172672987,0.2579187311879359,-7.972301652219891,-5.704934812384844,50,standing
1783066054103195000,4.5037574,-0.1369197774133645,0.2987164045929908,-0.0187409408271312,-0.0487592220306396,0.0272292848676443,0.0125621752813458,0.2594728835610673,-7.966596134054661,-5.712828195983171,50,standing
1783066054123123000,4.5236854,-0.0740439085172489,0.2973550531119108,-0.0835965670973062,-0.03019898571074,0.0103225298225879,0.0424819476902484,0.2573498452587984,-7.9620923928946254,-5.719200069102644,50,standing
1783066054143051000,4.5436134,-0.1198149864207021,0.2813438295096159,-0.2085439662367105,0.0045372047461569,0.0043168608099222,0.0259040351957082,0.2510472562495618,-7.960895876586437,-5.721145942473411,50,standing
1783066054162978800,4.5635412,-0.1361541998683474,0.1935416274160146,-0.2037140618622303,0.0076927621848881,0.0020624045282602,0.0149485459551215,0.2485319489603862,-7.962127464208006,-5.719540845364332,50,standing
1783066054182907000,4.5834694,-0.0463363471033982,0.1413999367684126,-0.1442266846269369,-0.0244274735450744,0.0256425980478525,0.0464090891182422,0.2452048503642901,-7.961312640693783,-5.720819194737077,50,standing
1783066054202835000,4.6033974,-0.0843935261612758,0.1802706424325704,-0.1242050563395023,-0.003868110012263,0.0272119361907243,0.0505755580961704,0.2403159640778787,-7.959331111487746,-5.723782136195898,50,standing
1783066054222763800,4.6233262,-0.1265294259001501,0.1730605649232864,-0.1295312197983265,0.021867835894227,-0.0015741969691589,0.0188583768904209,0.2365129733320325,-7.960800014996528,-5.721897637623548,50,standing
1783066054242691800,4.6432542,-0.0486709092644974,0.069122636064887,-0.0371767612278461,-0.0077844373881816,-0.0278095379471778,0.0316984541714191,0.2310792213128879,-7.9619076839774845,-5.720578956240416,50,standing
1783066054262619600,4.663182,0.0170566958009265,0.0145651164472103,-0.0356885684967041,-0.0457506962120533,-0.0373679809272289,0.0435120537877082,0.22071747483965,-7.958226949638128,-5.7261067797511815,50,standing
1783066054282548000,4.6831104,-0.1260495516950264,0.0579740500628948,-0.1629991896361112,-0.0068488223478198,-0.0022466285154223,0.0069992295466363,0.2134380036222748,-7.954200178340077,-5.731974210479855,50,standing
1783066054302476000,4.7030384,-0.139210098573938,0.1152320608109235,-0.2307540444791317,0.0316806882619857,0.03670284897089,-0.0255255587399005,0.2174705653402954,-7.955793585011363,-5.729610403957962,50,standing
1783066054322403800,4.7229662,-0.029485603937041,0.0523193853020668,-0.082796941152215,0.0157744642347097,0.0585245750844478,-0.0220662429928779,0.226857676361408,-7.958572402074933,-5.725386648783087,50,standing
1783066054342332000,4.7428944,0.0823878854272887,0.0640337884932756,0.0477688823908567,-0.0156239904463291,0.0372143574059009,-0.0161645896732807,0.2351432558814063,-7.958164990317821,-5.725617534929514,50,standing
1783066054362260000,4.7628224,0.0790043439362198,0.1416027658641338,0.0421814376473426,-0.0130533687770366,-0.0058875451795756,-0.0145695339888334,0.2397237520720809,-7.956126762488484,-5.728260742914676,50,standing
1783066054382187800,4.7827502,0.1071678872229531,0.1226198329746723,-0.0517114825367927,-0.0010347731877118,-0.0158859994262456,0.0186019111424684,0.2374476420999504,-7.954951873490214,-5.729986836054921,50,standing
1783066054402116900,4.8026793,0.0577723717446438,0.1579068349331617,-0.0746948832392692,0.017723424360156,-0.0048070079647004,0.0216749347746372,0.2320755571401677,-7.955821642062068,-5.72899957858324,50,standing
1783066054422044700,4.8226071,-0.0366772324741818,0.1592705245018005,-0.1434586228638887,0.03459258005023,0.0215108729898929,-0.0128684816882014,0.2313557184330187,-7.959130620479583,-5.72443037097156,50,standing
1783066054441972700,4.8425351,-0.070159230837319,0.1250625499516725,-0.0877893426120281,0.0294311679899692,0.0361057221889495,-0.0436164513230323,0.2401475852410309,-7.962631322076916,-5.7191971464931965,50,standing
1783066054461901000,4.8624634,0.006836823750101,0.0895633665472269,-0.0955477016538381,0.0199316330254077,0.0492440573871135,-0.03149139508605,0.251587263144087,-7.964840814819931,-5.71562864035666,50,standing
1783066054481828900,4.8823913,0.0260901345461606,0.1210083061248064,-0.105766313329339,0.0252998061478137,0.0548574887216091,0.0003083480405621,0.2601667293104343,-7.966956784060597,-5.712293358454108,50,standing
1783066054501757000,4.9023194,0.0380252678159624,0.1515998437434434,-0.0905336728841066,0.0451249852776527,0.0118658849969506,0.0236809160560369,0.262447077066265,-7.970763775128126,-5.706876009580492,50,standing
1783066054521685000,4.9222474,0.0325120938850566,0.1270984396934509,-0.0951391208529472,0.0485588759183883,-0.0268742013722658,0.0374829247593879,0.2561386976370587,-7.976188722786307,-5.6995776692658655,50,standing
1783066054541612800,4.9421752,-0.0707861305640079,0.1169657527357339,-0.1161456685245037,0.0363529175519943,-0.0144467391073703,0.0276421476155519,0.2472088653967715,-7.981319655933976,-5.692785524907708,50,standing
1783066054561542000,4.9621044,-0.1632567811263725,0.1247252808213233,-0.1095113450765609,0.0178407989442348,0.0088932588696479,0.0159033313393592,0.2437617206175811,-7.984589471384883,-5.688346665677428,50,standing
1783066054581469700,4.9820321,-0.0908557261790148,0.0984650504052638,-0.1189788461238145,-0.0013665459118783,0.0133264334872365,0.0141336172819137,0.2421392339822836,-7.98541423177123,-5.687258870440721,50,standing
1783066054601397800,5.0019602,-0.1456271077430806,0.1426706873565912,-0.1513864932537078,-0.0181308090686798,0.0239937137812376,8.5646170191e-06,0.2428914223227649,-7.984279674783348,-5.688819543886185,50,standing
1783066054621325800,5.0218882,-0.158735960967373,0.1743564499527216,-0.1308639297068119,-0.0238272100687026,0.0591866746544837,-0.0077634672634303,0.2479201189386658,-7.981548203992843,-5.6924336427301165,50,standing
1783066054641254000,5.0418164,-0.1554247357938438,0.2391138765454292,-0.1194224982380866,-0.0423908755183219,0.1015548184514045,-0.0151003468781709,0.2583753341153263,-7.977323279774189,-5.697889570048451,50,standing
1783066054661182000,5.0617444,-0.127277321658004,0.2195236254125833,0.0163262809008359,-0.0783522203564643,0.1417751461267471,-0.019709700718522,0.2751191828411072,-7.970751500168443,-5.706296163865924,50,standing
1783066054681110000,5.0816724,-0.015077596013993,0.2124754604667425,-0.0231312847405672,-0.1297639906406402,0.1000413000583648,-0.0238450523465871,0.292356167112384,-7.958616825738549,-5.722354733741283,50,standing
1783066054701037800,5.1016002,-0.0406644206805154,0.1925508628129959,0.0208399589329957,-0.141155257821083,0.0804552137851715,-0.0175693165510892,0.3059718008150346,-7.942582805782556,-5.743879752328992,50,standing
1783066054720967000,5.1215294,-0.055569948063232,0.1933820529401302,-0.0459060111284255,-0.1260721087455749,0.028102857992053,-0.02138895355165,0.3151913367168977,-7.927251965659856,-5.764522727385163,50,standing
1783066054740894700,5.1414571,-0.0845812672857195,0.0954641150236129,-0.0194733467549085,-0.1158605366945266,0.0198141653090715,-0.0076908972114324,0.3198116169286891,-7.913579414138198,-5.783023429715633,50,standing
1783066054760822800,5.1613852,-0.0721713195784017,0.0672433981895446,-0.0514011014133691,-0.1045207753777504,0.0248662997037172,0.0047835237346589,0.3223653930647298,-7.900472679805755,-5.800775944027304,50,standing
1783066054780750800,5.1813132,-0.0536448617521673,0.1311398240387439,-0.1494645852804184,-0.0722074061632156,0.0342434458434581,0.0139653114601969,0.3246386717589571,-7.889848994460701,-5.815090300583839,50,standing
1783066054800678700,5.2012411,-0.0553392445798963,0.1364788469791412,-0.1775064384162425,-0.0298969224095344,0.0343259796500206,0.0040645590052008,0.3264826921904459,-7.883965781641006,-5.822962056872249,50,standing
1783066054820607000,5.2211694,-0.0912353183474391,0.163277422055602,-0.1168698911458253,-0.0045258291065692,0.0389025658369064,-0.023503815755248,0.3324512086734175,-7.882033936795592,-5.825239354154467,50,standing
1783066054840535000,5.2410974,-0.0447330583589151,0.1448047767758369,-0.0804904177755117,-0.0131982993334531,0.0394442714750766,-0.0286249779164791,0.3417635922241955,-7.881068891155719,-5.826005077829957,50,standing
1783066054860462800,5.2610252,0.0239631324548274,0.1272802260011434,-0.0404231958031654,-0.0510810315608978,0.0202856101095676,0.000138041388709,0.3481855150304734,-7.877160777801275,-5.830907462918758,50,standing
1783066054880392000,5.2809544,0.061054443888925,0.1684182920753955,-0.0276122295469045,-0.0537741892039775,-0.0033219773322343,0.0300062820315361,0.3461094759413972,-7.870863723483681,-5.839528576269745,50,standing
1783066054900319700,5.3008821,-0.0431609502039849,0.221881586715579,-0.0429950921177864,-0.0546384826302528,0.0126689691096544,0.0402066335082054,0.340041992595978,-7.864771836349368,-5.848087145778536,50,standing
1783066054920247800,5.3208102,-0.1279590385781601,0.252579507318139,-0.0840618465214967,-0.0484414398670196,0.0502884946763515,0.0204394925385713,0.3390978070810437,-7.858958181634545,-5.855952472326159,50,standing
1783066054940176000,5.3407384,-0.1162140941182151,0.2193734032869339,-0.1370674605220556,-0.0326000563800334,0.0532192029058933,0.0016601318493485,0.3442617291828617,-7.854183222317695,-5.862053711810708,50,standing
1783066054960103700,5.3606661,-0.0070885334888473,0.1792851385265588,-0.127357382890582,-0.0230439603328704,0.0174341779202222,0.0265460442751646,0.3470651692310348,-7.851055445685982,-5.86607756049931,50,standing
1783066054980031700,5.3805941,0.0505565403480082,0.1580231547892093,-0.1094675059348344,-0.0170809831470251,-0.0166542138904333,0.0514827817678451,0.3401471334708854,-7.848947659751772,-5.869302952286601,50,standing
1783066054999960000,5.4005224,-0.093883787029609,0.1843313160002231,-0.0826280143260955,-0.0097864689305424,-0.0005969096673652,0.0324525721371173,0.3321068156825378,-7.84757169522345,-5.871601292356848,50,standing
1783066055019889000,5.4204514,-0.0833529310671612,0.1686228747367859,-0.0985036288499832,-0.0138260992243886,0.0175381693989038,0.0144552886486053,0.3296563172578811,-7.846677961254119,-5.872934586787223,50,standing
1783066055039817500,5.4403799,-0.0054781756827607,0.1498182210236787,-0.0563292054653167,-0.0228615477681159,-0.0105487303808331,0.0402623824775218,0.3263012712089345,-7.844482497036457,-5.876053011068701,50,standing
1783066055059745500,5.4603079,0.0963102104589343,0.1098702415168285,-0.0670890844106674,0.0119552398100495,-0.0407384596765041,0.0836938321590423,0.3130981638299301,-7.843889791840314,-5.877563415631651,50,standing
1783066055079673600,5.480236,0.0236063549064099,0.1500871010929346,-0.1168716447114944,0.1002152040600776,-0.0567460507154464,0.1017961427569389,0.2924283920983784,-7.850587828174233,-5.869680553427338,50,standing
1783066055099601400,5.5001638,-0.052949554698076,0.3113274643629789,-0.2547171038687229,0.1760080903768539,-0.1004983857274055,0.0763329043984413,0.269175764266774,-7.867727179023623,-5.8478030681401485,50,standing
1783066055119529500,5.5200919,0.0686389990000985,0.134155372467637,-0.1576373703420162,0.1709953844547271,-0.1255234032869339,0.0851494297385215,0.2433553317737765,-7.88942287800312,-5.819636127319932,50,standing
1783066055139457800,5.5400202,0.1346538417753763,0.0768470928370952,0.0555108748197555,0.0871787443757057,-0.1041321456432342,0.1189794316887855,0.2135527160431258,-7.904989280447364,-5.799649570345879,50,standing
1783066055159386600,5.559949,0.0913700141103938,0.0723041887104511,0.0343120194464922,-0.0007348926737904,-0.1218759939074516,0.1217336654663086,0.1814192644784227,-7.910470926728844,-5.793264253222942,50,standing
1783066055179314700,5.5798771,0.0379977496213745,0.1104272908776998,0.0548421817779541,-0.0667184218764305,-0.1849107891321182,0.1259215474128723,0.1454578338570892,-7.906696084365248,-5.799429790115356,50,standing
1783066055199242500,5.5998049,0.0962485525327268,0.0921954686164855,0.0860731863439083,-0.0902761667966842,-0.2360207289457321,0.1550388634204864,0.0988787914384622,-7.897443102851509,-5.813003557437658,50,standing
1783066055219170600,5.619733,0.0393448442482389,0.1564063672423362,0.2724602658301592,-0.0718864873051643,-0.1493938416242599,0.1906082034111023,0.0477443553043762,-7.888032300427556,-5.826410151499509,50,standing
1783066055239098600,5.639661,-0.1241677200037986,0.214544667956233,0.1950035166621208,0.0332002416253089,0.0229127611964941,0.182802528142929,0.0096949771021085,-7.88436968626678,-5.831553359606862,50,standing
1783066055259026400,5.6595888,-0.6027315366486087,0.4656318908900022,-0.407958869600296,0.3040579855442047,0.0818313434720039,0.0650186464190483,-0.0037497632920887,-7.903069710561633,-5.80619153933525,50,standing
1783066055278954500,5.6795169,-0.6628798254780471,0.3906289646148681,-0.6496417198508978,0.549136221408844,0.275478720664978,-0.0514814108610153,0.015098748399876,-7.953612733840941,-5.73674098649025,50,standing
1783066055298883600,5.699446,-0.3349654565166682,0.3111608756244182,-0.3121802818000316,0.4937030375003814,0.3265522718429565,-0.1326724141836166,0.0681616272793151,-8.01615014629662,-5.6486342484921215,50,standing
1783066055318811600,5.719374,0.7330575966190547,-0.2387824526339769,0.3906640359282493,0.0585854910314083,-0.1440077722072601,-0.0620112121105194,0.0977305255856365,-8.0497940572232,-5.60014698869884,50,standing
1783066055338739700,5.7393021,0.7907612322427332,-0.255298703148961,1.6465613383680582,-0.5028145909309387,-0.2242840379476547,0.153897151350975,0.0718996219309745,-8.025496066790819,-5.635300719666481,50,standing
1783066055358667500,5.7592299,-0.2783666768623515,0.1165343755811452,1.415925951832533,-0.849362850189209,-0.1309162676334381,0.3070186376571655,0.0124606880889332,-7.945424166688323,-5.748084802803397,50,standing
1783066055378595600,5.779158,-0.2958583117481321,0.3750426884263754,-0.101012396800518,-0.7457679510116577,-0.260068267583847,0.1988995969295501,-0.0524979613059433,-7.849590633830427,-5.878057336628436,50,standing
1783066055398523600,5.799086,-0.7918341221712529,0.6512924096673727,-0.6541326015293598,-0.3944764733314514,-0.3194756209850311,0.0511379018425941,-0.1074879768896382,-7.781374006694555,-5.967331364840269,50,standing
1783066055418452500,5.8190149,-0.7045434497963636,0.6487099919587374,-0.59652212408185,-0.0743309557437896,-0.3433026969432831,-0.0920736417174339,-0.1401607412291225,-7.755149432113766,-6.000699965956807,50,standing
1783066055438380500,5.8389429,0.0632710422261618,0.2440606852978467,-0.5867553478270768,0.0516600832343101,-0.346987634897232,-0.0958195030689239,-0.1681668928639031,-7.755718756434321,-5.999243921929597,50,standing
1783066055458308600,5.858871,0.0880827908669598,-0.0922276173204183,-0.5694733736366033,0.0704011023044586,-0.4126289784908294,0.016204060986638,-0.2100373831322416,-7.762848754444718,-5.988693886342644,50,standing
1783066055478236700,5.8787991,0.0613752916074357,-0.2112222455352544,-0.2239414418548345,0.0894199535250663,-0.4330910444259643,0.0242414325475692,-0.2638349329617805,-7.773290653482079,-5.973000642648339,50,standing
1783066055498164700,5.8987271,0.2548204911779612,-0.1037923829078674,-0.1620844128787517,-0.0786904543638229,-0.3423812389373779,0.000535209197551,-0.3121316203527152,-7.775824555873871,-5.967371112328768,50,standing
1783066055518092500,5.9186549,0.5536677190763876,-0.3357920435339212,0.1741232257187366,-0.3332366943359375,-0.1704426556825637,0.1876429617404937,-0.3533030041746795,-7.750324788436293,-5.998168401652574,50,standing
1783066055538020600,5.938583,0.2604372716138139,-0.5148030412942171,0.1529430750459432,-0.41383758187294,0.0374374389648437,0.3246767818927765,-0.4042388992290943,-7.700600095802545,-6.058690382632613,50,standing
1783066055557949400,5.9585118,-0.1889388097956776,0.2772808178544044,-0.5159001888811588,-0.2862553298473358,-0.0725528374314308,0.1607533097267151,-0.4420830748571083,-7.654713958418369,-6.113943483299017,50,standing
1783066055577877500,5.9784399,-0.2923668894357979,0.510612603867054,-0.7527239086627959,-0.0589696653187274,-0.1019046679139137,-0.0287162773311138,-0.4650986973287537,-7.632315079605579,-6.140182670927048,50,standing
1783066055597805600,5.998368,-0.0113570045882835,-0.1499760419338941,-0.8553630298823117,0.0769849345088005,-0.2129152864217758,0.0697120651602745,-0.49187422032319,-7.633273695504664,-6.136902334082127,50,standing
1783066055617733400,6.0182958,0.2957034499799832,0.0625678075939416,0.2467208444178104,0.1641887426376342,0.0143325319513678,0.0040392503142356,-0.5011558799421414,-7.650540472126006,-6.114610422775149,50,standing
1783066055637661700,6.0382241,-0.365746488825418,-0.0208113173604011,-0.3927537016838788,0.1125193014740943,0.0924337804317474,-0.0338043421506881,-0.4951187186697497,-7.667568763816356,-6.093736561572551,50,standing
1783066055657589800,6.0581522,-0.3671875544792041,0.4252127867400646,-0.480524339595437,0.0363247357308864,0.0901602283120155,-0.1690606027841568,-0.467790274500288,-7.676949755623936,-6.08407733734548,50,standing
1783066055677517600,6.07808,0.3014871844805777,0.0953238297700881,-0.3964613240301609,0.0168919637799263,0.0825700163841247,-0.125925526022911,-0.4324200877703726,-7.6822496155977245,-6.080003804296255,50,standing
1783066055697446700,6.0980091,0.4467914352111518,-0.2086503492206335,0.1986766522169113,0.0627873688936233,0.1918676346540451,0.054824199527502,-0.4045937040161341,-7.688474189200997,-6.074046941718459,50,standing
1783066055717374500,6.1179369,-0.0710351551553234,0.2053723504632711,-0.2507224812746048,0.1333469003438949,0.1112823113799095,0.082947127521038,-0.400622644960694,-7.698624996337294,-6.061439973601699,50,standing
1783066055737302500,6.1378649,-0.345118565207906,0.714454091501236,-0.3896767784565687,0.1817331165075302,-0.1132720336318016,-0.0241591241210699,-0.4047154306996613,-7.718091913351416,-6.036360477402806,50,standing
1783066055757230600,6.157793,-0.3165963812092319,0.5961527062475681,-0.4257604837507009,0.2300197333097458,-0.0651651695370674,-0.0792291760444641,-0.4088467218181118,-7.743292990103363,-6.003718436995149,50,standing
1783066055777158400,6.1777208,-0.0919157383596524,0.1368190387189388,-0.2203986546814441,0.2028177231550216,0.0911699756979942,-0.0163669399917125,-0.3988956750376149,-7.769982844108343,-5.96980973765254,50,standing
1783066055797086500,6.1976489,0.1136677706362679,0.1403419521480798,0.1222562603592872,0.2113813161849975,0.1715720891952514,0.012978570535779,-0.379124843173474,-7.794455022063851,-5.939118831312656,50,standing
1783066055817014800,6.2175772,-0.0046771249655634,0.303906374451518,-0.0910913067668676,0.2606822550296783,0.0449572801589965,-0.0158346146345138,-0.3673218118507415,-7.821998862549662,-5.903540737453103,50,standing
1783066055836943600,6.237506,-0.0695768461057916,0.3871510593712329,-0.0331891528964042,0.2810236513614654,-0.0222953408956527,-0.0423190928995609,-0.3612297055207192,-7.854516399794816,-5.860587146389484,50,standing
1783066055856871700,6.2574341,-0.0244117895377799,0.2982376811653375,-0.1150976207762956,0.2101623266935348,-0.0964402556419372,-0.0282145403325557,-0.3632991687385365,-7.884114834722876,-5.820577207562327,50,standing
1783066055876799500,6.2773619,-0.0085398648083209,-0.0275333190917968,0.4197720569908618,0.0738096460700035,-0.0231187958270311,0.0114737404510378,-0.3689959921406582,-7.901314391326903,-5.796849710494279,50,standing
1783066055896727600,6.29729,-0.2179948814753443,0.109651045808196,0.5326169304043055,-0.0980316177010536,0.0779114216566085,-0.0397505648434162,-0.3661902870701625,-7.899784697541594,-5.799112394729256,50,standing
1783066055916655600,6.317218,-0.5204570850005373,0.2412169863045215,0.1782651478290557,-0.2139293551445007,0.1048232018947601,-0.1891911029815673,-0.3354700815705582,-7.882311584693193,-5.824690488100051,50,standing
1783066055936583400,6.3371458,-0.4872675667779519,0.2625362531870603,-0.1044505545556545,-0.2124430835247039,0.1776765137910843,-0.2538096606731415,-0.2824681938970461,-7.857991382429003,-5.860253968912363,50,standing
1783066055956512800,6.3570752,-0.0923416173552162,0.1887111385196447,-0.4327618869453668,-0.1727875918149948,0.1744294464588165,-0.2262488007545471,-0.2251895056871697,-7.835192690643668,-5.893167811998724,50,standing
1783066055976440600,6.377003,0.1811815467324107,-0.0194289230912923,-0.0988555110275745,-0.0128914723172783,0.1996817290782928,-0.080743134021759,-0.1771414410287514,-7.824425212913751,-5.909093695405125,50,standing
1783066055996368600,6.396931,0.0208511927130632,0.3167331227988004,-0.3286281432539224,0.1388470828533172,0.129232257604599,-0.0123828575015068,-0.1516346136627253,-7.832581046840548,-5.8989896500200025,50,standing
1783066056016296700,6.4168591,-0.239838135699369,0.4894377138912677,-0.2867518260329961,0.2140490859746933,0.1202238574624061,-0.0057138567790389,-0.1375477731185965,-7.853852382928133,-5.870985206285119,50,standing
1783066056036224000,6.4367864,-0.3057725153832696,0.4619587553352117,-0.1965203509658575,0.2549364566802978,0.1158204451203346,-0.0282431356608867,-0.1206946827315259,-7.881290424951911,-5.834473630967736,50,standing
1783066056056151800,6.4567142,-0.1436400803780183,0.4041898724555969,-0.3768143742740154,0.2733790278434753,0.03521329164505,-0.0752676799893379,-0.1034116490951273,-7.912256641101837,-5.792744028741121,50,standing
1783066056076079900,6.4766423,-0.0654202378829941,0.1158060613065957,-0.3231827373296022,0.2950855493545532,0.123363122344017,-0.0668529793620109,-0.0848159528244286,-7.944996296665072,-5.748063760015368,50,standing
1783066056096008000,6.4965704,-0.2063411589628085,0.1967249336272478,-0.345911871010065,0.2596036195755005,0.2202336192131042,-0.0791983231902122,-0.0540282167802564,-7.977431416323781,-5.70333731406033,50,standing
1783066056115937000,6.5164994,-0.1255564892147667,0.2145300549089908,-0.1246346799284219,0.1906931549310684,0.2976571023464203,-0.087083987891674,-0.0109131104454165,-8.002867470875382,-5.667836377090215,50,standing
1783066056135865000,6.5364274,0.0801107890744693,0.2291062772721052,-0.1759592089742422,0.1906362324953079,0.2804746627807617,-0.063762329518795,0.0348107718820218,-8.023279559785127,-5.63880843552649,50,standing
1783066056155793000,6.5563554,0.1332173061662353,0.166250300386548,-0.1451338625997305,0.2445330768823623,0.2273420691490173,-0.0064205625094473,0.0684940786706516,-8.047662890413402,-5.603643014121055,50,standing
1783066056175721000,6.5762834,0.0214142882222309,0.2745575303703546,-0.1902653822243213,0.2120299190282821,0.1396375447511673,0.0177862737327814,0.0873720853143371,-8.073670022851228,-5.565844321602583,50,standing
1783066056195649000,6.5962114,-0.1216284016513731,0.3629039223432541,0.0614881956636905,0.0903966650366783,0.0963286459445953,0.0089710792526602,0.0970878803005442,-8.09078833091259,-5.540768332535028,50,standing
1783066056215576800,6.6161392,-0.1144777444454375,0.2011485952883958,0.1480196471691131,-0.0362405702471733,0.111792542040348,-0.0100427372381091,0.1095396395892836,-8.094082111760974,-5.535720986017584,50,standing
1783066056235505000,6.6360674,0.00871159551288,0.0544043748825788,0.0029471593677997,-0.135534182190895,0.1505452990531921,0.0239260662347078,0.1228198033930268,-8.084407105442882,-5.549564217931032,50,standing
1783066056255434000,6.6559964,0.0227502130011096,0.0788432350903749,0.0125134446144104,-0.1792631596326828,0.162968173623085,0.0569990165531635,0.1339203581353649,-8.066199248579144,-5.5757396926730864,50,standing
1783066056275362000,6.6759244,-0.070296465617232,0.1584767437756061,0.154482121181488,-0.1144949495792388,0.1317722350358963,0.090115375816822,0.1389800070119556,-8.049017227631808,-5.6003930724143975,50,standing
1783066056295290000,6.6958524,-0.0515209284007549,0.2412935586720705,-0.042544425740838,-0.0024726297706365,-0.0029471493326127,0.0783646628260612,0.1321756881588138,-8.04294930589497,-5.609267868265509,50,standing
1783066056315218000,6.7157804,-0.0737189052134286,0.2093909384548664,-0.1969225020259618,0.0569583736360073,-0.0346470288932323,0.0838434994220733,0.1163655126871075,-8.046810072976351,-5.604077898406982,50,standing
1783066056335146000,6.7357084,-0.171791969759576,0.1359077690929174,-0.144366385358572,0.0488258823752403,-0.0058067762292921,0.0631894022226333,0.1025098596835043,-8.053532074707746,-5.594684631639718,50,standing
1783066056355074000,6.7556364,-0.1415499579646624,0.1029395654708147,-0.0332177944689989,0.0240638721734285,-0.0207384172827005,0.0472863763570785,0.0930672373491805,-8.057824218943715,-5.588666978785395,50,standing
1783066056375001900,6.7755643,0.0526025587581563,0.0852267986476421,-0.0005658171892166,-0.0171448085457086,-0.0719605013728141,0.071915864944458,0.0790784503520466,-8.058367239779233,-5.5880994080305095,50,standing
1783066056394931000,6.7954934,0.1216729349128436,0.0822778857141733,0.0244686708241701,-0.0450128987431526,-0.1284262537956237,0.1027602851390838,0.0535526397243374,-8.055119051638245,-5.593082457140088,50,standing
1783066056414858800,6.8154212,0.041280835545808,0.1237315936088561,0.0292442146629095,-0.0831373557448387,-0.136335089802742,0.1226271539926529,0.0197712451393832,-8.047790900707245,-5.603843505129218,50,standing
1783066056434787000,6.8353494,-0.0520572135348105,0.2136199543267488,0.2163081704974174,-0.1066690012812614,-0.1594695001840591,0.1157918497920036,-0.015429386860039,-8.037870979717374,-5.618076028621196,50,standing
1783066056454715100,6.8552775,0.0768965580020099,0.1191974573105573,-0.0236737210541963,-0.181305393576622,-0.1448139995336532,0.1182775571942329,-0.0526553940570913,-8.021109814530611,-5.6417550103724,50,standing
1783066056474643000,6.8752054,-0.1592511987468227,0.1210281798690557,-0.1106108307510614,-0.1486929208040237,-0.0254505407065153,0.0841348022222518,-0.0789719121044967,-8.001243084543942,-5.669589942759275,50,standing
1783066056494571000,6.8951334,-0.2156890156857669,0.2260328611761331,-0.3361222984015941,-0.0422307215631008,-0.0224765483289957,0.0266939289867877,-0.0895716137857642,-7.989980516773461,-5.685294876891375,50,standing
1783066056514499000,6.9150614,-0.0944427269534673,0.0706926618605852,-0.3008779665410518,0.0709445476531982,-0.048083521425724,0.0059590465389192,-0.0964949102429207,-7.991759216883778,-5.682680895000696,50,standing
1783066056534427000,6.9349894,-0.063031817509653,0.0651736061781644,-0.2816507035017013,0.1503172218799591,-0.0495384559035301,-0.0152398068457841,-0.100970977944741,-8.004495948860049,-5.664647810181975,50,standing
1783066056554356000,6.9549184,-0.0761240940584801,0.0806336256384849,-0.2622878313839435,0.1841715276241302,-0.0089016184210777,-8.25578463263e-05,-0.10269274196974,-8.023846546018124,-5.637174696844816,50,standing
1783066056574283800,6.9748462,-0.0573064895322546,0.0722486591309309,-0.1176864682257175,0.1569128930568695,0.0346795618534088,0.0123264389112591,-0.1025065717478748,-8.043294173809885,-5.609393540471792,50,standing
1783066056594211800,6.9947742,-0.046067339169979,0.06141454590559,-0.0873871915519237,0.0645333528518676,0.0678606107831001,0.0049418942071497,-0.0981832834549713,-8.056102801978588,-5.591060595923662,50,standing
1783066056614140200,7.0147026,-0.0745543331242632,-0.0538689528316259,-0.0213508310645818,-0.013232939876616,0.1191193014383316,-0.019967895001173,-0.0861563985147979,-8.058284237670899,-5.588113436555863,50,standing
1783066056634068000,7.0346304,-0.0592856852173106,0.0720604430824518,-0.119962596464157,0.0015235849423334,0.0435807295143604,-0.0380405522882938,-0.0713478606665739,-8.056872617307304,-5.590358000612259,50,standing
1783066056653996000,7.0545584,0.0188260435610078,0.0881838948875665,-0.0300076002508401,0.0278926081955432,-0.0322900675237178,-0.0154590746387839,-0.0662610908876173,-8.059079771962761,-5.587238407287002,50,standing
1783066056673924000,7.0744864,0.0649333265823079,0.1613572676479816,0.1186596971720457,-0.0100984741002321,-0.0646620616316795,0.0158224590122699,-0.072265683330968,-8.06042709491849,-5.585220637723803,50,standing
1783066056693852000,7.0944144,-0.0182561164522543,0.2104232041120529,0.122689391079545,-0.0744490623474121,0.001619603484869,0.0437947958707809,-0.0809535143757704,-8.055473271903395,-5.592243083706498,50,standing
1783066056713781000,7.1143434,-0.1339285231755115,0.2616600548744202,0.0323678996413946,-0.0631361231207847,0.0654379799962043,0.0474281050264835,-0.0839438735644798,-8.046556390476226,-5.605021316736936,50,standing
1783066056733708800,7.1342712,-0.1267798752635717,0.2134305692344903,-0.1007967082232236,0.0007138584041967,0.0295906718820333,0.0128625333309173,-0.0831616645450703,-8.043218185964227,-5.609822579538822,50,standing
1783066056753636900,7.1541993,-0.0713865806751884,0.0622118337631225,-0.0863929198175668,-0.0537339262664318,0.0398999899625778,-0.0041802716441452,-0.0806451334131881,-8.041337194523214,-5.612555219373107,50,standing
1783066056773565000,7.1741274,-0.0334375473000574,0.1018032549172639,0.0456529131501913,-0.1279199421405792,0.0358289293944835,-0.0304429959505796,-0.0723560969942016,-8.030800602939724,-5.627734083804488,50,standing
1783066056793493000,7.1940554,0.0127502947107423,0.0526011248528957,-0.0731745418041944,-0.1352263838052749,0.0422767512500286,-0.0164357870817184,-0.0646744473172584,-8.015417740368843,-5.649716198509931,50,standing
1783066056813421000,7.2139834,-0.0451268662823596,0.1068546930879354,-0.1758721152126789,-0.0981247350573539,0.0836531072854995,0.0111784385517239,-0.0573748922930797,-8.002183580264449,-5.668523774832487,50,standing
1783066056833348900,7.2339113,-0.1383431886794511,0.0754056618571281,-0.2468979545503854,-0.0685935989022255,0.1190672069787979,0.0123881818726658,-0.0484044586143456,-7.993180189597606,-5.681294993600249,50,standing
1783066056853277000,7.2538394,-0.1316315256789792,0.1240712008267641,-0.1186380698621273,-0.0314738191664218,0.0839462429285049,-0.0156138036400079,-0.0355135795392678,-7.987377056276798,-5.689545520073176,50,standing
1783066056873205000,7.2737674,0.017944369922229,0.0991413422316312,-0.2653776140928268,0.0064886123873293,0.0142434909939765,-0.0253467205911874,-0.027371472743724,-7.986090523597597,-5.691396116375923,50,standing
1783066056893133800,7.2936962,-0.1316349871445447,0.0411520945996046,-0.0655763417601585,-0.0102044520899653,0.1270125210285186,-0.0252676252275705,-0.016207053276716,-7.98630971930623,-5.691132497003674,50,standing
1783066056913062000,7.3136244,-0.2588264571500011,0.1623024395436048,-0.1558013870865106,-0.0021102561149746,0.1574598997831344,-0.0733402520418167,0.0084826193373941,-7.985357533147931,-5.692485665178299,50,standing
1783066056932990000,7.3335524,-0.0807607408831827,0.1615250254303216,-0.1249865621060132,0.0114096459001302,0.0818046033382415,-0.0915323123335838,0.036617529043043,-7.985925688424706,-5.691576733639836,50,standing
1783066056952917800,7.3534802,0.0939039621679578,0.11227321100533,-0.0299450564086437,-0.011182420887053,-0.0207433551549911,-0.0681696459650993,0.05259125647943,-7.986353558447957,-5.6908507574528455,50,standing
1783066056972846000,7.3734084,0.0410886054759146,0.1927992846161127,0.1107926170587539,-0.101394236087799,-0.0009640956996008,-0.0320002697408199,0.0579713283828459,-7.980390266129374,-5.69915915159285,50,standing
1783066056992774000,7.3933364,-0.1100224638033192,0.2743471024900674,0.0579319644868373,-0.1258215755224228,0.0842840671539306,-0.0135126588866114,0.0661787189669441,-7.966317901635169,-5.718721930196881,50,standing
1783066057012702000,7.4132644,-0.1254766654442064,0.3452905242413282,-0.100064886817336,-0.0480675809085369,0.0559518299996852,-0.0319269523024559,0.0784904669967945,-7.955859051463007,-5.733108182945848,50,standing
1783066057032634600,7.433197,-0.0585719154913444,0.3087976536244153,-0.1312847854673862,-0.0044996999204158,0.0026380042545497,-0.0398456864058971,0.0876016562865115,-7.953782829710841,-5.735856020349264,50,standing
1783066057052562400,7.4531248,-0.0444681968776509,0.2552653854012489,-0.104397363063693,-0.0099608274176716,0.0443715751171112,-0.0150159643962979,0.093998307654215,-7.952772775885462,-5.737154827988148,50,standing
1783066057072490500,7.4730529,-0.036775395619031,0.2797948465019464,-0.1732815141975879,0.016766283661127,0.0831876695156097,0.0137357013300061,0.1012691937063355,-7.952612616887688,-5.737254196709394,50,standing
1783066057092419600,7.492982,-0.00763620310002,0.2405675824850797,-0.3405260863184928,0.0556640960276126,0.0520075112581253,0.0119743766263127,0.1065467139841523,-7.9569298955649135,-5.731168739315868,50,standing
1783066057112347600,7.51291,-0.0135426049990579,0.1299900694817304,-0.3090951752662658,0.0273820180445909,0.072956882417202,0.0209170021116733,0.1103581072321627,-7.962471163079142,-5.723395767226815,50,standing
1783066057132275500,7.5328379,-0.0514011105465237,0.1081540852487087,-0.1471755975604057,-0.0152090387418866,0.1408569067716598,0.035634558647871,0.1181395274891518,-7.962781544202565,-5.72280832272768,50,standing
1783066057152203500,7.5527659,-0.0297395878312643,0.120607908630371,-0.1642412986516952,0.0352408736944198,0.1256467700004577,0.0310755874961614,0.1289491912598256,-7.963264359283447,-5.721902898320556,50,standing
1783066057172131600,7.572694,0.0320515363017562,0.1362204883038997,-0.158100311678648,0.0856422185897827,0.0424379035830497,0.0209564138203859,0.1341958140758797,-7.970796508353948,-5.711285058194399,50,standing
1783066057192059400,7.5926218,0.0275093628274742,0.0780155520945787,-0.0463742131620645,0.0367977805435657,0.0102767124772071,0.0235079042613506,0.1332013596784323,-7.978880446088313,-5.700008461898565,50,standing
1783066057211987500,7.6125499,-0.0198026152418926,0.0930371801376342,0.0862736773520708,-0.0348531007766723,0.0673751011490821,0.0495707057416439,0.1318810982595663,-7.978639623069763,-5.7003772952109575,50,standing
1783066057231915500,7.6324779,-0.0766135306763928,0.142734400242567,0.0065185881137847,-0.0188294742256402,0.0571441128849983,0.0404117815196514,0.1318297516648192,-7.97446730582118,-5.706214915323257,50,standing
1783066057251843300,7.6524057,-0.0781614816376008,0.1820955197721719,-0.087610478913784,0.0289912056177854,-0.0269075464457273,0.0032541221007704,0.1305347434182185,-7.9756708363920445,-5.704562471941113,50,standing
1783066057271771400,7.6723338,-0.0247399163804482,0.1050298157483339,0.0236935947984457,-0.0205982532352209,-0.0328554846346378,0.0079687256366014,0.125296477438556,-7.977163705298304,-5.702590295085311,50,standing
1783066057291700500,7.6922629,-0.0725626478503923,0.1161105972111225,0.1477075124800205,-0.0980783253908157,-0.0019373233662918,0.0115512842312455,0.1211949056049343,-7.969540955334901,-5.713328546720743,50,standing
1783066057311628500,7.7121909,-0.1135189732827246,0.1460907249331474,0.0006119944185018,-0.1108925566077232,-0.0037038391456007,0.0036333608441054,0.1198037526406347,-7.956874950507283,-5.730984030398727,50,standing
1783066057331556600,7.732119,-0.1396959915278945,0.1024678563058376,-0.1410240891933441,-0.0820897966623306,0.0174898095428943,-0.0091359233483672,0.120991208859533,-7.945573219770193,-5.746617068338394,50,standing
1783066057351484400,7.7520468,-0.1367191220084205,0.1524322029143572,-0.1609217988401651,-0.0485775284469127,0.024314085021615,-0.0327227190136909,0.1263941090826876,-7.938225779616832,-5.756646879443526,50,standing
1783066057371412500,7.7719749,-0.0639400640615262,0.1081248591542243,-0.2415758827447891,-0.052325963973999,0.0287695806473493,-0.0263525359332561,0.1336711600141134,-7.932674575230479,-5.764129344153404,50,standing
1783066057391340500,7.7919029,-0.0394158636578358,0.1052981112957,-0.0905681596755981,-0.0675937160849571,0.0826281756162643,-0.006355635356158,0.1425162000477779,-7.925209061655401,-5.774177859959006,50,standing
1783066057411268400,7.8118308,-0.0395263748276047,0.1538712958067655,-0.270450095051527,-0.0334833301603794,0.0568240396678447,-0.0308783277869224,0.1539992513016797,-7.918567139422893,-5.782988942924142,50,standing
1783066057431196400,7.8317588,-0.0918656338739208,0.1086713871210813,-0.1418880125463008,0.0165741648524999,0.0783784165978431,-0.0385568030178546,0.1675821152458898,-7.91750973932445,-5.784060371547937,50,standing
1783066057451124700,7.8516871,-0.0538737568709068,0.2446843701541423,-0.1264952131032943,0.0317340679466724,0.0400751307606697,-0.0620902106165885,0.1827117702406831,-7.920794167822599,-5.779102456879616,50,standing
1783066057471052500,7.8716149,-0.0155091375653631,0.1854115124523639,-0.1366308226704597,-0.0079785315319895,0.0505472980439662,-0.0660426616668701,0.1971690423992462,-7.922274177247285,-5.776597780582309,50,standing
1783066057490980600,7.891543,-0.1225834647533483,0.2546305946290493,-0.0876584097087383,-0.0436158291995525,0.1420692503452301,-0.0500125922262668,0.2177531086087226,-7.918319886663555,-5.7812780473530285,50,standing
1783066057510908700,7.9114711,-0.1860135699987411,0.2685807940483093,-0.085508538198471,-0.0357118882238864,0.2125744223594665,-0.0452720709145069,0.2457190652304328,-7.913416332530975,-5.786869583749771,50,standing
1783066057530837500,7.9313999,-0.227790975156147,0.2720090149313211,0.0127238724946975,-0.0407862029969692,0.2810059785842895,-0.0670215934514999,0.2827078661381267,-7.909063398018479,-5.791130163803697,50,standing
1783066057550765600,7.951328,-0.2837538863260299,0.2817816364049911,0.1225111119031906,-0.0201524291187524,0.3637950718402862,-0.1122113987803459,0.3322365430094302,-7.902675158286094,-5.797217959284782,50,standing
1783066057570693400,7.9712558,0.0233303875092417,0.3346662543743848,-0.0925537805348634,0.0641180723905563,-0.0423833280801773,-0.1678812503814697,0.3784466516509652,-7.904682406455278,-5.7916457121104,50,standing
1783066057590621400,7.9911838,0.1922720093389973,-0.0887812762588262,-0.1071598135143518,0.0065726488828659,-0.150574654340744,-0.0574803240597248,0.3815881280144676,-7.909199591618776,-5.785269747337699,50,standing
1783066057610549500,8.0111119,0.1055075527952983,0.1454986042588949,-0.0451782813757658,-0.1289936453104019,-0.1160069555044174,0.0439090579748153,0.3665990870667621,-7.901664519938826,-5.796523547279834,50,standing
1783066057630477600,8.03104,0.0403166301561519,0.0562888734549284,-0.1178413665264844,-0.2036362141370773,-0.084702230989933,0.0869529843330383,0.3429052000073715,-7.882634825298189,-5.823818381440639,50,standing
1783066057650405600,8.050968,-0.1235722017960622,0.1648018551439046,-0.1161632041811943,-0.2520968019962311,-0.0373235084116458,0.038591630756855,0.325433292735368,-7.8560250507920975,-5.860661380669474,50,standing
1783066057670333700,8.0708961,0.1620866413684561,0.3482289157807827,0.037760698595643,-0.2236749827861786,-0.1207332387566566,0.0207228381186723,0.3154070618268102,-7.827863955190777,-5.898766362658143,50,standing
1783066057690261500,8.0908239,0.3102837274637073,0.0445066657245159,-0.099514851719141,-0.262609452009201,-0.2010601907968521,0.0792443230748176,0.2857229031103663,-7.799924393385648,-5.937165359157324,50,standing
1783066057710189600,8.110752,0.0196966158504597,0.2178068846225738,-0.0283130712926387,-0.2429736405611038,-0.0826371312141418,0.0529391877353191,0.2569833500339649,-7.769567833566665,-5.978140343624353,50,standing
1783066057730117600,8.13068,-0.2449600635566748,0.3879442555755376,-0.2464239072978496,-0.1635242998600006,0.040425818413496,-0.0116678588092327,0.2513943526541814,-7.744727406820655,-6.0105222717911,50,standing
1783066057750045400,8.1506078,-0.1588002583752386,0.2519949854284525,-0.3446189085900783,-0.0138235492631793,0.095069445669651,-0.0283310431987047,0.2645940442333929,-7.733725535812973,-6.024107145029306,50,standing
1783066057769973500,8.1705359,0.0867106622635386,0.2146820306003093,-0.4064975648760795,0.0756744891405105,0.046285405755043,0.0107812900096178,0.2751129357634112,-7.738310525515675,-6.017744624260067,50,standing
1783066057789902300,8.1904647,0.1610237613772973,0.0616489391833543,-0.2293956156075,0.072505384683609,0.0058260043151676,0.0455048270523548,0.2729251799281686,-7.748083731511235,-6.005255729565024,50,standing
1783066057809830700,8.2103931,-0.0233149524780921,0.0688759678274393,-0.1089952122479677,0.0358652621507644,-0.0001059960341081,0.0422497764229774,0.2658775812379084,-7.754861262822151,-5.996817571565509,50,standing
1783066057829758700,8.2303211,-0.0001799414104782,0.0870417391151189,-0.1268809975504875,-0.0245260801166296,0.0144837135449051,0.0603409074246883,0.2589032121806405,-7.755968931803107,-5.995690613362193,50,standing
1783066057849686500,8.2502489,-0.048949415678624,0.0089618896126747,-0.1393745684206485,-0.0477897338569164,0.0567537546157836,0.0688021406531333,0.2529054148042574,-7.751360561224818,-6.001901742962002,50,standing
1783066057869614600,8.270177,-0.1418139609294012,0.1323831020981073,-0.206112939697504,-0.0102139012888073,0.0716093927621841,0.0340108945965766,0.2526953887827694,-7.747889670243858,-6.006391455596685,50,standing
1783066057889542700,8.2901051,-0.1327227275823242,0.1141834285408258,-0.1264519584834575,0.0247474312782287,0.0949951335787773,0.0386785343289375,0.2576700353901833,-7.748843025445938,-6.004948855572938,50,standing
1783066057909470500,8.3100329,-0.0903335289358161,0.100298111051321,-0.1269055474698543,0.0481070429086685,0.0831826999783515,0.0485323965549469,0.2612196906957775,-7.753363717740774,-5.998958090725541,50,standing
1783066057929398500,8.3299609,-0.1082720673388801,0.0726087246149778,-0.0410042105615139,0.0377371050417423,4.39850846305e-05,0.0132200689986348,0.261650647725258,-7.7588944638609885,-5.9917854226171965,50,standing
1783066057949326600,8.349889,-0.0258424251290969,0.0865636002093553,0.1132230590760707,-0.0405320860445499,-0.0718593448400497,-0.0042510307393968,0.2561345877175219,-7.759231732991338,-5.991586685174704,50,standing
1783066057969254400,8.3698168,-0.0759160590646788,0.1025730702459812,0.133000941735506,-0.1042965650558471,-0.0160248298197984,0.0047987401485443,0.2500942846399732,-7.749802810388803,-6.004031740728021,50,standing
1783066057989182500,8.3897449,-0.2028740308415144,0.2035971574842929,-0.1290811379432678,-0.0873820930719375,0.0586295239627361,0.0153767624869942,0.2518053994067944,-7.737251371851563,-6.02012713548243,50,standing
1783066058009110500,8.4096729,-0.1151959483179263,0.1556131710380315,-0.2438099254071712,-0.0110050123184919,0.0453133545815944,0.0167803280055522,0.2566033560067415,-7.731465774187445,-6.027352995082736,50,standing
1783066058029035300,8.4295977,-0.0401334373426623,0.1323345867812633,-0.0748158792704343,0.0168108865618705,-0.0283375978469848,0.0159946158528327,0.2554618943540379,-7.732278844135999,-6.0263575543046,50,standing
1783066058048963300,8.4495257,0.100758367240522,0.1267185004651546,-0.041330373775959,-0.0363687388598918,-0.0934590101242065,0.0083053167909383,0.2447549877049401,-7.731600798743963,-6.027672144034504,50,standing
1783066058068892200,8.4694546,-0.0613558562546037,0.1307955406457185,-0.0730067840218544,-0.0731304213404655,-0.0328271836042404,0.0044184862636029,0.2356835733031854,-7.724604656246304,-6.036995852696895,50,standing
1783066058088820200,8.4893826,-0.153778247228451,0.1875391721308231,-0.1370025785923004,-0.0434716530144214,0.0488848499953746,0.0107102952897548,0.2362286034327,-7.7167042583853,-6.047070671987533,50,standing
1783066058108748300,8.5093107,-0.1635269946361892,0.16434417450428,-0.1237573125720024,0.0362598076462745,0.0575366131961345,0.004667354747653,0.2422363376812077,-7.716104538926482,-6.047596741688251,50,standing
1783066058128676400,8.5292388,-0.0709304161392152,0.1983428902179002,0.0083534023255109,0.0530738681554794,-0.0232639070600271,-0.0287584420293569,0.2467545822906307,-7.722420882466435,-6.039347384259105,50,standing
1783066058148604400,8.5491668,0.040359994373843,0.1376701025903224,-0.0516395863443613,-0.0369706414639949,-0.028882885351777,-0.0193193424493074,0.2457470857485197,-7.72384770039916,-6.037563423451781,50,standing
1783066058168532500,8.5690949,-0.0893029437790624,0.1119815345823764,-0.0879541777849197,-0.095072865486145,0.0817126333713531,-0.0102521739900112,0.2510611203781329,-7.714619268804788,-6.049132865214348,50,standing
1783066058188460300,8.5890227,-0.1091081163042224,0.159521284392476,-0.2221001979023218,-0.0507813282310962,0.1152663901448249,0.0045539811253547,0.2647313520785421,-7.704697594249248,-6.061182199448346,50,standing
1783066058208388400,8.6089508,0.0570723154501989,0.1476408769845962,-0.1277683017790317,0.0491753667593002,0.0211903229355812,0.0197616014629602,0.2718311558800749,-7.704639142060279,-6.060943714517355,50,standing
1783066058228316400,8.6288788,0.0504085284457542,0.1589899539947509,-0.023801146826148,0.0628492832183837,-0.032083660364151,0.0379206202924251,0.2648778296108357,-7.71254596966207,-6.051185706090926,50,standing
1783066058248244200,8.6488066,-0.1209428762057796,0.2603787828922271,0.0775257227510213,0.0299504250288009,0.0061969473026692,0.0314473211765289,0.2577115547106601,-7.718166732153296,-6.044324588149785,50,standing
1783066058268172300,8.6687347,-0.0907750621582381,0.2351654311805963,-0.074169398060441,-0.0126850679516792,0.0025721017736941,0.0104833869263529,0.2553765176255256,-7.719738511514663,-6.0424167087018485,50,standing
1783066058288100400,8.6886628,-0.0560135088459588,0.1755634876549243,0.0115437227994203,-0.0728704631328582,0.0420928336679935,0.0243041440844535,0.2553306691898033,-7.714605240279436,-6.048972121694684,50,standing
1783066058308028200,8.7085906,-0.0788115978430956,0.2249672777712345,0.0277951848983764,-0.0770522207021713,0.0493788979947567,0.0381368733942508,0.2564313239080831,-7.70415340436995,-6.062230247196554,50,standing
1783066058327956200,8.7285186,-0.0797908181387931,0.2338835746765136,-0.1187836158126592,-0.031954389065504,0.0215435866266489,0.0164041072130203,0.2562135529715568,-7.697507975006103,-6.070676588502526,50,standing
1783066058347884500,8.7484469,-0.0661985653117299,0.2127647988021373,-0.138254624480009,-0.0171702746301889,-0.0428818240761756,-0.0110045867040753,0.2556398995357565,-7.694944261997938,-6.073950495606661,50,standing
1783066058367812400,8.7683748,0.085422248154506,0.0856084914416074,-0.0894540609538555,-0.0514188893139362,-0.0798482447862625,0.0241513848304748,0.2475214750098995,-7.690939702531695,-6.079356154042482,50,standing
1783066058387740400,8.7883028,0.0138685124851763,0.0648404287010431,-0.0532996285110712,-0.050850011408329,-0.0770434588193893,0.0455232076346874,0.2312378459407016,-7.684387212148308,-6.088276542600989,50,standing
1783066058407669200,8.8082316,-0.1202098857561126,0.2355284192740917,0.0653226592600345,-0.0458843000233173,-0.0440899096429348,0.009349824860692,0.2194194526520557,-7.678951743096113,-6.09556786865294,50,standing
1783066058427597300,8.8281597,-0.179224896239303,0.2184761621862649,-0.0656850628316402,-0.0637727826833725,0.0007825827924534,-0.0353159867227077,0.2187293332297354,-7.6717755678564306,-6.104621528202295,50,standing
1783066058447525400,8.8480878,-0.1700943172625265,0.1833615941852331,-0.184572139018774,-0.0247451327741146,0.0696823373436927,-0.0319500342011451,0.229201170747634,-7.6650927290916435,-6.112627140003442,50,standing
1783066058467453200,8.8680156,-0.0140775155933573,0.1543815834164619,-0.2110094795674085,0.0379821322858333,0.0512541569769382,-0.0011501192348077,0.2398806596668437,-7.666039654552936,-6.111029641678929,50,standing
1783066058487381200,8.8879436,0.0431089094894938,0.1259264733046293,-0.0068979428201913,0.040149163454771,0.0379515029489994,0.0354292504489421,0.2425492395552806,-7.67155169597268,-6.104002519521117,50,standing
1783066058507309300,8.9078717,8.01160315051e-05,0.165498605236411,0.0384252999842166,0.0042116837576031,0.0041592535562813,0.0258906260132789,0.2402378390740603,-7.6746128371089695,-6.100244043770432,50,standing
1783066058527237400,8.9277998,-0.0582717543678358,0.0932113676607608,-0.0109258831620216,-0.0641570761799812,0.0060196593403816,-0.02388771250844,0.2394830203850753,-7.67175686315596,-6.103864572355151,50,standing
1783066058547165400,8.9477278,-0.2479515187239274,0.0587321749538183,0.1297644440323114,-0.1722085028886795,0.1032091826200485,-0.0535256713628768,0.2522911188308149,-7.656880196541548,-6.122002286592125,50,standing
1783066058567093200,8.9676556,-0.1503334953357465,0.1181751285254955,0.1361637896806001,-0.2145742774009704,0.1002327129244804,-0.057972177863121,0.2748318537997081,-7.6322268168002365,-6.151745098426938,50,standing
1783066058587021300,8.9875837,-0.0123762828997336,0.1017313587248325,-0.0031143326282501,-0.1596376895904541,0.0485481955111026,-0.0482056327164173,0.2920490191256627,-7.6077032009184355,-6.181258193159103,50,standing
1783066058606949400,9.0075118,-0.0658058761997148,0.1552811626046895,-0.0884551130443811,-0.0502887889742851,-0.0132065815851092,-0.05568702891469,0.3007369871677831,-7.594364411395787,-6.197222070488333,50,standing
1783066058626877200,9.0274396,-0.1410595623655244,0.2047919202268123,0.0313964242607355,-0.0482245795428752,0.0255949702113866,-0.0607604421675205,0.3094018300626426,-7.589257443645596,-6.2030491692066185,50,standing
1783066058646805200,9.0473676,-0.0706099154805764,0.2742015565395355,0.1314122112393379,-0.1119062528014183,0.1062086075544357,-0.0117091760039329,0.323647066905722,-7.579060459280013,-6.214779354488849,50,standing
1783066058666733300,9.0672957,0.0404318905662745,0.1542372065097093,0.009724106156826,-0.1557142436504364,0.0912191346287727,0.0040930481627583,0.3357570818183943,-7.562195833718777,-6.234648422563076,50,standing
1783066058686661000,9.0872234,-0.0658725116951391,0.2304150217831134,0.0903542246639728,-0.1322574168443679,0.0414932146668434,-0.0721818208694458,0.3504831609809771,-7.544102543145418,-6.255722774773836,50,standing
1783066058706589200,9.1071516,-0.0331881665157154,0.065366498401761,-0.1746983952581882,-0.0762697532773017,-0.06314567476511,-0.094976007938385,0.3625405323909595,-7.5306369123727075,-6.271240661901235,50,standing
1783066058726517200,9.1270796,0.119902281111665,0.1097638585329055,-0.1274193422108888,-0.0726305469870567,-0.176161378622055,-0.0474654585123062,0.358788376783207,-7.522211613854766,-6.281558642297983,50,standing
1783066058746445300,9.1470077,0.1443302911318838,0.0239326642513275,-0.0647965895593166,-0.1666622906923294,-0.0996170043945312,0.0504987202584743,0.338999132479541,-7.507159590673446,-6.300637436777353,50,standing
1783066058766373400,9.1669358,0.1434263280294835,0.2666460265934467,-0.3663607847988605,-0.1318190246820449,-0.0719676613807678,0.0594164915382862,0.3211984681772068,-7.486810045605897,-6.3257321305453775,50,standing
1783066058786302200,9.1868646,0.0351758332015946,0.1271358490943908,-0.4395639681756496,-0.0035664336755871,-0.0492467917501926,0.0811194032430648,0.3022570911408402,-7.478382993522286,-6.336625280481576,50,standing
