time,seconds_elapsed,acc_x,acc_y,acc_z,gyr_x,gyr_y,gyr_z,grav_x,grav_y,grav_z,fs_hz,activity
1783066193730242800,0.0,-0.0476008323475718,0.0295224470824003,0.084806015952304,0.0035048928111791,-0.0054454309865832,6.84350379742e-05,-1.2765421771921217,-9.697906716686486,-0.7010138143654913,50,standing
1783066193750168800,0.019926,-0.0867741742201149,0.1003752679407596,0.1484615457177162,-0.0284824017435312,-0.0032981890253722,0.0018661470385268,-1.276574179765582,-9.697682260280846,-0.704066333803907,50,standing
1783066193770095900,0.0398531,-0.0306118497543036,0.0956546691596507,0.0970061568338424,-0.0114760557189583,-0.0402813553810119,-0.0028581616934388,-1.2772209532365202,-9.697301152008771,-0.708126057523489,50,standing
1783066193790021600,0.0597788,-0.0956041080161929,0.0034831659406423,0.0408417865414172,-0.0065375408157706,-0.0177871100604534,-0.0154400393366813,-1.275824530442059,-9.697455465787648,-0.7085247014522552,50,standing
1783066193809948700,0.0797059,-0.121582452750951,0.0469195720851421,0.1422866564750671,-0.0201072208583354,-0.0006947995861992,-0.0123548852279782,-1.273039868159592,-9.697647188967466,-0.7109099160883575,50,standing
1783066193829874700,0.0996319,-0.054499067428708,0.0003144727766513,-0.0018068302262574,-0.0199794564396142,-0.0272520687431097,-0.0141621548682451,-1.27129039414376,-9.697580553472042,-0.7149572187177836,50,standing
1783066193849800700,0.1195579,-0.0973684873402118,0.0709083504378795,-0.0657377428669482,0.006354340352118,-0.0490681901574134,-0.0276282224804162,-1.2671769674755633,-9.698143448051807,-0.7146220684792846,50,standing
1783066193869727500,0.1394847,-0.0423762295670807,0.0668260495603084,-0.0263958394944667,0.0133993327617645,-0.0540806427597999,-0.0060423091053962,-1.264858023008704,-9.6986993283689,-0.7111680555678903,50,standing
1783066193889653800,0.159411,-0.0324403803557157,0.0664566317260265,0.0067423869322985,-0.0308960080146789,0.0062128859572112,0.0163312759250402,-1.266414458670467,-9.69848071718216,-0.7113859361022711,50,standing
1783066193909580800,0.179338,-0.0716164987072348,0.1336193658947944,0.1244020402163267,-0.0355686731636524,0.0109870135784149,0.0275897718966007,-1.2700345488637683,-9.697408119514584,-0.7195104250427335,50,standing
1783066193929506800,0.199264,0.0605026917576789,0.1746650775104761,-0.0994458050709217,0.0108620272949337,-0.044330921024084,0.0246496945619583,-1.2763079300448297,-9.696404495429991,-0.7219151480969042,50,standing
1783066193949432600,0.2191898,-0.1443755915783345,0.0872515824735164,-0.1098433535099029,0.0152025651186704,-0.0138995517045259,-0.0300135072320699,-1.276882222801447,-9.696679220718146,-0.7172039016660302,50,standing
1783066193969359600,0.2391168,-0.3386592695333063,-0.107411157926917,0.0862316648412495,-0.0312278531491756,0.024848761036992,-0.0702075138688087,-1.2665033059976991,-9.697891519117356,-0.7191986556798219,50,standing
1783066193989285600,0.2590428,-0.0750078947111964,-0.1207715747594833,0.0562456919003278,-0.0540500171482563,0.0331844240427017,-0.0516513213515281,-1.2534747514680027,-9.698896312245726,-0.7284181002501398,50,standing
1783066194009212700,0.2789699,0.242346282595396,0.0621317542642354,-0.0109206224650144,-0.000699906842783,-0.0177387651056051,0.0030021804850548,-1.248808951614052,-9.6989430739969,-0.7357706549700349,50,standing
1783066194029138700,0.2988959,0.2563638481624424,0.266568869704008,-0.1467686972599476,0.0659912377595901,-0.0663041695952415,-0.003053048858419,-1.250406303808093,-9.699423550990224,-0.7266662150815129,50,standing
1783066194049064700,0.3188219,-0.1247206046462059,0.1987690066754817,0.0665905603040009,0.012155313976109,0.0093397572636604,-0.0325888730585575,-1.2477552047774194,-9.70045698569119,-0.7173646451856941,50,standing
1783066194068991700,0.3387489,-0.2156688496805727,0.0742278502494096,0.1077758265208452,-0.0389087460935115,-0.0173622537404298,-0.0545732639729976,-1.238509529787302,-9.70146353238523,-0.7197934067025781,50,standing
1783066194088917800,0.358675,0.0147219144441187,-0.0439350033164024,0.1265670362304896,-0.0777715891599655,0.0133265648037195,-0.0078404545783996,-1.2320239671602844,-9.701364748185872,-0.7321504186462611,50,standing
1783066194108844800,0.378602,0.1640317475542426,0.1063163484275341,-0.0559960279881954,-0.0140762999653816,-0.0533117614686489,0.0074334656819701,-1.2333419178910552,-9.700480951088666,-0.7415723269861191,50,standing
1783066194128770800,0.398528,-0.0721929834209382,0.1785603313833475,-0.1325906804341823,0.055502250790596,-0.0412581451237201,-0.037399485707283,-1.2314498205341398,-9.701199328491091,-0.7353074944376945,50,standing
1783066194148696600,0.4184538,-0.2487269235432148,0.0805693282306194,0.0308136559367179,0.0218702498823404,0.0064514074474573,-0.0430615209043026,-1.2232582577068358,-9.702866384920478,-0.7269280078228563,50,standing
1783066194168623600,0.4383808,-0.0723744774676859,-0.0234428349077701,0.0459837525397539,-0.0401984490454196,-0.0146785834804177,-0.0161995701491832,-1.2175017400067298,-9.703450322288274,-0.7287798462346196,50,standing
1783066194188549600,0.4583068,-0.0378154975228011,0.0340840559095144,0.0776098939031362,-0.0564509816467762,-0.0382668226957321,-0.0068370117805898,-1.2170453745413572,-9.70276818524301,-0.7385592627752572,50,standing
1783066194208476400,0.4782336,-0.1759412349261343,0.0837502963542938,0.0011801496952772,-0.0255167055875062,-0.0098089622333645,-0.0425013601779937,-1.2128456578291953,-9.702754741239549,-0.7456273014653474,50,standing
1783066194228402700,0.4981599,-0.1856602265164256,0.1022884080857038,0.0713292061984539,-0.0174991935491561,0.0123646622523665,-0.0390440560877323,-1.2040241265352816,-9.703485978123544,-0.7503846520602703,50,standing
1783066194248328700,0.5180859,0.0249393570758402,0.094117376589775,-0.0301695128142833,-0.0108081307262182,-0.0158523004502058,-0.0181649066507816,-1.1985472294941544,-9.703993927645683,-0.7525850116487592,50,standing
1783066194268255700,0.5380129,0.0240320329725742,0.1376315241456031,0.0407031817883253,-0.0395020246505737,-0.0193464830517768,0.0017174332169815,-1.197489975526184,-9.70381389490366,-0.7565696973707526,50,standing
1783066194288181500,0.5579387,-0.0168313808787614,0.1329179396271705,0.0189139593064785,-0.0431180037558078,-0.0630979612469673,-0.0111411567777395,-1.1973279898975044,-9.7032901632905,-0.7635108948107808,50,standing
1783066194308108500,0.5778657,-0.0363074310474097,0.0725572866886854,0.0760550656765699,-0.0321188829839229,-0.0314787551760673,-0.0149051453918218,-1.19610787351802,-9.70293418945968,-0.7699244881801307,50,standing
1783066194328034600,0.5977918,-0.0280558085959404,0.0091705639272928,-0.0246498726099729,-0.0087994439527392,-0.0346251539885997,-0.0183555781841278,-1.1938850829020142,-9.70299381069243,-0.7726189879611134,50,standing
1783066194347961600,0.6177188,-0.1008358711898326,-0.0366635510087013,-0.0012626403469592,-0.0251227561384439,0.009722982533276,-0.0239871814846992,-1.1899384641680866,-9.703248662236332,-0.7755067452918738,50,standing
1783066194367887600,0.6376448,-0.0530835746075958,0.015938158366084,-0.0061515814322978,-0.0355188064277172,-0.0168834459036588,-0.0123883867636322,-1.18666382641159,-9.70317851960957,-0.7813912002205848,50,standing
1783066194387813600,0.6575708,-0.0248482447262853,0.0452852488815784,-0.0086794924747198,-0.027439896017313,-0.0244713518768548,0.0005707459058612,-1.1860190987672656,-9.702745973411202,-0.7876915424738079,50,standing
1783066194407740700,0.6774979,-0.0026182927396148,0.1270066697567701,-0.0042470629852265,0.0094231022521853,-0.0357847027480602,0.0137816974893212,-1.187748991299793,-9.70246598742604,-0.7885331809297204,50,standing
1783066194427666700,0.6974239,-0.0684517510659992,0.1013274540990591,0.0369447791028767,0.0081558367237448,-0.0136700719594955,-0.005456558894366,-1.1901497688312084,-9.702374802011253,-0.7860306965894996,50,standing
1783066194447593700,0.7173509,-0.1718951744057238,0.0582265635192394,0.0029144261419773,0.0188771896064281,-0.0499842315912246,-0.0477335415780544,-1.1854676023643462,-9.703267951458692,-0.7820772827886044,50,standing
1783066194467519500,0.7372767,-0.1371896255970001,-0.0173211371570825,0.1112829578589647,-0.020235788077116,-0.0299637969583272,-0.0342144146561622,-1.1773770887587218,-9.70433528842926,-0.7810608722876757,50,standing
1783066194487445500,0.7572027,0.0340044878672808,-0.0170662856131792,0.0949701940268278,-0.04362777993083,-0.0526168756186962,-0.0007704800809733,-1.174991362665966,-9.704140642639992,-0.7870443306114524,50,standing
1783066194507372500,0.7771297,-0.0267795050498098,0.0519388615518808,-0.0160679222255945,3.16633377224e-05,-0.0243423394858837,-0.0080254366621375,-1.1757084979593753,-9.703713941660522,-0.7912273153845221,50,standing
1783066194527298800,0.797056,-0.1549232890777289,0.1578220792591571,-0.0277103561591356,0.0185839124023914,-0.011638787575066,-0.0301702693104743,-1.1719131973296404,-9.704401339402796,-0.7884129886161535,50,standing
1783066194547225600,0.8169828,-0.0807635356284677,0.1258522390246391,-0.018758549549058,0.0341941602528095,-0.0394552163779735,-0.0229209046810865,-1.166615821573883,-9.705503163164854,-0.7827003100577742,50,standing
1783066194567151600,0.8369088,0.0128608698125928,0.0710743546545505,-0.0307961933452636,0.0179885756224393,-0.038920622318983,-0.0012038456043228,-1.164921073419973,-9.706240829789635,-0.7760499853231012,50,standing
1783066194587077600,0.8568348,-0.0179700295198708,0.0261328046441078,0.1208159984230995,-0.0384193211793899,-0.0013570366427302,0.0159404519945383,-1.1685066037565468,-9.705590841448306,-0.77877290748097,50,standing
1783066194607004700,0.8767619,0.0089640085045248,0.1394008719056844,0.0875473505496978,-0.0189654622226953,0.0033180206082761,0.0179202854633331,-1.1719472457297146,-9.704685417041182,-0.7848588032659143,50,standing
1783066194626930400,0.8966876,-0.0959533598452806,0.0396527959525585,0.0321065452914685,0.001612251275219,-0.0079380953684449,-0.0133558781817555,-1.172674464025721,-9.70444751663208,-0.7867286157257855,50,standing
1783066194646857500,0.9166147,-0.15750906778723,0.0444441218823194,-0.0116905108589679,0.0200558416545391,-0.0196340475231409,-0.0373615436255931,-1.1673825681626795,-9.705348264864089,-0.7834832771290093,50,standing
1783066194666783500,0.9365407,-0.0134570821400731,0.0110246673613786,0.0503133792418986,0.0021894294768571,-0.0151753518730402,0.0018901671282947,-1.1634424522347748,-9.706044430434703,-0.7806940848018974,50,standing
1783066194686709800,0.956467,0.1388100664056837,0.0086310502231121,-0.0630886165976524,0.0144133334979414,-0.0313848927617073,0.0166432652622461,-1.1663711991630494,-9.705895961874722,-0.7781739186745137,50,standing
1783066194706636500,0.9763937,-0.0416689580805599,0.1248848552972078,0.0135725982785224,0.0034701386466622,0.0083169806748628,0.0021641904022544,-1.1691986046086995,-9.705731711223722,-0.7759758971735835,50,standing
1783066194726562600,0.9963198,-0.1128477229576557,0.1220621990919113,0.041443697957322,-0.0227421596646308,0.0289535224437713,-0.0043314946815371,-1.1686490079019218,-9.70560370092988,-0.7784091887351126,50,standing
1783066194746489600,1.0162468,-0.0695581048727035,0.0795335554420948,-0.0201180743992328,-0.0090962555259466,0.0165755040943622,-0.0026233934331685,-1.167496038474515,-9.705421330100297,-0.7823888329558074,50,standing
1783066194766415600,1.0361728,-0.0675804481241852,0.0315612594336271,-0.0871247412234544,0.0258828997611999,-0.0124868918210268,-0.0195369347929954,-1.1655831905905156,-9.705781980106234,-0.7807731413874774,50,standing
1783066194786341600,1.0560988,-0.1149170035123825,0.0658469753950834,-0.0190432117093354,0.0377998799085617,0.0182365477085113,-0.0069391895085573,-1.1622399445772171,-9.706699094951151,-0.7743352903597056,50,standing
1783066194806268700,1.0760259,0.0029536621738225,0.0520733015865087,-0.0301455474168062,0.0165196992456913,0.0299915336072444,0.0138802165165543,-1.1630937849275766,-9.706990771374103,-0.7693681694716215,50,standing
1783066194826194400,1.0959516,-0.1032894018217921,0.1422591839462518,-0.0004821574937552,0.0136392172425985,0.0169490557163953,0.0010651921620592,-1.1647392871122806,-9.70694459414482,-0.7674575866099447,50,standing
1783066194846121500,1.1158787,-0.1604647027224302,0.0897486599862575,0.0183446349859237,0.0257109943777322,0.0079976972192525,-0.0167443957179784,-1.1630801217284052,-9.707406366437674,-0.7641381598636507,50,standing
1783066194866047700,1.1358049,-0.1085868506427854,0.0417798711091279,0.041214638441801,0.0308557543903589,0.0400557033717632,-0.001518074190244,-1.160489447648078,-9.708069798782468,-0.7596245548967272,50,standing
1783066194885973800,1.155731,0.0298649038445204,0.0387684143334627,0.0094089757930487,0.0269588865339756,0.0301386043429374,0.0268291719257831,-1.1624723650936035,-9.708201900729536,-0.7549041022460907,50,standing
1783066194905900500,1.1756577,0.0200532655347138,0.0891933641910553,-0.0199141493249684,0.0128636490553617,0.032505590468645,0.0283887591212987,-1.1680732538405805,-9.707750065308808,-0.7520662484716624,50,standing
1783066194925826600,1.1955838,-0.1213740706972777,0.1559691448688507,-0.0070890814781188,0.010265395976603,0.0127258244901895,-0.001444689114578,-1.1699983036190271,-9.707636668062207,-0.7505261794228106,50,standing
1783066194945753600,1.2155108,-0.0921763255245983,-0.0086643679708242,0.0089987144917249,0.0211903452873229,0.0124482838436961,0.0019867881201207,-1.1692688203006982,-9.707903794565796,-0.7482086231954396,50,standing
1783066194965679600,1.2354368,-0.0279855198387056,-0.035793197914958,-0.0310514832805842,0.0478481240570545,-0.0016040874179452,0.0095096072182059,-1.17016291959621,-9.70830769919157,-0.7415278302572668,50,standing
1783066194985606700,1.2553639,-0.0811909672603011,-0.0095855744689702,0.0197416423022747,0.0219383612275123,0.0229369364678859,-0.0008545026648789,-1.1711264308661222,-9.708778239312768,-0.7338127989005298,50,standing
1783066195005532400,1.2752896,-0.1538621626522392,0.0642284342825412,0.1198795212905853,-0.0102244289591908,0.0316800959408283,-0.0029157381504774,-1.1702811391483992,-9.708822078454494,-0.734590943666175,50,standing
1783066195025458700,1.2952159,-0.010820669221878,0.1679196949034929,-0.0284311447143554,0.0103835696354508,-0.0185027364641428,0.0173125695437192,-1.1713164735455066,-9.70866367302239,-0.7350197635374963,50,standing
1783066195045385500,1.3151427,0.0067022010523825,0.1036848308801651,0.0741734897136688,0.0028245863504707,-0.0035244384780526,0.0370071046054363,-1.177467032064497,-9.708024206075072,-0.7336265556134283,50,standing
1783066195065311700,1.3350689,-0.1356251527592539,0.096590488705039,0.0356914180409163,0.0015819573309272,0.0212508905678987,0.0177838969975709,-1.1832806867793202,-9.707366034427285,-0.7330030899528414,50,standing
1783066195085238800,1.354996,-0.2267562800798565,0.0266711493045091,0.0673872636396437,-0.0072137997485697,0.0279127601534128,-0.0013125352561473,-1.1847749439250677,-9.707026427209376,-0.7350703246809541,50,standing
1783066195105164500,1.3749217,-0.08971833791323,0.0305348389953374,-0.0403939697086811,0.0213322918862104,-0.0159693844616413,-0.0078978417441248,-1.1833981756791472,-9.70729939893186,-0.733681208410114,50,standing
1783066195125090600,1.3948478,-0.0150228701520711,0.0078150576651096,-0.0040700259178876,0.0198608264327049,-0.0031361496075987,0.0139830140396952,-1.1837240466326475,-9.707624393102526,-0.7288552495583891,50,standing
1783066195145017600,1.4147748,0.0266476222984492,0.0845651198685169,0.0455815284144133,0.0059580625966191,-0.0027142423205077,0.0235498659312725,-1.1881348488122223,-9.707311673891544,-0.7258342212367802,50,standing
1783066195164943600,1.4347008,-0.1129190346281975,0.1228174013733863,0.0595084930885583,-0.0055200923234224,0.0149968992918729,-8.31449287943e-05,-1.1910232637301086,-9.706955700060725,-0.7258447426307946,50,standing
1783066195184870700,1.4546279,-0.1283214056171476,0.084139587932825,0.0294563961088657,-0.0091713545843958,-0.0016064896481111,-0.0029549377504736,-1.1905842147257175,-9.706884972912071,-0.7275158176481723,50,standing
1783066195204796700,1.4745539,-0.0426936980184167,-0.0155371763497591,0.0017080460269004,-0.0069653894752264,-0.0157415717840194,0.0122656663879752,-1.1921153698157518,-9.706566408482193,-0.7292459293764084,50,standing
1783066195224722700,1.4944799,-0.0235025292057543,0.0502437480717897,0.0053816930383443,-0.0080635473132133,0.0074946852400898,0.0256430432200431,-1.1957448854245245,-9.706059043481943,-0.7300766080468892,50,standing
1783066195244649700,1.5144069,-0.0048450288783758,0.1567787076860666,0.0218250244475901,-0.0105599947273731,0.0039633340202271,0.0353910103440284,-1.2019822454441338,-9.705152450031042,-0.7318550158962607,50,standing
1783066195264575700,1.5343329,-0.0864980606924742,0.1434656371265649,0.0345499198555946,-0.0063456753268837,0.0083199422806501,0.0170523934066295,-1.2077177934214471,-9.704261054149269,-0.7342558664929121,50,standing
1783066195284502800,1.55426,-0.112310985732451,0.1232370880901813,-0.0758136581361293,0.0371659845113754,-0.0484105348587036,-0.0050496640615165,-1.2091387661352753,-9.704383219224214,-0.7302838210567831,50,standing
1783066195304428500,1.5741857,-0.0720208417244255,-0.0044137247890233,0.0423054293531924,0.0261765159666538,-0.0149947041645646,0.0049310722388327,-1.2093256670095025,-9.704971248245238,-0.7221092824295162,50,standing
1783066195324354600,1.5941118,-0.0831565682448446,-0.1119838726699352,0.0573328295499086,0.0056764348410069,0.0146940387785434,0.0016481408383697,-1.209712255174294,-9.705140759593249,-0.719180316305533,50,standing
1783066195344281600,1.6140388,-0.1816610008124262,-0.0346627325803041,0.1160842937260866,0.0068000890314579,-0.02474264241755,-0.0243672486394643,-1.2072749450247735,-9.70554817135036,-0.7177768061831593,50,standing
1783066195364207900,1.6339651,-0.0309756415653973,0.0360246685832738,-0.0691038582991808,0.0085934642702341,-0.0173731725662946,0.0084595475345849,-1.2062277740593998,-9.70590531422496,-0.7146982024554163,50,standing
1783066195384134700,1.6538919,0.0140715607766062,0.1457394272774458,-0.0406003790009766,-0.006082022562623,-0.0389940440654754,0.0161445215344429,-1.2092272481363266,-9.705638187721371,-0.7132735764797776,50,standing
1783066195404060700,1.6738179,-0.1107580572020262,0.078397244888544,0.0577490091353654,-0.0232184641063213,-0.0073971124365925,0.0017125979065895,-1.211439955749735,-9.705182845169306,-0.7157058451279997,50,standing
1783066195423987700,1.6937449,-0.0418568088028579,0.1282119538933038,0.0253390239179134,0.0098817776888608,-0.0284353457391262,-0.0014097774401307,-1.211657544023171,-9.705018594518304,-0.7175627981062979,50,standing
1783066195443913700,1.7136709,0.075747680227831,0.1510860490024089,-0.030727731218934,0.0270478352904319,-0.0171203799545764,0.0167840383946895,-1.2135917269561438,-9.705147773855924,-0.7125220274601132,50,standing
1783066195463839500,1.7335967,0.0226597947712987,0.071949968445301,0.0959119318563491,-0.0110498173162341,-0.0053632329218089,0.0123803950846195,-1.2169175834432244,-9.704870125958324,-0.7106228427752852,50,standing
1783066195483766500,1.7535237,-0.0658588119633495,0.0627963556528091,0.1049514167498797,-0.0305283106863498,-0.0134862279519438,0.0015949099324643,-1.2180318282954394,-9.704397247749569,-0.7151735648822038,50,standing
1783066195503692500,1.7734497,-0.0550444263517856,0.0147995097249746,0.0016360037039965,-0.0319070182740688,-0.0273721255362033,-0.0180700849741697,-1.2167260063938796,-9.704134797421098,-0.7209438919119536,50,standing
1783066195523619600,1.7933768,-0.1284730890475213,-0.0692868867158889,0.0147924954622983,-0.0301834158599376,-0.01697863265872,-0.019684886559844,-1.213177666262537,-9.704144149771333,-0.7267681410860269,50,standing
1783066195543545600,1.8133028,-0.0501651298776268,-0.0489279892981052,-0.0522976849269121,0.0003101653419435,0.0007321507437154,-0.0194350387901067,-1.2094839263111352,-9.704450439241528,-0.7288106066990643,50,standing
1783066195563471600,1.8332288,-0.0867863761145621,0.0679834029018879,-0.0281973359584808,0.015161613933742,0.0140820145606994,-0.0241692531853914,-1.2050351302087303,-9.705093997842074,-0.7276223467625678,50,standing
1783066195583398700,1.8531559,-0.0243609726659953,0.1504962664157152,-0.0980915409177541,0.0381491556763649,-0.0158185977488756,-0.015807282179594,-1.2007220893152055,-9.706054367306828,-0.7219222354248166,50,standing
1783066195603324700,1.8730819,0.0368727367799729,0.0992085622489452,-0.0270141905885189,0.0276975110173225,-0.0201279744505882,0.0097821075469255,-1.200903291101009,-9.706540689519048,-0.715038759521395,50,standing
1783066195623251700,1.8930089,0.0124078653480857,0.1307008480995893,0.075134955156967,-0.002529093530029,0.006241729017347,0.0202294569462537,-1.204570873697847,-9.70631155693829,-0.7119927428890019,50,standing
1783066195643177700,1.9129349,-0.1319382078748196,0.0738543407618999,0.119392103099823,-0.038372915238142,0.0287484880536794,-0.0011402597883716,-1.206270736418292,-9.705727619570494,-0.7170446925163269,50,standing
1783066195663103500,1.9328607,-0.0813022456150501,0.0462684147000312,0.0564507860183715,-0.0136803491041064,-0.0150539334863424,-0.0148026086390018,-1.2043838266931473,-9.70552537499666,-0.7229368192948401,50,standing
1783066195683030500,1.9527877,0.0610796148627996,0.0405032753020524,-0.0239624018024653,0.0171032585203647,-0.0211238507181406,0.0051178312860429,-1.2032633712958545,-9.705745155227184,-0.7218314153362065,50,standing
1783066195702956800,1.972714,0.0261901608545333,0.0601478869706392,-0.0563666148662567,-0.0034076031297445,-0.0093820495530962,0.0108265141025185,-1.2050353494044392,-9.70578782532513,-0.7183075520589948,50,standing
1783066195722883600,1.9926408,-0.139423229867965,0.0227998608291149,0.0981517466723918,-0.0634720101952552,0.0337408557534217,0.0061508286744356,-1.2065669428858905,-9.705101012104748,-0.7249840341482311,50,standing
1783066195742809600,2.0125668,-0.1231398382607847,0.0294300926238298,-0.0359614671539515,-0.059920284897089,0.01840515807271,0.0111195612698793,-1.2075872258443383,-9.703949503982066,-0.7385629160370677,50,standing
1783066195762735600,2.0324928,-0.061976344506815,0.0995809026926755,-0.1504798267375677,0.0067132683470845,0.0024304185062646,0.0153661714866757,-1.210092705859244,-9.703172089868785,-0.7446523189533502,50,standing
1783066195782662700,2.0524199,-0.0689131580326706,0.1504997735470533,-0.1911754828065633,0.0552682280540466,0.0271094162017107,0.0114535419270396,-1.212583499761671,-9.70336439757049,-0.7380738173458725,50,standing
1783066195802588700,2.0723459,-0.1500717573933303,0.1240770460456609,-0.0190735337823629,0.036997951567173,0.0475945584475994,-0.000939660007134,-1.2132764504618945,-9.703876438745857,-0.7301616559818387,50,standing
1783066195822515700,2.0922729,-0.1772039483383297,0.0979535937517881,0.0368803355645388,0.010984911583364,0.0264474563300609,-0.0091159855946898,-1.2114333798784762,-9.704389648965,-0.7264105598200112,50,standing
1783066195842441500,2.1121987,-0.0294843070290982,0.0512450340688228,0.1075485936362296,-0.0046820659190416,0.0190964825451374,0.0132331894710659,-1.2113104110859334,-9.704366268089412,-0.7268987086631358,50,standing
1783066195862367700,2.1321249,0.0533641451146453,0.0565793808341026,0.0882809985864907,-0.0145836947485804,0.0143980141729116,0.0223761275410652,-1.2151505737707018,-9.703715110704302,-0.7291792208157479,50,standing
1783066195882294500,2.1520517,-0.1131893029369413,0.045381110471487,0.1269377692390233,-0.0181836243718862,0.0106987645849585,-0.0096854735165834,-1.2170889944873748,-9.70314111020863,-0.7335686148811131,50,standing
1783066195902220800,2.171978,-0.1492463394198566,0.0575432574301958,0.0492553946215659,-0.0039871772751212,0.0022964691743254,-0.0072439154610037,-1.2144012167081235,-9.703332248866555,-0.7354934454638511,50,standing
1783066195922147800,2.191905,0.0411645156897604,0.0168044198065996,-0.0060590808432549,0.0142142735421657,-0.043146975338459,0.0045894905924797,-1.2149217334508895,-9.703444477069375,-0.733150608664751,50,standing
1783066195942073600,2.2118308,-0.0424368006478995,0.0222965874820947,0.0944015272933989,-0.0351959019899368,0.0079645570367574,-0.000900522863958,-1.216165084575489,-9.703250415802,-0.7336537358812988,50,standing
1783066195961999600,2.2317568,-0.1840662353232502,0.0487538017749786,0.1520903306741267,-0.0479914471507072,-0.0117694633081555,-0.0161427557468414,-1.2142971718117594,-9.702772276896235,-0.7430089356604963,50,standing
1783066195981926700,2.2516839,-0.0246654355052858,0.0569482141464948,-0.1001361984878778,-0.0095222191885113,-0.0398574098944664,-0.0050262580625712,-1.2129871851917355,-9.702588152500986,-0.7475606076154857,50,standing
1783066196001852700,2.2716099,-0.0769730573043227,0.0672474898427724,0.006490604128316,-0.0127557683736085,-0.0087799206376075,-0.0080386102199554,-1.212304609755054,-9.70256184901595,-0.7489919555928558,50,standing
1783066196021779500,2.2915367,-0.1337218764211982,0.0758691877156496,0.0426660062938928,-0.0053371931426227,-0.0104437414556741,-0.0164247844368219,-1.2092756903879345,-9.70280442560017,-0.7507512934155762,50,standing
1783066196041705700,2.3114629,0.0050596945423632,0.072341598111391,-0.0536900160681456,0.0311580915004014,-0.0556059554219245,-0.0153356362134218,-1.207098419414088,-9.703316466775536,-0.747619279000163,50,standing
1783066196061631700,2.3313889,-0.0881567146196961,0.0572550881385803,-0.0307657251417636,0.0341220572590827,-0.0547147169709205,-0.0280951783061027,-1.2035150079693644,-9.70439140253067,-0.7394187291488051,50,standing
1783066196081558800,2.351316,-0.1200157148908823,-0.0320464126020669,0.0440424822788685,0.0161650385707616,-0.0612833686172962,-0.0243268460035324,-1.1994886019974946,-9.70532196137905,-0.7337222710728645,50,standing
1783066196101484500,2.3712417,-0.1228732962790876,-0.0241185422122478,0.0516127714026719,-0.0126710161566734,-0.0023569087497889,-0.0208631176501512,-1.1954337736487388,-9.705916420140865,-0.7324640877053141,50,standing
1783066196121411600,2.3911688,-0.0936344153784215,0.0392009605318307,0.097567151717469,-0.0340686440467834,-0.0139892399311065,-0.0070985690690577,-1.1929497017480433,-9.705791332456467,-0.7381656603477895,50,standing
1783066196141337600,2.4110948,-0.0387154420372098,0.0750602094203233,-0.0926402167093008,-0.0123134180903434,-0.0482889786362648,-0.0020318506285548,-1.1922031942296774,-9.7055855807513,-0.7420384831931441,50,standing
1783066196161263600,2.4310208,-0.1072686807163059,0.0820651197463274,-0.0269399563085287,-0.0056393342092633,-0.0308423154056072,-0.0050767324864864,-1.1923339810024949,-9.705557523700596,-0.7421969616904854,50,standing
1783066196181191200,2.4509484,-0.1404633865706622,0.1032213050216436,-0.0386649539589881,0.0206477921456098,-0.0465350821614265,-0.0185762401670217,-1.1908621548842635,-9.705915251097082,-0.7398992061421275,50,standing
1783066196201117000,2.4708742,-0.0997311978835612,0.1035334397107362,0.0141974521785974,0.0072186700999736,-0.0256890412420034,-0.0124129587784409,-1.1883495144762095,-9.706526660993696,-0.7358991767205297,50,standing
1783066196221044000,2.4908012,-0.1173333439391106,0.0687087945669889,0.0319534005563706,0.0053827567026019,-0.0332575961947441,-0.002062601968646,-1.1876561984498053,-9.706718384173511,-0.7345018040779978,50,standing
1783066196240970200,2.5107274,-0.092140523558855,0.081077277752757,0.0043686435382813,4.05178871005e-05,-0.025825748220086,0.0112913567572832,-1.188757510755211,-9.70666694624722,-0.733402902925387,50,standing
1783066196260896300,2.5306535,-0.13314509944655,0.0361216992169618,0.0280331583727151,0.0023920959793031,-0.0643671303987503,-0.0097909895703196,-1.1901000114053486,-9.706601479795577,-0.7320780109971762,50,standing
1783066196280823300,2.5505805,-0.2264190109495073,-0.0018465046495199,0.032504604698345,0.0060636037960648,-0.0265207979828119,-0.0292715020477771,-1.1864590976197271,-9.70724094674289,-0.7295165630113333,50,standing
1783066196300749000,2.5705062,-0.1772878272294998,-0.0511976877957582,0.0603624795693904,-0.0041363113559782,-0.0118805496022105,-0.0114621585234999,-1.1826187888044863,-9.707717332082986,-0.7293918406531215,50,standing
1783066196320676000,2.5904332,-0.0487877771098166,0.0596188946604728,0.0064152008045464,0.0063267787918448,-0.0630031526088714,-0.0050979126244783,-1.1824304266255348,-9.70780267227888,-0.7285665688101202,50,standing
1783066196340602000,2.6103592,-0.2102409794129431,0.0996148049622774,-0.0142618226516991,0.0124159716069698,-0.0619327649474144,-0.0338399931788444,-1.1792938091002405,-9.708444477313757,-0.7250979428514838,50,standing
1783066196360528100,2.6302853,-0.2434986675009131,0.0673059420317411,0.1138221209477633,0.0168822929263114,-0.0978070870041847,-0.0385231263935565,-1.1731204542275515,-9.709505384543538,-0.7209015140749514,50,standing
1783066196380455000,2.6502122,-0.1802758300643414,-0.0620417378932237,0.0659434215068817,-0.0028648579027503,-0.0800779536366462,-0.0341538190841674,-1.1675102861955762,-9.710490888449549,-0.7167171410623937,50,standing
1783066196400381200,2.6701384,-0.1743782233931124,0.0009124386698007,0.2143559404511004,-0.0225805658847093,-0.0993310362100601,-0.0211776364594697,-1.1636812294267118,-9.710895962119102,-0.7174374181609601,50,standing
1783066196420308200,2.6900654,-0.1644940313037484,0.0471171404838562,0.130323320024088,-0.0058423290029168,-0.1529881656169891,-0.0321835428476333,-1.1611452812083063,-9.71116191957891,-0.7179500438582151,50,standing
1783066196440234200,2.7099914,-0.255951614099741,0.1335159055203199,0.1134148553211241,0.0103799887001514,-0.1595102101564407,-0.0489072203636169,-1.1548315680168568,-9.712267250472308,-0.7131625903859734,50,standing
1783066196460160000,2.7299172,-0.1945423288911581,0.1084007534861564,0.20466566349864,0.0049936030991375,-0.1662038713693618,-0.0140068437904119,-1.1504005998320876,-9.713189626014232,-0.7077475065346807,50,standing
1783066196480087000,2.7498442,-0.1088425789695233,0.0678501319110393,0.1409750624198466,-0.0378840006887912,-0.1721287965774536,0.0184838492423295,-1.1537990831639615,-9.712890350806711,-0.7063058563590049,50,standing
1783066196500013000,2.7697702,-0.3050840399287641,0.0594663344472646,0.2441898646354675,-0.0642324686050415,-0.20672507584095,-0.0033701085485517,-1.1585213624455033,-9.711839964970943,-0.7130045502800494,50,standing
1783066196519940000,2.7896972,-0.3895112856965512,0.0575491026490926,0.0922913302063941,-0.0267391446977853,-0.2793229222297668,-0.0497398525476455,-1.156544363284111,-9.71186743749976,-0.7158310058776289,50,standing
1783066196539866000,2.8096232,-0.3940257674463093,0.040608489242196,0.1940666011381894,-0.0195510163903236,-0.2478474974632263,-0.0466213040053844,-1.1505335054967551,-9.712733114418388,-0.7137579989958555,50,standing
1783066196559792000,2.8295492,-0.1973134010396897,0.0386439111709594,0.1552923415858298,-0.0059782769531011,-0.2748343348503113,-0.0242529716342687,-1.1477790922220796,-9.713313544654843,-0.7102976294089108,50,standing
1783066196579719200,2.8494764,-0.2296108657933771,0.0534387447208166,0.1555863560963422,-0.0015593585558235,-0.3240455090999603,-0.0344565734267234,-1.1467560327846555,-9.713892805847523,-0.7040080277454107,50,standing
1783066196599645200,2.8694024,-0.2937999179136007,0.0961053355365991,0.2384545358538627,-0.0350934974849224,-0.3248825669288635,-0.038187351077795,-1.1439179598145186,-9.714511230006812,-0.7000861050613224,50,standing
1783066196619571200,2.8893284,-0.2457939388312399,0.1065823058873415,0.2453467065203934,-0.0734836161136627,-0.351146936416626,-0.0176548175513744,-1.1426931672599163,-9.714512983572485,-0.7020407462604343,50,standing
1783066196639498200,2.9092554,-0.1895226740982383,0.0442003762543201,0.2460696870326995,-0.0895267128944397,-0.3612290322780609,-0.0111004468053579,-1.1455437343854455,-9.713483056002854,-0.7115919070031493,50,standing
1783066196659424000,2.9291812,-0.1746690960984677,0.152309453317523,0.0938772111583501,-0.0401855297386646,-0.4046867787837982,-0.0341458469629287,-1.1472291301891206,-9.71295464821458,-0.7160702945262193,50,standing
1783066196679351000,2.9491082,-0.2317928860075771,0.0613765519827604,0.0100888478159904,-0.0183626487851142,-0.38749760389328,-0.0537048131227493,-1.144274737362936,-9.713599960380792,-0.7120386278573423,50,standing
1783066196699277000,2.9690342,-0.1501178615573793,0.054008653563261,0.0440216586865484,0.0042784786783158,-0.4589579105377197,-0.0539462380111217,-1.139608499117568,-9.71476023633182,-0.7036242891248315,50,standing
1783066196719203300,2.9889605,-0.1232121728446334,0.0443400769859552,0.0287934752207249,-0.0352956280112266,-0.4105911254882812,-0.0369525700807571,-1.1374850772228091,-9.715569214627148,-0.695877547455579,50,standing
1783066196739130000,3.0088872,-0.2666940304536372,-0.0048778351694345,0.1169482901442796,-0.0850044563412666,-0.3995996415615082,-0.0547891482710838,-1.1340634322110563,-9.71572995814681,-0.6991879871778189,50,standing
1783066196759056100,3.0288133,-0.2246539009731263,0.0062391866505146,0.0760358495194464,-0.0832224041223526,-0.4616351723670959,-0.0593213848769664,-1.1280701100803912,-9.715923434892296,-0.706159945082292,50,standing
1783066196778983200,3.0487404,-0.05855184995085,0.0242687643378973,-0.0327436741512268,-0.032800056040287,-0.5196670889854431,-0.053830474615097,-1.125680146203935,-9.716146137732268,-0.706915147363767,50,standing
1783066196798909200,3.0686664,-0.2108263780854642,0.0822971749365329,-0.0345277080237865,-0.0156758595257997,-0.4788372218608856,-0.0855194702744484,-1.1191526441313326,-9.71746248102784,-0.6991454632103443,50,standing
1783066196818835000,3.0885922,-0.3063087594181299,-0.0081429744452238,0.1095334838431328,-0.0517782568931579,-0.4609115421772003,-0.0899446383118629,-1.1077666691768917,-9.71905062700212,-0.6952146996326745,50,standing
1783066196838762000,3.1085192,-0.1414881995737552,-0.0390098218739032,0.0302244578719139,-0.0724555701017379,-0.4915381669998169,-0.0685988664627075,-1.0987083334524184,-9.71990578252673,-0.6976082437057047,50,standing
1783066196858688000,3.1284452,-0.1211375585276633,0.0752577778190374,-0.0556516715299338,-0.0256555862724781,-0.5444082021713257,-0.0789643079042434,-1.0922736242298037,-9.72074690952599,-0.6959782313510775,50,standing
1783066196878614300,3.1483715,-0.2486170334279537,0.1129711301416158,-0.0583656066637486,0.0019290570635348,-0.5310393571853638,-0.0806422755122184,-1.0839056819222868,-9.722397599342465,-0.685931980567798,50,standing
1783066196898541300,3.1682985,-0.2043757406413555,0.123012047162652,0.0036779578603804,-0.0069304918870329,-0.5342192053794861,-0.0719774216413497,-1.0765220014117658,-9.724058226031064,-0.673904565904662,50,standing
1783066196918467000,3.1882242,-0.2350784835495054,0.138653852930665,0.0669909577984362,-0.0553329847753047,-0.5114519596099854,-0.0734092444181442,-1.069761202039942,-9.725185768756267,-0.6683844142436981,50,standing
1783066196938394000,3.2081512,-0.2549443367533385,0.1751981614738702,0.1051502272576093,-0.0510578043758869,-0.5754104852676392,-0.0830484107136726,-1.0612678797870874,-9.72611749664843,-0.6683862408746033,50,standing
1783066196958320000,3.2280772,-0.1458363848458975,0.1489969677686691,0.0035959786653518,-0.0231406297534704,-0.5783149600028992,-0.0751876085996627,-1.0536585738271471,-9.727299984431266,-0.663198974429816,50,standing
1783066196978246100,3.2480033,-0.2168117361053824,0.1289665716528892,0.043620530539751,-0.013008234091103,-0.5896039009094238,-0.0782961249351501,-1.0465784793730823,-9.728667765653134,-0.6542918837442994,50,standing
1783066196998173200,3.2679304,-0.22589871340245,0.1023690721064806,0.1033141709368676,-0.0345195680856704,-0.5727515816688538,-0.0623959936201572,-1.0401851981393992,-9.72990402944982,-0.6460499789692461,50,standing
1783066197018099000,3.2878562,-0.1918934948828071,0.0170633630037307,0.1353559804290533,-0.0671413615345954,-0.5961955189704895,-0.0528355464339256,-1.0369305802576243,-9.730339498257637,-0.6447223836272955,50,standing
1783066197038026000,3.3077832,-0.2626855985298753,0.0422673623651266,0.0533733513344079,-0.0441027022898197,-0.674738883972168,-0.0908484384417533,-1.0319788030691444,-9.73100234608054,-0.6426458696141839,50,standing
1783066197057952300,3.3277095,-0.3335072205323726,0.0227992763072252,0.0624152473807334,-0.0324604772031307,-0.6746430397033691,-0.1203793659806251,-1.0195158465329557,-9.732783384278417,-0.6355272697806358,50,standing
1783066197077878300,3.3476355,-0.2670894595120102,-0.0170779760509729,0.1642109035134315,-0.0739575028419494,-0.6676579713821411,-0.1091742664575576,-1.0052790121920403,-9.734505385765432,-0.6318279768712818,50,standing
1783066197097805000,3.3675622,-0.1746183888245374,-0.0125666361063718,0.1319102238893509,-0.1290249079465866,-0.6467932462692261,-0.0839952230453491,-0.9949491221617908,-9.73512614801228,-0.6385830771546811,50,standing
1783066197117731000,3.3874882,-0.2237159625358879,0.0300701440930366,0.0687772566933184,-0.1167165264487266,-0.6877322793006897,-0.0874446704983711,-0.9871513078924268,-9.735115626618263,-0.6507180438455193,50,standing
1783066197137657000,3.4074142,-0.1844672173395752,0.0951110638022422,-0.1565916606813669,-0.0551327727735042,-0.7267642617225647,-0.0821809917688369,-0.9801623988531528,-9.735663323628902,-0.653097486327961,50,standing
1783066197157584100,3.4273413,-0.2802024774547666,0.0800619632303714,-0.0957674088191241,-0.0586904063820838,-0.7254397869110107,-0.1086234003305435,-0.9715158587999642,-9.736773915219306,-0.6494277117740362,50,standing
1783066197177510700,3.4472679,-0.3642027299821376,0.0755430245012044,0.0027841508258134,-0.0857297107577323,-0.7138940691947937,-0.1255538463592529,-0.9569476005475968,-9.73824048064053,-0.6490690345294773,50,standing
1783066197197437700,3.4671949,-0.159583316778019,0.0563625232130289,0.0019312603235244,-0.1065537333488464,-0.6958041191101074,-0.0819327011704444,-0.9456402437873184,-9.738962949696182,-0.6547999793969095,50,standing
1783066197217363700,3.4871209,-0.0616906594332307,0.142079735726118,-0.1450280641376972,-0.0863585472106933,-0.7415469288825989,-0.0699107870459556,-0.9416294007107616,-9.738937815254928,-0.660920288908109,50,standing
1783066197237289700,3.5070469,-0.2347211214791983,0.2174310370475053,-0.1743278814453631,-0.0397971682250499,-0.734747588634491,-0.0905492231249809,-0.9358941449943928,-9.73962112134397,-0.6590041530884801,50,standing
1783066197257216800,3.526974,-0.2964023554969578,0.1468967806190252,-0.1622270362198352,-0.0356448329985141,-0.6957815885543823,-0.0924516022205352,-0.9270346197776496,-9.740911745676398,-0.6523996402569114,50,standing
1783066197277142800,3.5469,-0.2320629351206123,0.0101239191293716,-0.0881043999105691,-0.040267139673233,-0.6971985697746277,-0.0776980146765708,-0.9199969031605868,-9.741955117249487,-0.6467660182841122,50,standing
1783066197297068800,3.566826,-0.1648913600582629,0.0534352375894784,-0.0587041179031133,-0.0275754109025001,-0.6665098667144775,-0.0779621228575706,-0.9136964878421276,-9.74291899384558,-0.641151174077019,50,standing
1783066197316995600,3.5867528,-0.308175795399025,0.0429039067029953,0.0630167204052209,-0.0093358540907502,-0.6988153457641602,-0.1072894632816314,-0.902691621159762,-9.744508308863638,-0.6325375133801251,50,standing
1783066197336921600,3.6066788,-0.072759896588698,-0.0039753333717584,-0.1114829374104738,-0.0086053423583507,-0.7026204466819763,-0.0641636997461319,-0.8934500378228724,-9.74611165240705,-0.6208434953898191,50,standing
1783066197356848600,3.6266058,-0.0207213740546256,0.0255558815389871,0.0070376435518264,-0.0330022312700748,-0.710604727268219,-0.056773193180561,-0.8919185174066573,-9.74676280979216,-0.6127702251799404,50,standing
1783066197376775000,3.6465322,-0.2505200175050646,0.1198819324433803,0.0431277785867452,-0.0346737019717693,-0.7514479160308838,-0.1118139103055,-0.8832842523131519,-9.74801427115798,-0.6053158905860037,50,standing
1783066197396700700,3.6664579,-0.266761542731896,0.0168324768573045,0.0567167434781789,-0.063581109046936,-0.733079195022583,-0.1075871363282203,-0.8700352599658071,-9.74941186299622,-0.6019958793178201,50,standing
1783066197416627700,3.6863849,-0.1191482113413512,0.1166536180466413,-0.1044826667269691,-0.0359474420547485,-0.7652677297592163,-0.0940487459301948,-0.860080267662555,-9.750472185704112,-0.5991132000209763,50,standing
1783066197436553700,3.7063109,-0.2008124221365898,0.1627811629712581,-0.1144376955628395,-0.0487022027373313,-0.7164885997772217,-0.1032629832625389,-0.8497932669259607,-9.751708449500798,-0.5936470801021904,50,standing
1783066197456479700,3.7262369,-0.2123465733900666,0.1448094529509544,-0.0445657755006104,-0.069316416978836,-0.702124297618866,-0.0855724141001701,-0.8396057079758494,-9.752592246598004,-0.5936384218716994,50,standing
1783066197476406800,3.746164,-0.0332233474269509,0.1287087974995374,-0.1397866563528776,-0.074902594089508,-0.6934208869934082,-0.0510500185191631,-0.8349741026524454,-9.752800920912623,-0.5967298850810155,50,standing
1783066197496332500,3.7660897,-0.0490256775189191,0.1717015515297651,-0.1945562843512743,-0.0120994951575994,-0.7482066750526428,-0.0732304155826568,-0.8326389377031475,-9.753145788827538,-0.5943329434745014,50,standing
1783066197516259600,3.7860168,-0.1743677750643342,0.1716366696000099,-0.2970984480023383,0.0373990945518016,-0.7253930568695068,-0.1184590011835098,-0.8223682305142282,-9.75502736479044,-0.5775334921039641,50,standing
1783066197536185900,3.8059431,-0.1590905648250132,0.0723100339293479,-0.0222737545957788,0.0288295894861221,-0.6860167384147644,-0.1038089394569397,-0.807568136267364,-9.757304077550767,-0.5596665576323866,50,standing
1783066197556112000,3.8258692,0.1141661120798438,0.0549023875325918,-0.1125390953999012,0.0108473040163517,-0.667503297328949,-0.0524008572101593,-0.8001049607798457,-9.758750184705852,-0.5449683893900364,50,standing
1783066197576038700,3.8457959,-0.03096826197654,0.068438160932064,-0.0609796250870451,0.0189568549394607,-0.7036272883415222,-0.0927492976188659,-0.7948816001083702,-9.759866621515156,-0.5324832575546578,50,standing
1783066197595964700,3.8657219,-0.2204098336625844,0.1370166071176528,-0.1031996777117252,0.0181573014706373,-0.669604480266571,-0.1098809763789177,-0.780516170951724,-9.761856918549537,-0.51704844560083,50,standing
1783066197615890700,3.8856479,-0.0067995970122516,0.0341261414855718,0.0009649725746363,-0.068081647157669,-0.6231118440628052,-0.0627463981509208,-0.7704181899812073,-9.762965756574271,-0.5112294936563819,50,standing
1783066197635817700,3.9055749,0.0165074096214026,-0.0118505967915058,0.0384259210387244,-0.1208480522036552,-0.5860456228256226,-0.0375833138823509,-0.7678378180991858,-9.762626733878257,-0.5214559233121574,50,standing
1783066197655743500,3.9255007,0.0183614399902522,0.0807832632422447,-0.1814122136831283,-0.0432252995669841,-0.6402325630187988,-0.0817543044686317,-0.7637062712524085,-9.76248586410284,-0.5301146652597933,50,standing
1783066197675670500,3.9454277,-0.0584095188707113,0.1772270369529724,-0.3052338236629963,0.0471595376729965,-0.6196426749229431,-0.1224972382187843,-0.7491845555555074,-9.764209034633636,-0.5189697690522298,50,standing
1783066197695596800,3.965354,0.1345551854401827,0.0715963327020406,-0.2237760221600532,0.0211361292749643,-0.5671114921569824,-0.0827106386423111,-0.7349012517243624,-9.766167767485976,-0.5022653755540027,50,standing
1783066197715522800,3.98528,0.2185878058671951,0.094751582840085,-0.1620300523430109,-0.0470524057745933,-0.5413670539855957,-0.0561167895793914,-0.727655006923154,-9.767027014663816,-0.4960759097967296,50,standing
1783066197735449900,4.0052071,0.0898459828808903,0.1225315701693296,-0.1120873330444097,-0.0791294425725936,-0.5046668648719788,-0.0472479835152626,-0.7226634091809392,-9.767124045297503,-0.5014264770444482,50,standing
1783066197755375600,4.0251328,0.1206774667352438,0.1116577094554901,-0.3135814538348466,-0.0505038984119892,-0.5175555348396301,-0.0372948534786701,-0.7196770137812942,-9.767025261098146,-0.5076294964030384,50,standing
1783066197775301600,4.0450588,0.0159605163283646,0.0857657278299331,-0.4436591285347938,-0.0063067451119422,-0.4848317801952362,-0.0761118233203888,-0.713421314387396,-9.767617966294289,-0.5050436080956832,50,standing
1783066197795228700,4.0649859,-0.1415880066864192,0.0538660302221775,-0.2403290975540876,-0.0116750970482826,-0.3915865421295166,-0.0814938470721244,-0.7022185870453715,-9.76863854151368,-0.5009758106674999,50,standing
1783066197815154700,4.0849119,-0.0133571288969367,0.0842781196206808,-0.3479173290809616,0.0164043456315994,-0.3613312840461731,-0.0520035326480865,-0.6927827963106333,-9.76957143844962,-0.4958890819877385,50,standing
1783066197835081700,4.1048389,0.0189242615047842,0.1998480340838432,-0.2958352961987257,0.0415208041667938,-0.3591818511486053,-0.051139660179615,-0.686906524688378,-9.770519532954692,-0.4852729223620146,50,standing
1783066197855007700,4.1247649,-0.0630935119684785,0.201827225202322,-0.1671913440963253,0.0547384247183799,-0.3539570271968841,-0.0501189418137073,-0.6800066091068089,-9.771749951532485,-0.4699656457779929,50,standing
1783066197874933800,4.144691,0.0660862640436738,0.1714484535515308,-0.0401572018107399,0.014731153845787,-0.3187165260314941,-0.005014082416892,-0.6773558023370801,-9.772495801463725,-0.4581363475028425,50,standing
1783066197894860800,4.164618,0.204344395655021,0.1501174962311983,0.0012315876215696,-0.0377660058438777,-0.3111237585544586,0.026543378829956,-0.6837832781013101,-9.772114693191646,-0.4567282342705875,50,standing
1783066197914786800,4.184544,0.0712784989245235,0.0860708482563495,0.0340987420219928,-0.0513991862535476,-0.2960540652275085,-0.0007467300747521,-0.690179555009678,-9.7713635825634,-0.4631097885338589,50,standing
1783066197934712600,4.2044698,0.0345503582470119,0.0661363137304782,-0.0689718294173479,0.0184341482818126,-0.3096837699413299,-0.0321686714887619,-0.6892148746959865,-9.771481655985117,-0.4620924647174775,50,standing
1783066197954639600,4.2243968,0.1076931166734546,-0.0925169556558132,-0.1664496588835492,0.069949135184288,-0.2665351033210754,-0.0260179005563259,-0.686042528270185,-9.772343241250514,-0.4484111453674733,50,standing
1783066197974565600,4.2443228,-0.0058412733741104,-0.1578320161312818,0.0013023513028398,0.0586944818496704,-0.2232133150100708,-0.0482633523643016,-0.6808456172142178,-9.773465523278713,-0.4315107543731108,50,standing
1783066197994492000,4.2642492,0.0861654677372425,-0.066843585216999,-0.0035100174149498,0.0180467814207077,-0.2196461260318756,-0.0340530611574649,-0.6740916129093617,-9.774372116729616,-0.4214604850018397,50,standing
1783066198014418700,4.2841759,0.2470615476142615,0.0241477683067321,-0.0730383847365155,0.0050853500142693,-0.2494085282087326,-0.0274717826396226,-0.6705360393196343,-9.774834473544358,-0.4164262171616777,50,standing
1783066198034344700,4.3041019,0.0491194202169775,0.0271872821331024,-0.0090629753669723,-0.0127812940627336,-0.2284477800130844,-0.0525429174304008,-0.6651772887654602,-9.775328394541145,-0.4133637243185192,50,standing
1783066198054270700,4.3240279,-0.0706983609490096,-0.0262362650185823,0.0745060461362823,-0.0462564304471015,-0.1868795603513717,-0.0649226233363151,-0.65489445274733,-9.775925775912404,-0.4156796731106936,50,standing
1783066198074197800,4.343955,0.1351766052741557,0.0572077418655157,0.0622550518503412,-0.0510304272174835,-0.1969691514968872,-0.040640190243721,-0.645889819971472,-9.776171275106073,-0.4239294689312577,50,standing
1783066198094123500,4.3638807,0.3435772175174206,0.2156558440685272,-0.1522474939972162,0.0116937318816781,-0.2370508313179016,-0.0166564676910638,-0.6428524250369518,-9.776301623487472,-0.4255031845213845,50,standing
1783066198114050600,4.3838078,0.2909842759709805,0.3355243325084447,-0.2034083569139242,0.0569321736693382,-0.238766148686409,-0.0227856189012527,-0.641136268768832,-9.776908941730856,-0.4139966884598136,50,standing
1783066198133976600,4.4037338,0.0535859711717814,0.1337093822658062,0.0107464349418878,-0.0164392758160829,-0.1607519537210464,-0.0406209453940391,-0.6364243647508323,-9.77755366937518,-0.4059394926019012,50,standing
1783066198153902800,4.42366,-0.066185778895393,-0.0817249280065298,0.1546621539235115,-0.092958003282547,-0.1167134419083595,-0.0373007804155349,-0.6291801657762378,-9.777597508516909,-0.4160787554308772,50,standing
1783066198173830000,4.4435872,0.0882682121701538,-0.0965349591255188,-0.064023194034025,-0.055066742002964,-0.1106545478105545,-0.0424878522753715,-0.6241202520381659,-9.777300571396946,-0.4303797045165672,50,standing
1783066198193755100,4.4635123,0.043093730186671,0.0508913983255624,-0.4780483048707246,0.0238446816802024,-0.1287122368812561,-0.0613687671720981,-0.6154574915025383,-9.777784555521606,-0.4318976347988471,50,standing
1783066198213681000,4.4834382,-0.1056585055733099,0.1337549749732017,-0.034914661514759,0.0207562427967786,-0.0637233853340148,-0.0592485219240188,-0.6039229383902623,-9.778796362912654,-0.4252207143181934,50,standing
1783066198233608000,4.5033652,-0.0161680581318214,0.0361713835775852,-0.1298030590096488,-0.0077415835112333,-0.061178583651781,-0.029133029282093,-0.5962986905895173,-9.779376208627223,-0.4226591932671144,50,standing
1783066198253534000,4.5232912,-0.0213179151756688,0.1254109249979257,-0.0551210352519527,-0.0309422984719276,-0.0601737387478351,-0.0371425859630107,-0.590550356195867,-9.779581375810505,-0.4259640434987843,50,standing
1783066198273460200,4.5432174,-0.0394458021383732,0.1606786377340555,0.0169482121914625,-0.060744185000658,-0.0207605119794607,-0.0161162316799163,-0.5851415924875065,-9.779533445015549,-0.434437272811681,50,standing
1783066198293387300,4.5631445,0.014138378935121,0.0861328075766563,0.0316933248480781,-0.0502892285585403,0.0115572977811098,-0.001607694895938,-0.5841081577865407,-9.779059397763014,-0.446339234464243,50,standing
1783066198313313000,4.5830702,-0.0279674361927434,0.1377379071295261,-0.0363198156049475,0.0054367296397686,0.0077686067670583,-0.0071990704163908,-0.5834518493022769,-9.778888132849335,-0.4508999299759045,50,standing
1783066198333239000,4.6029962,-0.0082216657046228,0.1397311267733574,-0.0415559626927599,0.0132254110649228,-0.0146285770460963,-0.0007054848247207,-0.5825475939389317,-9.779085701248048,-0.447758782405965,50,standing
1783066198353166000,4.6229232,0.0285733296640217,0.0988736312061548,0.0903899170318618,-0.024992499500513,-0.0363749004900455,0.0188229028135538,-0.5846265556374565,-9.778929049381611,-0.4484730316225439,50,standing
1783066198373092000,4.6428492,1.73529936e-05,0.0591086070507764,0.1228407457163557,-0.0894903168082237,-0.0013026522938162,0.0074629625305533,-0.5882428099058569,-9.778221777895093,-0.4590766605602577,50,standing
1783066198393018000,4.6627752,-0.2425142230408266,0.0399053094089031,0.2558453041810542,-0.0933345034718513,0.0325156599283218,-0.031202970072627,-0.5860290793791413,-9.777421567428112,-0.4785062047060578,50,standing
1783066198412945200,4.6827024,-0.078128985873796,0.1069324344992637,-0.0239256499886512,-0.0390502400696277,0.0123717971146106,-0.020699331536889,-0.579977158929035,-9.777112939870356,-0.4920243693836033,50,standing
1783066198432871200,4.7026284,0.111207152676396,0.1543617096722126,-0.0325806656092405,0.0045207841321825,-0.0026062324177473,0.0229674205183982,-0.5800218017883598,-9.7769574570477,-0.4950419271064922,50,standing
1783066198452798200,4.7225554,0.0655713367914781,0.2071346839606762,-0.0720908382207155,-0.0126105668023228,0.0117892809212207,0.0407617315649986,-0.586759183751978,-9.776609082001448,-0.4939880706720054,50,standing
1783066198472724200,4.7424814,-0.2203842973625287,0.0787614020258188,0.12566402297616,-0.081693947315216,0.0260402839630842,0.0224759019911289,-0.5931953542793169,-9.77572703846991,-0.5036486831385641,50,standing
1783066198492650000,4.7624072,-0.254773291035369,-0.046759413087368,0.0335989027410745,-0.0830592215061187,0.0110130086541175,0.0269155912101268,-0.5974128989091143,-9.774555072081087,-0.5211183253882452,50,standing
1783066198512577000,4.7823342,-0.1638622362062335,-0.1157183830231428,-0.1399217539746314,-0.0290871914476156,0.0361978448927402,0.0365725457668304,-0.6037787806792184,-9.773532743296029,-0.5328487298661843,50,standing
1783066198532503000,4.8022602,-0.2710582170125097,-0.0079863225787878,-0.0859679724037647,0.017604311928153,0.0797547250986099,0.0062511889263987,-0.6074642277263105,-9.773225284782052,-0.5342797125173733,50,standing
1783066198552429300,4.8221865,-0.2335417755015194,0.1125111114144325,0.0493763541201129,0.0653658062219619,0.0463069379329681,-0.0018858958501368,-0.6060747461292892,-9.77371277603805,-0.5268698746522888,50,standing
1783066198572356000,4.8421132,0.0083718147650361,0.0526519782572984,0.0216185420900583,0.0527713485062122,0.0275589674711227,0.0141841806471347,-0.6072215415442362,-9.77430781932175,-0.5143750982057302,50,standing
1783066198592282000,4.8620392,-0.0240521989777684,0.0464922865837812,0.3495539538394659,0.0135475192219018,0.0300550851970911,0.0212607644498348,-0.6104113870941102,-9.774434076049925,-0.508169631161727,50,standing
1783066198612208000,4.8819652,0.05375877045542,0.0155704940974712,0.2188274598419666,-0.0328555963933467,0.0281639546155929,0.0533492602407932,-0.6174435507532209,-9.773886963561177,-0.5101716916991398,50,standing
1783066198632135200,4.9018924,0.0189788412362337,0.1069862105131149,0.1785445492923259,-0.0534268990159034,-0.0050057605840265,0.0515130124986171,-0.6289017872262745,-9.772677587771415,-0.5192695922490209,50,standing
1783066198652061000,4.9218182,-0.1782517768908292,0.1035755252867937,0.0962303501557558,-0.0686307176947593,-0.0028839381411671,0.0090412516146898,-0.6351783832777291,-9.77166227324903,-0.5306280216094106,50,standing
1783066198671987000,4.9417442,-0.1611472050938755,0.0436550173312425,0.106955742309615,-0.0557118244469165,0.007915835827589,-0.0020101652480661,-0.6350745575770735,-9.770998256382343,-0.5428498993987217,50,standing
1783066198691914000,4.9616712,0.0519086856093257,0.0023240590333938,-0.0070493339896202,-0.0095798149704933,0.0150979086756706,0.0206349939107894,-0.636393092829734,-9.770517194867134,-0.5499015714759007,50,standing
1783066198711840300,4.9815975,0.1379090259127318,0.0427110144793987,-0.1516068580061197,0.0371643267571926,-0.0181698501110076,0.0277428030967712,-0.6417389108370989,-9.77035235969424,-0.5466018723433836,50,standing
1783066198731766000,5.0015232,0.0326391177982091,0.0934738179892301,-0.1386684659779071,0.0526338145136833,-0.0211562756448984,0.0108525026589632,-0.6454051051944494,-9.770687290737031,-0.5361973096417263,50,standing
1783066198751693000,5.0214502,-0.0654181555237621,0.1044984853506088,0.0417015451759099,0.0047237370163202,0.0225204490125179,0.008534119464457,-0.6470064029112458,-9.770938050627707,-0.5296699902322143,50,standing
1783066198771619000,5.0413762,-0.0797893568340688,0.0356552507489919,0.0367746467003598,-0.0112033300101757,0.0719130337238311,0.0312832780182361,-0.6496938884295522,-9.770628254026176,-0.5320752612756565,50,standing
1783066198791545000,5.0613022,-0.0637059447783976,0.0364969622701406,-0.0845195271611213,0.0360308028757572,0.0757066830992698,0.0544857643544673,-0.6575473053436726,-9.770123811635374,-0.5316884539151564,50,standing
1783066198811472100,5.0812293,-0.111957130793482,0.0956792190790176,-0.2421387407919391,0.0963615924119949,0.0642435550689697,0.0387436561286449,-0.6664576108995824,-9.770198630437257,-0.519067201544717,50,standing
1783066198831398000,5.1011552,-0.2764743237771093,0.0350356575459241,-0.0966752443790435,0.1003291308879852,0.0957532972097396,0.0154831074178218,-0.6705820704184472,-9.770907070967557,-0.5000793367518112,50,standing
1783066198851324200,5.1210814,-0.2278475824479013,-0.0858773715108633,0.0431884957980364,0.0643744841217994,0.0506053678691387,0.0008351180586032,-0.6705767366562039,-9.771650582811237,-0.485368016766943,50,standing
1783066198871251200,5.1410084,-0.115171562795341,-0.1570616162806749,0.0550192188452929,0.0295394714921712,0.0421219281852245,-0.0019965884275734,-0.6698273795936256,-9.772142750242352,-0.4763990398263558,50,standing
1783066198891177200,5.1609344,-0.0785623723223805,-0.0477484241247177,0.135796052346751,0.0077519621700048,0.0568485967814922,0.0137686235830187,-0.6705236182294786,-9.77222049165368,-0.4738277645662426,50,standing
1783066198911103000,5.1808602,-0.0940888080824166,0.0129565122067928,-0.0093797862311825,0.0085818897932767,0.0593489706516265,-0.0001945222611539,-0.671457099687308,-9.772170807293056,-0.473500724568963,50,standing
1783066198931030000,5.2007872,-0.1689925117667764,0.1263239481896162,-0.0949894467165693,0.019215790554881,0.0194695517420768,-0.0106782596558332,-0.6694268359687179,-9.772412214833498,-0.4713886277858167,50,standing
1783066198950956000,5.2207132,-0.0974629606906324,0.1347147599160671,-0.0454348499527201,0.0168877448886632,0.0347064957022666,0.0177289526909589,-0.6695793231166899,-9.77257295835316,-0.467822496269457,50,standing
1783066198970883000,5.2406402,-0.0740109195630997,0.1488578515589237,-0.0810251822393387,0.0373572595417499,0.0397473759949207,0.0245150104165077,-0.6737281133592128,-9.77249989311695,-0.4633562741082161,50,standing
1783066198990809000,5.2605662,-0.0984066712815314,0.1717418835401535,-0.0726385717639699,0.0545035004615783,0.0668956190347671,0.0164952967315912,-0.6776140148818492,-9.772641347414254,-0.4546840150918811,50,standing
1783066199010735000,5.2804922,-0.0845372089482843,0.1896370211929083,0.0462070399016141,0.0511154010891914,0.0788902640342712,0.0232293736189603,-0.6804101484064012,-9.772878078779575,-0.445290492596291,50,standing
1783066199030662100,5.3004193,0.0155343268055468,0.1225111119031906,-0.0419891299456357,0.0340938419103622,0.0528370700776577,0.0423652231693267,-0.68635963139534,-9.772789815974235,-0.4380482663830742,50,standing
1783066199050588200,5.3203454,-0.066242623649165,0.0598006809681654,-0.0667056745836511,0.0079574957489967,0.0414899438619613,0.0209919475018978,-0.6928690132893621,-9.772479434850812,-0.4347298260174691,50,standing
1783066199070514200,5.3402714,-0.1679552776735275,-0.021139818662405,0.0228834109267219,0.0039950725622475,0.0287793781608343,0.0104793440550565,-0.6950049293395132,-9.772343241250514,-0.4343866386029869,50,standing
1783066199090441000,5.3601982,-0.0088112290956079,-0.1496089621871709,-0.0931552535593509,-0.0076316753402352,0.0427196249365806,0.0175442583858966,-0.6980768110655248,-9.772112355104088,-0.4346165749013423,50,standing
1783066199110367000,5.3801242,-0.1254860360607504,-0.1020943468183279,-0.017781192416884,-0.0017146503087133,0.0383653342723846,-0.0264318585395813,-0.6979698435597121,-9.772043381521105,-0.4363689715266227,50,standing
1783066199130293200,5.4000504,-0.2410441139556467,-0.0274690216839313,0.0207271827409043,0.0127171948552131,0.0239979475736618,-0.0547265745699405,-0.6889535934112966,-9.772745976832509,-0.4349241064805537,50,standing
1783066199150220000,5.4199772,-0.079606766808778,0.0177922618001699,0.0392751582792028,-0.0019488686230033,0.0230147335678339,-0.0288773737847805,-0.680253058148548,-9.773417007961868,-0.4335706460449844,50,standing
1783066199170146000,5.4399032,0.0073239862125366,0.1904845779329538,0.0373246087333187,-0.0255729556083679,0.0172412488609552,0.0039131920784711,-0.6779998723942786,-9.773427529355883,-0.4368574856959283,50,standing
1783066199190071800,5.459829,-0.1079037637494504,0.2962514757841825,0.0664630979994311,-0.022660132497549,-0.0074958777986466,0.0025776624679565,-0.6790403213579207,-9.773099612575768,-0.4425024693129584,50,standing
1783066199209998800,5.479756,-0.2242121485549956,0.2672211961328983,-0.0344254532257094,-0.0557796098291873,0.0460257790982723,-0.0029826597310602,-0.6791502114731818,-9.772801506412028,-0.4489041165161878,50,standing
1783066199229924900,5.4996821,-0.2998173515722155,0.2019686794996261,0.1641390438536182,-0.0730953887104988,0.0850005149841308,0.0226265043020248,-0.6797103295739739,-9.772041043433546,-0.4643120039304718,50,standing
1783066199249850600,5.5196078,-0.0033978257447481,0.1578694255322217,-0.1451450415808707,0.0007276840042322,0.0204340852797031,0.057614579796791,-0.6877783390868455,-9.771039172914625,-0.4734572507534176,50,standing
1783066199269777700,5.5395349,-0.1154805556792765,0.161145670723915,-0.210537258945778,0.0748201459646225,-0.0012990663526579,0.0116245448589324,-0.6960042425751686,-9.770873753219842,-0.4647773929525166,50,standing
1783066199289704000,5.5594612,-0.3557369533233344,0.0334901816695928,0.0613917860845103,0.0504025220870971,0.034885749220848,-0.0363379828631877,-0.6929233007598667,-9.77175521222949,-0.4505991934636607,50,standing
1783066199309630000,5.5793872,-0.2186003000225871,-0.1811526859641075,0.2640068737288937,-0.0572502352297306,0.0602468252182006,-0.0156414564698934,-0.6865577112507074,-9.77214333476424,-0.4519518136490136,50,standing
1783066199329557000,5.5993142,0.0391237305771559,-0.0635685090690851,0.2376175370404496,-0.1096647232770919,0.0289237983524799,0.0259665958583354,-0.6873536839339882,-9.77121277591586,-0.4704538311537355,50,standing
1783066199349482800,5.61924,0.0327913857504725,0.1416138717800378,0.0608925678580999,-0.0594994761049747,-0.0198083892464637,0.0229309350252151,-0.6937406815573572,-9.769895848098397,-0.4881078900596126,50,standing
1783066199369408800,5.639166,-0.3055341217838228,0.2341658987492322,0.0029670696446672,-0.0155442180112004,0.0129093024879693,-0.0333934873342514,-0.6925486222285777,-9.769671976214648,-0.4942272497227415,50,standing
1783066199389335800,5.659093,-0.2986399783559143,0.142441554775834,0.0905792655915021,-0.0226745884865522,0.0368995927274227,-0.0279729962348938,-0.685077701826021,-9.769975343075394,-0.4986409014465287,50,standing
1783066199409261800,5.679019,-0.0106195206265896,0.0656190118581056,0.0873965439021587,-0.0423310175538063,0.0017151557840406,0.0122111132368445,-0.6832501210726797,-9.769767253282666,-0.5051850623929873,50,standing
1783066199429187800,5.698945,-0.0014498334821313,0.0563578470379114,0.0902940189093351,-0.0468743555247783,-0.0275727119296789,0.0176720581948757,-0.68718241902031,-9.769036016398667,-0.5139180751532316,50,standing
1783066199449115000,5.7188722,-0.1916276835534721,0.0823480283409357,0.1038415192792192,-0.0271526463329792,-0.0323426350951194,-0.0026358449831604,-0.6889895415075122,-9.768539172792432,-0.5208815940229222,50,standing
1783066199469041000,5.7387982,-0.2232128353193402,0.0410316830903291,0.051084290549159,0.014599391259253,-0.0399484187364578,-0.0214881282299757,-0.6865837224747985,-9.768673028305171,-0.521544843704626,50,standing
1783066199488967000,5.7587242,-0.2326687920592725,-0.0708978290438652,0.1172007305353879,-0.0043429238721728,0.0011601764708757,-0.0283346865326166,-0.6819161690551787,-9.769120772072672,-0.519276569979079,50,standing
1783066199508893700,5.7786509,-0.2362166937991976,-0.1060556516647338,0.1414425338011234,-0.0375315621495246,-0.0250990651547908,-0.0481608137488365,-0.6746274002864956,-9.769428815108537,-0.5230184233885258,50,standing
1783066199528819700,5.7985769,-0.1366033501416444,-0.0746755940169096,0.1584632997721433,-0.0495553612709045,-0.0295690167695283,-0.04066102206707,-0.6660527564257382,-9.769533444526791,-0.531958649158664,50,standing
1783066199548746000,5.8185032,0.0736858523271977,0.0961439139813184,0.0564665681093931,-0.0041777775622904,-0.0589777640998363,-0.0179520938545465,-0.6605646073382347,-9.769616446635126,-0.5372522985873743,50,standing
1783066199568672800,5.83843,0.0601525631457567,0.1697013176232576,0.0407628395536914,0.0283085443079471,-0.0462057925760746,-0.038759246468544,-0.656159065855667,-9.77015011512041,-0.5329209183195606,50,standing
1783066199588598800,5.858356,-0.1145159484308212,0.1586322265982628,0.1138245321005582,0.0095772622153162,-0.0730353444814682,-0.0778219923377037,-0.6445956885077059,-9.771202254521846,-0.5277217422412708,50,standing
1783066199608524800,5.878282,0.0116705640494823,-0.014862053567171,0.1218663842588663,-0.0587995462119579,-0.0476421937346458,-0.0543802641332149,-0.6311701705496758,-9.77188614513278,-0.5312746854824945,50,standing
1783066199628450800,5.898208,0.1906610304784029,-0.0117301852822303,0.0308564356325194,-0.0771610736846923,-0.0703311786055564,-0.0075077665969729,-0.6265551510348916,-9.771424957361816,-0.545011570944637,50,standing
1783066199648377900,5.9181351,-0.0047053281467407,0.0555418544799089,-0.1505032806783914,-0.0482370965182781,-0.0602587610483169,-0.028767330572009,-0.6249697815395892,-9.770912916186452,-0.5559362119976431,50,standing
1783066199668303600,5.9380608,-0.3307528803229331,0.066062079450488,-0.0900328106898814,-0.0357479527592659,0.0008176590199582,-0.0492642112076282,-0.617351050164178,-9.770959677937626,-0.5635847174568102,50,standing
1783066199688230000,5.9579872,-0.282590139776282,0.0111211134731769,-0.1469394507169723,-0.0166735779494047,0.0230659563094377,-0.0417057648301124,-0.6077535295290872,-9.77123381870389,-0.5692262670077384,50,standing
1783066199708157000,5.9779142,-0.141418824131973,0.0538414803028106,-0.1864151365369558,0.0416618846356868,0.0130881732329726,-0.0245024058967828,-0.6013822043988853,-9.771756381273269,-0.5670104541217907,50,standing
1783066199728083000,5.9978402,-0.120240536622703,0.1640098279833793,-0.1988853265315294,0.0734139233827591,-0.0103819677606225,-0.0359787456691265,-0.5963740208480507,-9.772838915812969,-0.5534927643682808,50,standing
1783066199748008700,6.0177659,-0.2932062628693878,0.095085344839096,0.1126864679813385,0.0097038242965936,0.0553875491023063,-0.0371406376361846,-0.5887577371580526,-9.773795193624496,-0.5446903396336361,50,standing
1783066199767935700,6.0376929,-0.1427030917888507,0.0505909540742635,0.1891231533866375,-0.0677913725376129,0.0603385120630264,-9.79965552687e-05,-0.5836379099262878,-9.773744340220093,-0.5510965168815106,50,standing
1783066199787861800,6.057619,0.0329056232472881,0.0546884525209665,0.2433803018182516,-0.077664591372013,0.0331727489829063,0.0235920567065477,-0.586415046489425,-9.772603353491425,-0.5680938654443248,50,standing
1783066199807787800,6.077545,-0.0635779344845563,0.1799550006121397,0.0109415921878069,0.0201254934072494,-0.0157866794615983,-0.0115426974371075,-0.5873457880008965,-9.772175483468176,-0.5744768810123205,50,standing
1783066199827714800,6.097472,-0.1168443913783878,0.1663543452829122,-0.0005980389583855,0.0615218803286552,-0.0064564989879727,-0.0146700059995055,-0.5840582907628268,-9.772940038099884,-0.5647326453829183,50,standing
1783066199847640800,6.117398,-0.0529802238309755,0.0973959598690271,0.0715372959911823,0.0101676685735583,0.0007310439250431,-0.0063535277731716,-0.5823810052003711,-9.773561969390512,-0.5556150537518784,50,standing
1783066199867566800,6.137324,-0.1503162702063098,0.0290460617423057,0.1577121891438961,-0.069364920258522,0.034147273749113,0.0049849962815642,-0.5823094743341207,-9.773147543370722,-0.5629308566579595,50,standing
1783066199887494000,6.1572512,-0.1046876147145405,-0.0259165315449237,-0.0366886489173397,-0.0586150102317333,0.0172159001231193,0.0219772644340991,-0.5845431151377036,-9.77220354051888,-0.5768258918238803,50,standing
1783066199907420000,6.1771772,-0.0654951662827283,0.0317488909602165,-0.1553636532563716,0.0117234028875827,-0.0052947970107197,0.0204872041940689,-0.5890197856277227,-9.77166168872714,-0.5814517615262419,50,standing
1783066199927345700,6.1971029,-0.1824817426107823,0.1293482644468545,-0.1335498077899217,0.0495649687945842,0.0183115396648645,-0.0040083909407258,-0.5906957925485447,-9.77199545072615,-0.5740867126509547,50,standing
1783066199947272700,6.2170299,-0.2925840758504346,0.1241033495306968,0.0136211135953664,0.036616213619709,0.0551057085394859,-0.003421195782721,-0.588781446827203,-9.772586402356623,-0.565933362942189,50,standing
1783066199967199000,6.2369562,-0.1040598382050171,0.1084784948974847,0.0828034439582377,0.0201431233435869,0.0157152712345123,0.0195919033139944,-0.5898096208311617,-9.772821964678169,-0.5607460964974016,50,standing
1783066199987125000,6.2568822,-0.1405943925391882,0.0092202482879161,0.0537193152278661,0.0197205767035484,-0.0094037568196654,0.0054837637580931,-0.5930788517601787,-9.772774618405103,-0.5581476044367999,50,standing
1783066200007052000,6.2768092,-0.2093534559886902,0.0543780713975429,0.0622270313322544,0.0475263856351375,-0.0328646264970302,-0.0082292668521404,-0.5922551873523741,-9.77319079799056,-0.5516916332304478,50,standing
1783066200026977800,6.296735,-0.0339777459908276,0.0328185660183429,0.0993652141153812,0.0325164087116718,-0.0125472266227006,0.0207365490496158,-0.5934527631064876,-9.773628020364043,-0.5425921617779881,50,standing
1783066200046903800,6.316661,-0.038769912170805,-0.0381558353930711,0.1540799701213836,-0.0294329710304737,0.0165869407355785,0.0371047221124172,-0.5994345043972135,-9.77328256792724,-0.542240352665633,50,standing
1783066200066829800,6.336587,-0.1229781448930501,0.0045183542072772,0.12204236188028,-0.026069913059473,-0.0226419698446989,0.0202297288924455,-0.605308072605729,-9.772561267915368,-0.54865920673199,50,standing
1783066200086756900,6.3565141,-0.1574579586545005,-0.0093570264101028,-0.0526081391155719,0.0406702160835266,-0.0514810532331466,-0.0163380093872547,-0.6062923709353432,-9.772602768969536,-0.546840065013431,50,standing
1783066200106683000,6.3764402,-0.1117285827346146,0.013120178335905,-0.1269522726884111,0.0782950595021247,-0.066271424293518,-0.0479512959718704,-0.6008456863693893,-9.773681211856006,-0.5333986918991431,50,standing
1783066200126609000,6.3963662,-0.0916608868157491,0.0166407536774873,0.0101181104430928,0.0414436161518096,-0.0274372585117816,-0.0503102168440818,-0.5914347012823448,-9.774956638619305,-0.5203823757965117,50,standing
1783066200146536000,6.4162932,0.0762421492138877,0.0878840351581573,0.0527004205089062,0.0089869648218154,-0.0384551174938678,-0.0073992870748043,-0.5857583726789802,-9.775573309212923,-0.5152299980020151,50,standing
1783066200166462000,6.4362192,0.192928317823261,0.2504237905889749,-0.0022422259688377,0.0024119722656905,-0.067201092839241,0.0237432904541492,-0.5891687291117385,-9.775455820313097,-0.5135590325824916,50,standing
1783066200186388200,6.4561454,-0.0645175899548456,0.2182645652621984,0.0622135873287916,-0.0339777432382106,-0.0208237208425998,-0.002667405642569,-0.5922418164141475,-9.77516940458715,-0.5154662909759208,50,standing
1783066200206315300,6.4760725,-0.2803152171142399,0.0410772757977247,0.1400368317216634,-0.0295685268938541,-0.0368152968585491,-0.0250963326543569,-0.5889296961914747,-9.775003400370478,-0.5223613111866637,50,standing
1783066200226241000,6.4959982,-0.0861872411776334,-0.0752320588558912,-0.0707190384108573,0.0095854736864566,-0.0806889459490776,-0.0083325020968914,-0.5858353469053283,-9.77511329048574,-0.5237914901202544,50,standing
1783066200246167300,6.5159245,-0.0502909482143819,-0.0279173499733209,0.017233970330283,0.0211994908750057,-0.0422065034508705,0.0103519903495907,-0.5870157523289322,-9.775292154183983,-0.5191187490688637,50,standing
1783066200266094000,6.5358512,-0.1818639029733836,0.0641641368746757,0.0357874257612973,-0.0134012727066874,-0.0125488406047225,-0.0083114951848983,-0.587572619026713,-9.775344176632164,-0.5174707626661286,50,standing
1783066200286020400,6.5557776,-0.2468008873840793,0.0879839884012937,0.0541501078605651,-0.0418098531663417,-0.0262094158679246,-0.0154807996004819,-0.5847352401763201,-9.775223180601,-0.5229643185811117,50,standing
1783066200305946000,6.5757032,-0.0493206053448841,0.0634030893743038,-0.0274573312461376,-0.0230150278657674,-0.0260864719748497,0.0097310366109013,-0.584394573512487,-9.774883573383091,-0.5296433944862335,50,standing
1783066200325873200,6.5956304,0.0603744257355108,0.131454881337285,-0.1409673905700445,0.0201282426714897,-0.0313468091189861,0.0148493349552154,-0.5873981027100235,-9.77470061803162,-0.529708349481225,50,standing
1783066200345799200,6.6155564,-0.0511933404142037,0.0972720412284135,-0.14359839666076,0.0084513304755091,0.012869669124484,0.0027637812308967,-0.5895549154177308,-9.774785958227517,-0.5257309337502345,50,standing
1783066200365725200,6.6354824,-0.1513454671235755,0.0304711261093616,-0.0274847672423347,-0.0041051255539059,0.0228479225188493,-0.0201731137931346,-0.5877146578459069,-9.77487129842341,-0.5261740378752351,50,standing
1783066200385651200,6.6554084,-0.0255812717085704,0.0202606977403163,-0.1260253305692225,0.023127369582653,0.0037974542938172,-0.0140645420178771,-0.584042399073951,-9.775137255883216,-0.5253468298034742,50,standing
1783066200405578200,6.6753354,0.0841820388350635,0.1090191776454448,-0.1525737302768975,0.0553695522248744,-0.0190384462475776,-0.0112475026398897,-0.5814279422592371,-9.775759187173843,-0.5166057798672468,50,standing
1783066200425504300,6.6952615,0.0041783816631883,0.0713175157606601,0.0929366789052262,0.0096719991415739,0.0175801273435354,-0.0023339777253568,-0.5801334820019081,-9.77621336068213,-0.5093780936360359,50,standing
1783066200445430300,6.7151875,-0.0390616251263767,-0.0257996271669864,0.1357061821062117,-0.0384643115103244,0.0054483008570969,-0.0080640669912099,-0.5796897568223998,-9.77606080046892,-0.5127925417220219,50,standing
1783066200465357300,6.7351145,-0.1186473126145079,0.00734802467525,0.1058761303793638,-0.03678834810853,-0.0125059625133872,-0.0309241190552711,-0.5761201912399381,-9.775841604760288,-0.5209712085351348,50,standing
1783066200485283000,6.7550402,-0.0908868702359497,0.0356762935370206,0.0896066576996818,-0.0009836503304541,-0.0436629131436347,-0.0399464182555675,-0.5694639116885141,-9.776036250549554,-0.524602696905285,50,standing
1783066200505209000,6.7749662,-0.0087965064505115,0.0921376009494066,0.0219634465375915,-0.0029156189411878,-0.0329648815095424,-0.0368247479200363,-0.5628191033791751,-9.776533094155788,-0.5225013041792437,50,standing
1783066200525136100,6.7948933,-0.1612146808395162,0.0788689540535211,0.258183903196454,-0.0666841492056846,0.0087819676846265,-0.0347890444099903,-0.5556990787735209,-9.776582778516412,-0.5291772748118266,50,standing
1783066200545062400,6.8148196,-0.0300145779808983,0.0840256061643362,0.0623654899548739,-0.0813973993062973,0.0006668614223599,0.0129626551643013,-0.5529735993323848,-9.775904733124374,-0.5443484673934057,50,standing
1783066200564988200,6.8347454,0.0715619555084034,0.1784375817865133,-0.120607908630371,-0.0435850992798805,-0.0323386937379837,0.0351441539824008,-0.5584826450774446,-9.774846748504045,-0.5575494558805599,50,standing
1783066200584914200,6.8546714,-0.1461539628950879,0.1993196262955665,-0.1677940226972103,0.0063936347141861,-0.0268946457654237,-0.005372226703912,-0.5617815770249813,-9.774480253279208,-0.5606418689379469,50,standing
1783066200604841200,6.8745984,-0.2556013758899644,0.1340396371334791,0.0001736030012369,0.0277265105396509,0.0199182424694299,-0.0200660247355699,-0.5585768261669203,-9.774891172167658,-0.5566757052533329,50,standing
1783066200624767200,6.8945244,-0.130041215147078,-0.023780688560009,-0.0076788640648126,0.0193644352257251,0.0196652580052614,-0.0200211461633443,-0.5542515468463302,-9.775387431252,-0.5522651953347028,50,standing
1783066200644693200,6.9144504,-0.1148943532891571,-0.1390232707649469,0.0500742367237806,-0.0127295842394232,0.0288102868944406,-0.0231791231781244,-0.5494965708715841,-9.775665079149602,-0.5521085069356486,50,standing
1783066200664620300,6.9343775,-0.039000031132251,-0.0626373656988143,0.05622983674407,-0.0052547818049788,0.0014166354667395,-0.0011877309298142,-0.5462326737048104,-9.775735806298256,-0.554073706061393,50,standing
1783066200684546300,6.9543035,0.0397532606523483,0.0557183800905942,-0.0451350267559289,0.0065517798066139,-0.0013447650708258,0.0224057715386152,-0.5494190121233463,-9.77557856990993,-0.5537150288168341,50,standing
1783066200704472300,6.9742295,-0.1927562857246026,0.1233025545418262,0.0546662406891584,0.0088041378185153,0.0277639925479888,-0.0108760641887784,-0.5513914447074756,-9.775526547461748,-0.5526600764038041,50,standing
1783066200724399400,6.9941566,-0.1901981622070074,0.1599257735401391,0.0867068080723285,0.0281234830617904,0.0217319503426551,-0.0057696253061294,-0.5479641736725345,-9.775937466350197,-0.5487876919498667,50,standing
1783066200744325000,7.0140822,0.0280296147087588,0.0644371085971593,0.0412456181019544,0.0291985813528299,-0.0058599663898348,0.0018475954420864,-0.5486188747216015,-9.776216867813469,-0.5431301411122084,50,standing
1783066200764251100,7.0340083,-0.1691171245271339,0.0534562803775072,0.137674815298058,0.015592991374433,-0.0206125155091285,-0.0241001080721616,-0.5463001494504511,-9.776607912957669,-0.5384038797752931,50,standing
1783066200784177400,7.0539346,-0.1238617593271657,0.0626256752610206,0.182611579535529,0.0111383516341447,-0.0312926210463047,-0.0105688767507672,-0.5430731136953458,-9.776950442785024,-0.5354566838748753,50,standing
1783066200804104400,7.0738616,-0.0015860270824283,0.0562304212659597,0.0462743695167824,0.0116752292960882,-0.0588022619485855,-0.0185912437736988,-0.5426458281939849,-9.777136320745944,-0.5324466884039342,50,standing
1783066200824030200,7.0937874,-0.1805112097227945,-0.0189414318352937,0.0902022855052724,-0.0088054481893777,-0.093796819448471,-0.0218978505581617,-0.5384975128754973,-9.777532626587153,-0.5293883237466216,50,standing
1783066200843956200,7.1137134,-0.0340107714775949,-0.1825035160511732,0.2900361814659088,-0.029655447229743,-0.0635496005415916,-0.0391067564487457,-0.530572017105855,-9.777825472053886,-0.5320003694085403,50,standing
1783066200863883300,7.1336405,0.0054410950753837,-0.0613344664067029,0.1589058559078723,-0.0233969707041978,-0.0183589961379766,-0.0069830501452088,-0.5261798100288957,-9.777785724565389,-0.5370400440761819,50,standing
1783066200883809300,7.1535665,0.0922905630214139,0.1770481732547283,-0.0609615049084648,0.0031382178422063,-0.0594603419303894,0.0059216991066932,-0.5274366416895762,-9.77764660835564,-0.5383366597579792,50,standing
1783066200903735000,7.1734922,-0.0921103110836818,0.2306798101991415,-0.0698556995797902,0.0128711787983775,-0.0450413636863231,-0.0211349129676818,-0.5263419417880475,-9.777859374323487,-0.5355785201562568,50,standing
1783066200923662000,7.1934192,-0.1075894736358895,0.1578553970068693,0.0099519966285675,0.0150197157636284,-0.0498288348317146,-0.0118199437856674,-0.5225346219269559,-9.77820774936974,-0.5329358236277476,50,standing
1783066200943588400,7.2133456,0.0948775107746943,0.0515782115459442,-0.0352402402073144,0.0265832934528589,-0.0111934170126914,0.0276419408619403,-0.5249360205128789,-9.778321731138227,-0.5284448688840493,50,standing
1783066200963514400,7.2332716,0.0268756223680451,0.0554062454015016,-0.0796885268080979,0.031879223883152,0.0037285727448761,0.0277756378054618,-0.531453695311211,-9.778260356339812,-0.5230518142014742,50,standing
1783066200983440100,7.2531973,-0.0967094023769721,0.1349684424161911,-0.0755962159931659,0.0496214069426059,-0.0085940770804882,0.0112800514325499,-0.5350605972293764,-9.778513454318048,-0.5145740183113142,50,standing
1783066201003367200,7.2731244,-0.1771667946657165,0.0458487279832363,-0.0316192001659423,0.0231168754398822,-0.007797572761774,-0.0056482274085283,-0.5355572216399014,-9.77887819597721,-0.5070761003039777,50,standing
1783066201023293200,7.2930504,-0.202259077280946,-0.0088268650561571,0.1003799441158771,-0.0063055702485144,0.0222073085606098,0.0093104103580117,-0.5348557588396594,-9.778968796870112,-0.5060474513759836,50,standing
1783066201043219200,7.3129764,0.0369660776192322,0.0787625710695981,0.0512928917985409,0.0071630058810114,0.0189833790063858,0.0540411695837974,-0.5410952012185007,-9.778572491028903,-0.5070895077748224,50,standing
1783066201063146200,7.3329034,0.1093607941573485,0.2160954045295715,-0.0326192440539598,0.0450501777231693,-0.0175932589918375,0.0508716031908988,-0.5522881378188729,-9.778237559986112,-0.5014371811015531,50,standing
1783066201083072300,7.3528295,-0.1147679869631305,0.1567015507966279,0.0181862295538187,0.0151898674666881,0.0269850194454193,0.0161946807056665,-0.5583019912809133,-9.778249834945797,-0.4944826127232983,50,standing
1783066201102998300,7.3727555,-0.1132462207559496,-0.0062561377853155,0.1814338409930467,-0.049502495676279,0.0525840446352958,0.0388923659920692,-0.5622179956808686,-9.77779858404696,-0.4989647631060331,50,standing
1783066201122924300,7.3926815,0.1189972950959578,-0.0390226813554763,0.0440074840307235,-0.0373646542429924,-0.0181129835546016,0.046320617198944,-0.5713518077943474,-9.77675521247387,-0.5089312631839886,50,standing
1783066201142851000,7.4126082,-0.0854951672602444,0.088472064179182,-0.0350678062498569,0.0008499826071783,0.0137595878913998,0.0033265934325754,-0.5762023530980572,-9.776309806793927,-0.512007236563228,50,standing
1783066201162777000,7.4325342,-0.1652325381787493,0.084902388998866,0.0878337662756442,-0.0043931081891059,0.0427644662559032,-0.0069765797816216,-0.5747254124132916,-9.776331434103843,-0.5132534737646579,50,standing
1783066201182703600,7.4524608,0.0141253733230754,0.0309819982409477,-0.0049047962415963,-0.027665814384818,0.0098447408527135,0.0165979228913784,-0.5754160980911925,-9.776132112139464,-0.516282868055813,50,standing
1783066201202630400,7.4723876,0.0631684403682127,0.0611462503582239,0.0210275173943489,-0.0333412140607833,-0.0099199712276458,0.0370403155684471,-0.580914622442238,-9.775471017882229,-0.5226126921318471,50,standing
1783066201222556400,7.4923136,-0.0027126564921811,0.1081008937567472,-0.0763889007408171,-0.0263212472200393,0.0087582347914576,0.0277121271938085,-0.5870092860555276,-9.774840903285146,-0.5275490525554866,50,standing
1783066201242482400,7.5122396,-0.177509032232128,0.0711304687559604,0.0335153161108493,-0.0396773293614387,0.0838767439126968,0.0016693918732926,-0.590580824399367,-9.7742312469542,-0.5348013252386823,50,standing
1783066201262408400,7.5321656,-0.233110507944785,0.0649012189775705,0.0101543873328715,-0.0208592284470796,0.140348345041275,-0.0126416236162185,-0.5878012766834348,-9.773986332282425,-0.542265304443799,50,standing
1783066201282335500,7.5520927,-0.0273443358583375,0.0451993241637945,-0.0068576838750392,-0.0002838659565895,0.1528451889753341,-0.0018234744202345,-0.5846735731169581,-9.773889301648737,-0.5473996716575696,50,standing
1783066201302261200,7.5720184,0.0467485263671725,0.127853641974926,-0.1451426304280758,0.0550963506102561,0.1397988349199295,-0.0155844567343592,-0.5818525974120944,-9.774241768348215,-0.5440880628915503,50,standing
1783066201322187500,7.5919447,-0.1182053410006686,0.1536333953976631,-0.0301830298829823,0.0991122722625732,0.1074393019080162,-0.0624803006649017,-0.5720730712736025,-9.775631761401891,-0.5293116783138364,50,standing
1783066201342114600,7.6118718,-0.1084282260149717,-0.0575917727470397,-0.0328670813351869,0.0798529535531997,0.1119303330779075,-0.0358594469726085,-0.5616489270886406,-9.777190096759796,-0.5113649566043168,50,standing
1783066201362040600,7.6317978,0.0119993941450491,-0.1182721591591835,0.0152805712401866,0.0406200028955936,0.0865829586982727,0.0092343082651495,-0.558625560679473,-9.777861127889157,-0.5017526037262753,50,standing
1783066201381966300,7.6517235,0.0705729444710537,0.0902753142088651,-0.0446651442218571,0.0137501638382673,0.0391484759747982,0.0459214150905609,-0.5639281971322372,-9.77781495065987,-0.4967234869852662,50,standing
1783066201401892400,7.6716496,-0.0475740904711186,0.1344727678537368,0.1186128258230164,-0.0100474059581756,0.028511369600892,0.0441240929067134,-0.5731228360548615,-9.777271929824352,-0.4968967611929401,50,standing
1783066201421819400,7.6915766,-0.1304421240981668,0.0958031377196311,0.1485012932062148,0.0181690845638513,-0.0107037080451846,0.0454253032803535,-0.5809350076431408,-9.776757550561427,-0.4979049883874133,50,standing
1783066201441745400,7.7115026,0.0378859689431265,-0.0027513445347547,0.0651565819781273,0.0641155019402504,-0.0487834177911281,0.0502427220344543,-0.5900487633492797,-9.776665780624748,-0.4889302758257836,50,standing
