time,seconds_elapsed,acc_x,acc_y,acc_z,gyr_x,gyr_y,gyr_z,grav_x,grav_y,grav_z,fs_hz,activity
1783067931974275300,0.0,-0.4925891636595129,0.4090174387425184,-0.7793366057783365,1.243457317352295,-0.0295241121202707,-0.2804325819015503,-0.7383296918030828,-6.584561345908045,-7.229716860255599,50,standing
1783067931994201300,0.019926,-0.4242020022623241,0.6346300286799669,-0.9363070366442204,1.580776572227478,0.0216704625636339,-0.4734224677085876,-0.6886530030295253,-6.790870684960484,-7.041322532600164,50,standing
1783067932014127600,0.0398523,-0.1174394711947068,0.5673895530998706,-0.7749369095146655,1.863420248031616,0.1095687225461006,-0.5719192028045654,-0.6071057331448421,-7.036672076445818,-6.803459532898664,50,standing
1783067932034053400,0.0597781,-0.204001646631956,0.1143336506664752,-0.9441279395282268,1.9461109638214111,0.0462386198341846,-0.4408592581748962,-0.5193463838122785,-7.297686819154023,-6.530270368272066,50,standing
1783067932053979400,0.0797041,-0.2512355088306591,0.0548567948251962,-0.6153063195288181,1.98442804813385,-0.1346071660518646,-0.2433016151189804,-0.4757039702342823,-7.550354004755616,-6.239891583913565,50,standing
1783067932073905400,0.0996301,0.4440635080846026,0.498799416476488,-0.3872995279312133,1.944882035255432,-0.538383960723877,-0.220121219754219,-0.4811737434148788,-7.793183102431893,-5.933392270359397,50,standing
1783067932093831400,0.1195561,-0.0296588233457878,0.8008318137496709,-0.1678477987110614,1.8944741487503047,-0.547674298286438,-0.1969366073608398,-0.5112811873110011,-8.01575851663053,-5.626419494074582,50,standing
1783067932113757400,0.1394821,0.4419772398624569,0.3923801921963691,-0.2433300329357385,1.899910926818848,-0.8127522468566895,-0.0952882692217826,-0.5539061674747616,-8.224561426064371,-5.31226469733119,50,standing
1783067932133683500,0.1594082,-0.1787024432677775,1.0060936895757913,-0.8418857086718082,1.805830121040344,-1.3233200311660769,-0.046343807131052,-0.6568738630615174,-8.415549861866236,-4.991736273902655,50,standing
1783067932153609200,0.1793339,-0.579931054764986,1.449760416895151,-0.5516226596474647,1.6340410709381104,-1.7770318984985352,-0.2099439203739166,-0.788953817494586,-8.582836519563198,-4.677912608809769,50,standing
1783067932173535200,0.1992599,0.0384160937644541,1.676090215191245,0.0458709398150444,1.58085834980011,-1.6635761260986328,-0.4356856048107147,-0.8912007975913584,-8.732252589526771,-4.373091457600891,50,standing
1783067932193461500,0.2191862,0.807781632887572,0.423346992868185,0.7797375877946615,1.6286710500717163,-0.983403503894806,-0.3125140070915222,-0.932878669630736,-8.874878853219746,-4.066527262116969,50,standing
1783067932213387500,0.2391122,1.1538530783735217,-0.9620394437938928,0.8040057676106691,1.4078152179718018,-0.5188987851142883,0.1106218993663787,-0.9694996966719628,-8.998289544311165,-3.776408005477488,50,standing
1783067932233313300,0.259038,0.2504026016704738,0.4664116430908441,0.2940779311373829,1.01265549659729,-0.3744537532329559,0.1851471215486526,-1.0355510355327278,-9.082395229974388,-3.5507901548430323,50,standing
1783067932253239300,0.278964,0.0484548918936401,0.9211837017923592,0.5715878815725446,0.7867478132247925,-0.4328223168849945,0.213728129863739,-1.0918779029104857,-9.139729228568076,-3.3828292511463163,50,standing
1783067932273165600,0.2988903,0.6084934977088123,0.3621645021528005,-0.1833510727912187,0.840636134147644,-0.5841314792633057,0.4069734811782837,-1.181755376908183,-9.18524594811797,-3.225692816063761,50,standing
1783067932293091300,0.318816,0.643173400619626,0.0510930583775043,-0.5567725897565484,0.974246382713318,-0.5312751531600952,0.5000109672546387,-1.306516898086667,-9.230161779165268,-3.0442560524612663,50,standing
1783067932313017300,0.338742,-0.4314912824876606,0.5293061984211206,-0.2328095157042145,0.9566170573234558,-0.1589037179946899,0.3917350172996521,-1.4108467488721013,-9.275324278450013,-2.8545132328063247,50,standing
1783067932332943400,0.3586681,-0.3844743875078856,0.4122328936576843,-0.0866346196189522,0.750254213809967,0.0148931834846735,0.3267923593521118,-1.477316678471118,-9.313274946659805,-2.6927339403539894,50,standing
1783067932352868400,0.3785931,0.1498223126769065,0.6149573599606752,-0.128998720356822,0.5302080512046814,-0.088775910437107,0.3341409564018249,-1.5442951421141624,-9.335238356664776,-2.576598500962555,50,standing
1783067932372794400,0.3985191,0.5286474422514438,0.1809089403361082,0.8094146409168839,0.4757074117660522,-0.0757409185171127,0.4003231227397918,-1.614717316470295,-9.349206091740728,-2.4810163125172258,50,standing
1783067932392720400,0.4184451,0.3589282967105507,-0.70109309014678,0.261166133877635,0.4130580425262451,-0.1222377717494964,0.3824380934238434,-1.6963894913762807,-9.357247359377146,-2.394699234414845,50,standing
1783067932412646400,0.4383711,-0.2645114987827837,0.0811100109785795,0.2032395762182772,0.3793841302394867,0.0329231768846511,0.341988742351532,-1.763676144185662,-9.363878175693747,-2.318965948038548,50,standing
1783067932432572400,0.4582971,-0.268767841053009,-0.5740390741169452,0.0880192058451473,0.3637751042842865,0.3032337725162506,0.4501383304595947,-1.8300487508900465,-9.366386943644285,-2.256567213401198,50,standing
1783067932452498400,0.4782231,-0.3300393252260983,-0.3924900823116302,-0.0458773695558309,0.416700541973114,0.100152887403965,0.4812133312225342,-1.906743868035823,-9.365976609277723,-2.193898429650813,50,standing
1783067932472424200,0.4981489,-0.8368276946298777,-0.1190630172759294,-1.0439569717630743,0.6357661485671997,-0.1940623074769973,0.2124903798103332,-1.981596572185308,-9.373049908664822,-2.0951408260397613,50,standing
1783067932492350500,0.5180752,-0.4902402624458074,-0.0592868862271308,-0.6288577288888394,0.683081865310669,-0.2380571216344833,0.0728390142321586,-2.0134956852711734,-9.396013435623049,-1.9573289768911897,50,standing
1783067932512276500,0.5380012,-0.8280576743274927,-0.1442582488089799,0.0149450556755065,0.4581347107887268,0.0845183506608009,0.0359167382121086,-2.025980049921572,-9.416387530609963,-1.8432171522818503,50,standing
1783067932532202500,0.5579272,-0.7835409256003797,0.2347387302011251,0.3726303665876388,0.1988175958395004,0.2172205299139022,-0.0543368123471736,-2.019770235496014,-9.427724332660436,-1.7913444878339766,50,standing
1783067932552128300,0.577853,-0.5405491847082973,0.5157026204824448,-0.1032192591950297,0.1392162889242172,0.0859488397836685,-0.1530380845069885,-1.9916177615925668,-9.43814226630032,-1.767849192086607,50,standing
1783067932572054300,0.597779,-0.2081276405207812,0.4344090696305036,-0.3560685233652591,0.0932067334651947,-0.0957165881991386,-0.1390937864780426,-1.9641611609987912,-9.447979769703744,-1.7458906043872235,50,standing
1783067932591980500,0.6177052,-0.0279281636282801,0.7460276258945465,-0.5193412692457438,-0.0017580701969563,-0.6527228951454163,-0.1395058035850525,-1.950280811945349,-9.455085802316663,-1.722828439360112,50,standing
1783067932611906300,0.637631,-0.639736119647324,1.5451380226790905,-1.0784178981609642,-0.1107586100697517,-1.0429459810256958,-0.246814951300621,-1.9503413099609317,-9.458873504161836,-1.7018489258259537,50,standing
1783067932631832300,0.657557,-1.0388163940042257,1.4486065706849098,-0.0209482416130602,0.0551585145294666,-0.5980991125106812,-0.5115712285041809,-1.9066504906639457,-9.472026415723562,-1.678037257605791,50,standing
1783067932651758300,0.677483,-0.7376110952049494,0.7474941913157701,-0.0620329700648784,0.3161341845989227,-0.1597563624382019,-0.5670762062072754,-1.811465484842658,-9.499199084809424,-1.6291710814975202,50,standing
1783067932671684400,0.6974091,-0.1559292512498795,0.2925958758860826,-0.580262040285021,0.3851955235004425,-0.0704560503363609,-0.42093625664711,-1.7221726057998834,-9.528379586586356,-1.5538699029281735,50,standing
1783067932691610400,0.7173351,-0.0202889009214937,0.2804366515368223,-0.2703345058478414,0.3662245869636535,-0.1194367334246635,-0.4040164351463318,-1.6472729937687516,-9.553330487969518,-1.4801264751948415,50,standing
1783067932711536400,0.7372611,0.2312787990055978,0.2789233243644237,-0.1434533621668815,0.3645998835563659,-0.0874375998973846,-0.3153539299964905,-1.579662954223901,-9.5757580083549,-1.407091195730865,50,standing
1783067932731461400,0.7571861,0.3803719206251204,-0.1801923164993524,-0.2661702257752418,0.383605808019638,0.1144011914730072,-0.0819628536701202,-1.5408118300430476,-9.59234030984342,-1.335401193396002,50,standing
1783067932751387400,0.7771121,0.2493025314740836,-0.6150999833017587,-0.2954315377034247,0.3841078281402588,0.3950094282627105,0.1102698594331741,-1.539178968144208,-9.601707857647538,-1.2682812754556536,50,standing
1783067932771313400,0.7970381,0.3543257713511586,-0.603750906291604,0.068566025095433,0.1603130996227264,0.5192314982414246,0.1676466912031173,-1.5550180500499904,-9.604377953639624,-1.228107816629857,50,standing
1783067932791239200,0.8169639,0.1878378628164529,-0.1564507909059524,0.0196247379243373,-0.0401489660143852,0.7065891623497009,0.2610322535037994,-1.5809638076893984,-9.598873511004449,-1.237974399997294,50,standing
1783067932811165400,0.8368901,0.0642842561230063,-0.3127735715180635,-0.2056796628467738,-0.0943576321005821,0.7470130920410156,0.2883331179618835,-1.6164749737925828,-9.58784825912118,-1.276929422944039,50,standing
1783067932831091500,0.8568162,-0.0801899735242128,-0.3312292656630277,-0.3995433618240058,-0.0431346371769905,0.745415449142456,0.2381973415613174,-1.6482738413743674,-9.577322773453592,-1.3147048807173969,50,standing
1783067932851017500,0.8767422,-0.2224744380421936,-0.3117833914369344,-0.3502197973370551,0.0231330636888742,0.6790825128555298,0.154324010014534,-1.6664011803478,-9.570583236065506,-1.3406851251482963,50,standing
1783067932870943200,0.8966679,0.0391107980303466,-0.2274503267586231,-0.2735451384574174,0.1323518753051757,0.5609157085418701,0.1409524530172348,-1.6771939386494457,-9.567827215355637,-1.3468804726570844,50,standing
1783067932890869500,0.9165942,0.1232683600112795,-0.2329991930574178,-0.1317149935781955,0.2125647217035293,0.4847319722175598,0.1390207260847091,-1.6895253046952188,-9.56796457799971,-1.330393594367057,50,standing
1783067932910795500,0.9365202,-0.0843077841065823,-0.0586433276265859,0.2135251156501471,0.2518497705459595,0.3799818754196167,0.0889596045017242,-1.701168103954941,-9.569789455339311,-1.3021392675243315,50,standing
1783067932930721300,0.956446,-0.3660053954899311,0.2235720240205526,0.1246584991954267,0.4291085302829742,0.2428988069295883,-0.0280794650316238,-1.697198177410662,-9.57756944169104,-1.2490358922377227,50,standing
1783067932950647300,0.976372,-0.2362253154970705,-0.0657154579699039,0.0901017842728644,0.5488371253013611,0.0289754811674356,-0.0812334045767784,-1.6839242698177694,-9.59129635374844,-1.15836485670954,50,standing
1783067932970573300,0.996298,-0.3921824776671826,0.1684843430489301,0.1869832918137312,0.479701817035675,-0.1810182631015777,-0.1322588324546814,-1.6651850825563073,-9.606725978070497,-1.0527866132982076,50,standing
1783067932990499600,1.0162243,-0.8878557249471545,0.6094102472275496,-0.1113109418444335,0.3035855889320373,-0.1750109493732452,-0.3862537741661072,-1.6220156567849218,-9.622680503049493,-0.9713164637703448,50,standing
1783067933010425300,1.03615,-0.9052391136854886,0.3467863157570361,0.3033236061275005,0.1500655263662338,0.0709354504942894,-0.5230752825737,-1.532507089164853,-9.641675710898635,-0.9273121946100144,50,standing
1783067933030351400,1.0560761,-0.3199864255063235,-0.0354682037442922,0.2204027463346719,0.0847281441092491,0.3104387819766998,-0.4283125698566437,-1.434364987103641,-9.658205405417084,-0.9121775346465408,50,standing
1783067933050277400,1.0760021,0.4750498537071049,-0.5102174670696258,0.2147351490270346,0.1174423173069953,0.496707558631897,-0.1492384374141693,-1.3689851908288897,-9.668432784920933,-0.9042652271520346,50,standing
1783067933070203400,1.0959281,0.8140933002524078,-0.3695698099732399,-0.3028951515823602,0.08627200871706,0.3842754065990448,0.0489782132208347,-1.3557811336018144,-9.670963764703274,-0.8970489390976727,50,standing
1783067933090129400,1.1158541,0.1799282587356865,0.2498357615679502,-0.0247896464068442,0.1032661870121955,0.3213382661342621,0.0584939233958721,-1.3616167078875006,-9.670870825722814,-0.8891966912273317,50,standing
1783067933110055400,1.1357801,-0.0700273298196494,0.1627268024355173,-0.2895937714606523,0.1522851139307022,0.3259484469890594,0.0470770671963691,-1.365895261989534,-9.671747608557345,-0.8729409182794392,50,standing
1783067933129981200,1.1557059,-0.2061408506177365,0.0645750557631254,-0.1089531266719102,0.1627141386270523,0.3925798833370209,0.0469772033393383,-1.3693933332383632,-9.673104868385195,-0.8521693484075367,50,standing
1783067933149906700,1.1756314,-0.1525743878640234,0.0103472064912319,-0.2145410877596587,0.1392607688903808,0.2741432189941406,0.0095614744350314,-1.369239750111848,-9.674840313875675,-0.8324730796169489,50,standing
1783067933169832700,1.1955574,-0.0943552769988775,-0.0344955593198537,-0.298474923987314,0.0876764580607414,0.1515485346317291,-0.0264569781720638,-1.3641621545866132,-9.676983755645155,-0.815726454412192,50,standing
1783067933189757700,1.2154824,-0.3155051884390413,0.0457172105580568,-0.1352453596614301,0.0094492323696613,0.2171310633420944,-0.0470671504735946,-1.353851626843959,-9.67878583663106,-0.8115117593266069,50,standing
1783067933209683700,1.2354084,-0.3557479131087661,0.2306400627106428,-0.1576437270175665,0.0035663684830069,0.2210277616977691,-0.0560962483286857,-1.3400950503006577,-9.680104518014192,-0.8185918537806719,50,standing
1783067933229609700,1.2553344,-0.1069105149284005,0.3055120560824871,-0.3299626067280769,0.053254097700119,0.0962284728884697,-0.0597945712506771,-1.3264677992254494,-9.68210358287692,-0.8171597020857035,50,standing
1783067933249535700,1.2752604,-0.0920979995913803,0.2899251953721046,-0.1886217066705226,0.0620070844888687,0.0905341356992721,-0.0361113511025905,-1.3153935936339198,-9.684473234617707,-0.8069169058170169,50,standing
1783067933269461800,1.2951865,-0.1398559221968054,0.1569236691147089,-0.0468862543374299,0.0291304215788841,0.154249683022499,-0.0276397485285997,-1.3078877480484543,-9.685995914140342,-0.8008109901573508,50,standing
1783067933289387800,1.3151125,-0.1357309512212872,0.0445177716404199,-0.2024514945805072,-0.0117725823074579,0.2052615284919738,-0.0385754890739917,-1.298245913347602,-9.687015320315956,-0.8041604467157274,50,standing
1783067933309313800,1.3350385,-0.0082746380008757,-0.0081979195028543,-0.2754132704168558,-0.0200499892234802,0.1930749267339706,-0.0407212860882282,-1.2868388225398957,-9.687720253714918,-0.8139487772151828,50,standing
1783067933329239800,1.3549645,0.1392084180735051,-0.0258352830022573,-0.3616821985285729,0.0260100159794092,0.0790065824985504,-0.0119695905596017,-1.2797459416694938,-9.688338093352318,-0.8177615404363721,50,standing
1783067933349165600,1.3748903,-0.0031093641921877,-0.0090770404249429,-0.330954540374875,0.0833252742886543,0.0013719262788072,-0.0158986989408731,-1.27674120689556,-9.689534609660504,-0.8082369023744016,50,standing
1783067933369091800,1.3948165,-0.3416054059877991,0.0879880800545215,-0.1876349606554955,0.1156606450676918,0.0335878431797027,-0.0316477119922637,-1.2725351335078476,-9.69172890483439,-0.7883016371961683,50,standing
1783067933389017900,1.4147426,-0.4934504566639661,0.1552192032843828,-0.2115016469985246,0.1032208949327468,0.1112707778811454,-0.0584443844854831,-1.2625468234568833,-9.69461644296944,-0.7686245114974677,50,standing
1783067933408943600,1.4346683,-0.4174062046423554,0.1449210966318845,-0.2660363702625036,0.0748340561985969,0.1291551738977432,-0.067960686981678,-1.2480604713343084,-9.69763608305156,-0.7540426631111651,50,standing
1783067933428869600,1.4545943,-0.3091200174465775,0.1839905397385358,-0.2257242336183786,0.0495748743414878,0.0990608260035514,-0.0505319535732269,-1.234541649069637,-9.70004431323707,-0.7452745425049215,50,standing
1783067933448796000,1.4745207,-0.2772129402499645,0.1957774236440658,-0.1205307517409324,0.0326143689453601,0.0818324759602546,-0.0317727103829383,-1.225447949770838,-9.701655840086936,-0.739286992527917,50,standing
1783067933468722000,1.4944467,-0.2957558012217283,0.1371779351592063,-0.0965682768732309,0.0109682194888591,0.0729143023490905,-0.0248720366507768,-1.2194745744496582,-9.702612117898465,-0.7366140469916165,50,standing
1783067933488647700,1.5143724,-0.2506474432770162,0.063674892053008,-0.186293555983901,-0.0083388397470116,0.0695570781826973,-0.0247963182628154,-1.214005641519278,-9.70317910413146,-0.7381671947177499,50,standing
1783067933508573700,1.5342984,-0.218412741561234,0.0562158082187175,-0.2449257046293467,-0.0301364045590162,0.070033386349678,-0.0326119922101497,-1.2071844171971082,-9.703650813296436,-0.7431314660616218,50,standing
1783067933528500000,1.5542247,-0.1297610830314457,0.0807300717502832,-0.23779512209706,-0.0463983416557312,0.0627351254224777,-0.025606719776988,-1.2003673575934022,-9.70377414741516,-0.7525065395850687,50,standing
1783067933548425700,1.5741504,-0.0556704492956399,0.1349848090291023,-0.2345218725800514,-0.0206626765429973,0.0439692065119743,0.0079104099422693,-1.197843538204208,-9.703411743843557,-0.7611670350983738,50,standing
1783067933568351700,1.5940764,-0.040404344972223,0.172188458263874,-0.2932271595269441,0.0304066743701696,0.0137452110648155,0.0174265373498201,-1.2008397974107414,-9.703056354534626,-0.7609700512215495,50,standing
1783067933588277800,1.6140025,-0.1546098392143845,0.1630687477409839,-0.2324948237318545,0.0528867207467556,0.0261139776557683,-0.001613650470972,-1.202154241010174,-9.70351461969614,-0.7530182154342532,50,standing
1783067933608203800,1.6339285,-0.1118427836988121,0.083317165634036,-0.1757739155352115,0.0329110845923423,0.0126770613715052,-0.0257703568786382,-1.1986834961596875,-9.704566174575683,-0.7449465526595711,50,standing
1783067933628129800,1.6538545,-0.0048372839633375,0.0351852951496839,-0.0543313827116042,-0.0196093954145908,0.0377768240869045,0.0117613412439823,-1.1969024579618126,-9.704767834627628,-0.7451820419158786,50,standing
1783067933648055800,1.6737805,0.0779517661433666,0.0421218164145946,-0.1220294658660888,-0.0216324981302022,0.0074523789808154,0.0402259454131126,-1.2017300973139702,-9.70377297837138,-0.7503582755099981,50,standing
1783067933667981800,1.6937065,-0.0122996557332575,0.0845166045516729,-0.189165238962695,-0.0021962984465062,0.0290988981723785,0.042090069502592,-1.209641089634225,-9.702622639292478,-0.7525043476279825,50,standing
1783067933687907600,1.7136323,-0.098898327255994,0.1442266846269369,-0.2211865901887416,-0.0069088670425117,0.0666823461651802,0.0407614447176456,-1.216865122603625,-9.701580436763166,-0.7543010217864066,50,standing
1783067933707833900,1.7335586,-0.0575203149460256,0.1409673905700445,-0.2632541191328317,-0.0012077945284545,0.0660053119063377,0.0490310937166214,-1.2242756180558354,-9.700417238202691,-0.7572745577044785,50,standing
1783067933727760000,1.7534847,0.015377748004347,0.1597217754006385,-0.2912747833501547,0.0355495028197765,0.0639090463519096,0.0968177616596221,-1.2376176955141127,-9.698818570834398,-0.7560384400382637,50,standing
1783067933747685600,1.7734103,-0.1362633045323193,0.1203735153526067,-0.3562117312282323,0.0834288373589515,0.0649312138557434,0.0822419002652168,-1.2550671352259817,-9.697329209059475,-0.7463179871432483,50,standing
1783067933767611600,1.7933363,-0.3416490989990532,0.0532487751066684,-0.4536608095239847,0.1631554961204528,0.0201603919267654,0.0308955665677785,-1.2653088355161248,-9.697691028109192,-0.7239871320653707,50,standing
1783067933787538000,1.8132627,-0.3422428271085023,-0.022676526710391,-0.4031891709804535,0.2134872674942016,-0.0256077572703361,0.0101169561967253,-1.2690550363071262,-9.69987713997662,-0.6872203398779034,50,standing
1783067933807463700,1.8331884,-0.1839972617402672,-0.0044271687924861,-0.2497083357959985,0.2021799832582473,-0.0292802527546882,0.0117210140451788,-1.2716770553737875,-9.70241454949975,-0.6452745376173407,50,standing
1783067933827389700,1.8531144,-0.1518275150194764,0.1135761102974414,-0.0755453625887632,0.160811185836792,-0.0100798662751913,0.0167131386697292,-1.2745181240186094,-9.7042990480721,-0.6103933399807662,50,standing
1783067933847315700,1.8730404,-0.0646871378354728,0.0789823513001203,-0.1638246076095849,0.1568862050771713,-0.0304375886917114,0.0127680441364645,-1.2777118054933845,-9.70576912062466,-0.5795746425427496,50,standing
1783067933867242000,1.8929667,-0.0356496977910399,0.0166734869033098,-0.1351180800199508,0.1146406382322311,0.0134130688384175,0.0022466396912932,-1.2798144768610595,-9.70705506878197,-0.5527664593877271,50,standing
1783067933887167700,1.9128924,-0.0353496919311583,0.0222147544175386,-0.1156505054187029,0.0772798806428909,0.0208353754132986,-0.0111425258219242,-1.2783185392148793,-9.708255676743388,-0.5348237197335809,50,standing
1783067933907093800,1.9328185,0.0644635582126677,0.0113496615320444,-0.162644932838343,0.0642042160034179,-0.0006943537155166,-0.0066140219569206,-1.276378364932537,-9.709211954554917,-0.5219469582321122,50,standing
1783067933927019800,1.9527445,-0.0759969057485461,0.0453425320267677,-0.1745142708629369,0.0657877102494239,-0.0172293595969676,-0.0114886751398444,-1.2743331228405237,-9.71013608366251,-0.5096284516679123,50,standing
1783067933946945800,1.9726705,-0.0888048032648861,0.1155786822915077,-0.1566145301003009,0.0535884462296962,-0.0363240987062454,0.0054445597343146,-1.2740949301704765,-9.710791917222735,-0.4976006351459771,50,standing
1783067933966871800,1.9925965,-0.0634125878550112,0.1784843435376882,-0.1363385251929983,0.0067920349538326,-0.0134753799065947,0.0261078551411628,-1.2774895410448313,-9.710698393720389,-0.4906429614951834,50,standing
1783067933986797800,2.0125225,-0.1115071950688958,0.1876636752933263,-0.1407230238875374,-0.0297069959342479,0.0350217372179031,0.0299527160823345,-1.2835643309138711,-9.709702368420364,-0.4944884944748133,50,standing
1783067934006723600,2.0324483,-0.0923139804296195,0.1534866804033517,-0.2951560817629098,-0.0075768455862998,-0.0002239608438685,0.01334841363132,-1.287644001442939,-9.708895143690706,-0.4997191616699099,50,standing
1783067934026649600,2.0523743,-0.0299681450232863,0.0281394682914018,-0.3043289837777614,0.0500544533133506,-0.0127423694357275,0.0234485976397991,-1.2913320423059165,-9.708644968321918,-0.4950354973657056,50,standing
1783067934046575900,2.0723006,0.0099609836526215,-0.0072200143814086,-0.2386743891496211,0.0411524884402751,0.0177051108330488,0.025032939389348,-1.2965455391705036,-9.708450907054544,-0.4851231386277824,50,standing
1783067934066502000,2.0922267,-0.1034122975490987,0.0483206710547208,-0.1284727237213403,0.005601315293461,0.0454167313873767,0.0044827172532677,-1.2988419795446098,-9.70832698841393,-0.481450368399173,50,standing
1783067934086427600,2.1121523,-0.0468342318892478,0.0202811560064554,-0.2044072317581623,0.0006679117213934,0.0209860987961292,-0.0047302423045039,-1.298856300330907,-9.70826736718118,-0.482579153233394,50,standing
1783067934106353700,2.1320784,-0.1434640296913683,0.0699865594178438,-0.2046931360274553,0.0161501355469226,0.0121796475723385,-0.0132872583344578,-1.2966484150230884,-9.708593530395628,-0.4819942294849083,50,standing
1783067934126280000,2.1520047,-0.2012663764491677,0.0900906052917242,-0.192441045762971,0.0025046528317034,0.0301586166024208,-0.027154067531228,-1.2922665466770529,-9.709245856824516,-0.480628676752746,50,standing
1783067934146205700,2.1719304,-0.2407972995877265,0.1500058525502681,-0.1361906776875257,0.000292713753879,0.0460320301353931,-0.0245085079222917,-1.2859553177036345,-9.710053081554172,-0.4812138196969404,50,standing
1783067934166131700,2.1918564,0.0295762230962514,0.1659159538656473,-0.1439419859340414,-0.0209618117660284,0.022872757166624,0.0367928408086299,-1.2868310776248573,-9.709801737141609,-0.4839373263766989,50,standing
1783067934186057000,2.2117817,-0.0227889010436832,0.1318739835321903,-0.1889168902248144,-0.0472920946776866,0.0715328454971313,0.02746426127851,-1.2943214333802462,-9.70838134894967,-0.4923829370303079,50,standing
1783067934205983700,2.2317084,-0.341363121664524,0.1467003812640905,-0.2421861235976219,-0.0045199673622846,0.0821214020252227,-0.0123597867786884,-1.2943256711639464,-9.707944711098074,-0.5009140705429017,50,standing
1783067934225908700,2.2516334,-0.1062942827261984,-0.0956295347183942,-0.4026829384913667,0.0535876266658306,0.0402894541621208,0.0016325481701642,-1.2928168740361927,-9.70832640389204,-0.4973870289279147,50,standing
1783067934245835800,2.2715605,-0.1571288362979888,0.0256295312970876,-0.2535585814833641,0.0585455112159252,0.0757500976324081,-0.0138989491388201,-1.2916625894345342,-9.70897814579904,-0.4875962507430463,50,standing
1783067934265760800,2.2914855,-0.2632385562375188,0.1348567987352609,-0.1993680685471743,0.0394774824380874,0.0885527804493904,-0.0437148734927177,-1.2843135418459772,-9.710315531882642,-0.4802857815992087,50,standing
1783067934285687800,2.3114125,-0.0794410548530518,0.1629512588411569,-0.1189548441937193,0.0175501201301813,0.0727980062365531,0.0001405869843438,-1.277921648851782,-9.711326170229912,-0.476902313173376,50,standing
1783067934305612800,2.3313375,0.0298506561234593,0.1538327173620462,-0.0424883847046643,0.0223263558000326,0.0671141743659973,0.0489332117140293,-1.2839637054949995,-9.710589088127016,-0.4757061987239867,50,standing
1783067934325539800,2.3512645,-0.2277488713137805,0.1562450392007827,-0.2233745286870747,0.041302565485239,0.0773062333464622,0.0273301247507333,-1.291222736712545,-9.709859020286798,-0.4709441719539463,50,standing
1783067934345464800,2.3711895,-0.308596870355308,0.0410609091848135,-0.1976275084901601,0.0516518577933311,0.0786897614598274,-0.0026214979588985,-1.2932738240234554,-9.70989526064396,-0.4645190342772752,50,standing
1783067934365390800,2.3911155,-0.3252995833531021,-0.023411270725727,-0.2328057163119316,0.0618880242109298,0.06829833984375,-0.039462637156248,-1.2885422654569147,-9.710963766658306,-0.4552277300471439,50,standing
1783067934385316900,2.4110416,-0.2513496732622385,0.0244026198506355,-0.1819341551980003,0.078800044953823,0.0418961383402347,-0.057188156992197,-1.2785450414471329,-9.71283774383664,-0.4432515341145917,50,standing
1783067934405242600,2.4309673,-0.108084527143836,0.140649410662055,-0.1489759615132585,0.0835335403680801,0.0133166806772351,-0.0314136631786823,-1.269180416252464,-9.714763743463156,-0.4277271441811695,50,standing
1783067934425168600,2.4508933,-0.0542754878059029,0.158268069460988,-0.1410907246887683,0.0696016401052475,0.0193384625017642,-0.0115236714482307,-1.2652289021477103,-9.715921096804738,-0.4128675017667934,50,standing
1783067934445095700,2.4708204,-0.1387996911421418,0.1308598380535841,-0.1323801794886589,0.0408586375415325,0.0449868813157081,-4.90300590172e-05,-1.263903498762846,-9.71649509730041,-0.4033222958408295,50,standing
1783067934465020700,2.4907454,-0.0930358649633824,0.1004787283152341,-0.1621060767212882,0.0259598102420568,0.0402347967028617,0.0147645287215709,-1.2644763302147388,-9.716641227772833,-0.3979878029450774,50,standing
1783067934484946700,2.5106714,-0.0482043511986732,0.0705506230413913,-0.1709861332694068,0.0086880829185247,0.0310472063720226,0.0271694492548704,-1.2684572165444492,-9.716191730439665,-0.3962902417795732,50,standing
1783067934504873700,2.5305984,-0.0667813336357474,0.1041916113585233,-0.1271084130981937,-0.0006910993251949,0.0310621671378612,0.0449403747916221,-1.2754679720893505,-9.715266432288288,-0.3964737451203167,50,standing
1783067934524799000,2.5505237,-0.1620515335224568,0.0575812513530254,-0.1680336766719818,0.0057804631069302,0.0432939752936363,0.0152932433411479,-1.281502429948002,-9.7144440099895,-0.3971474796634167,50,standing
1783067934544725800,2.5704505,-0.2128644597843289,0.1259843409717083,-0.1693991198062896,-0.0010482491925358,0.0631325170397758,0.0030419221147894,-1.282314330852777,-9.71431307708621,-0.3977275445736944,50,standing
1783067934564650800,2.5903755,-0.1457080092258751,0.0697299543082714,-0.1715700706372037,0.0090813916176557,0.0654081478714943,-0.0004847811651416,-1.281984514376521,-9.714323598480224,-0.3985493092853576,50,standing
1783067934584577800,2.6103025,-0.1102602637477219,0.032352117550373,-0.235947521468997,0.0315806381404399,0.0617667399346828,0.0003737928345799,-1.2813693050876258,-9.714503631222248,-0.3961219725405797,50,standing
1783067934604503800,2.6302285,-0.0696999975614249,0.067636196899414,-0.2337368231495842,0.0363402590155601,0.0681146159768104,0.0185115244239568,-1.2821258225433527,-9.714621704643964,-0.3907009338725358,50,standing
1783067934624429800,2.6501545,0.0276506618611514,0.1399129130810499,-0.1558072323054075,0.0159004349261522,0.083230547606945,0.0377243533730506,-1.2875995777793228,-9.714026076838374,-0.3875270165441558,50,standing
1783067934644355800,2.6700805,-0.0095516721993684,0.1748994707882404,-0.1235409664075821,0.0135681210085749,0.0921568349003791,0.0389174222946167,-1.2945396061755716,-9.713097856077551,-0.3876215264271944,50,standing
1783067934664281900,2.6900066,-0.0181665019400417,0.0779600225150585,-0.1781307077944278,0.0335316658020019,0.0872316285967826,0.0367042124271392,-1.3016374554820358,-9.712227502983808,-0.3857041850311681,50,standing
1783067934684207600,2.7099323,-0.0792021315306425,0.0261556009978055,-0.19489304202497,0.0359192341566085,0.0914953276515007,0.0166396610438823,-1.3055445459231734,-9.711898417159915,-0.3807625639105215,50,standing
1783067934704133600,2.7298583,-0.0210588623806834,-0.000285246682167,-0.0777402422845363,0.0037954053841531,0.0831196531653404,0.0300532076507806,-1.3090695051789285,-9.71149509705603,-0.3789539070533588,50,standing
1783067934724060000,2.7497847,0.0902668386414647,0.0391541987806558,-0.0485503881573677,-0.0175961088389158,0.0394663661718368,0.0577768385410308,-1.3174448270753023,-9.710233114296198,-0.3822560173386707,50,standing
1783067934743985700,2.7697104,-0.0826907042987644,0.0794628282934427,-0.1328898460438475,-0.00434380909428,0.0474091060459613,0.0372135676443576,-1.3270448684610423,-9.70879109879434,-0.3856046336468309,50,standing
1783067934763911700,2.7896364,-0.2862130429811775,0.0822995130240917,-0.1986293059438467,0.017237240448594,0.0832458063960075,0.0025237046647816,-1.3301723528318106,-9.708336925286051,-0.3863037948921322,50,standing
1783067934783837700,2.8095624,-0.2262567330598831,0.0650748219788074,-0.2288637006878852,0.0266334861516952,0.0650946870446205,-0.020194835960865,-1.3275802905119956,-9.708770056006312,-0.3843514917805791,50,standing
1783067934803764000,2.8294887,-0.1093881570883095,0.0093014968305826,-0.1800777502089738,0.0201649349182844,0.0405973345041275,-0.0120567483827471,-1.323840957853198,-9.70940952295363,-0.3810633734880015,50,standing
1783067934823689700,2.8494144,-0.0363369494028389,0.0898696560174226,-0.1320744745403528,0.0033045434392988,0.0168045740574598,0.0055995634756982,-1.3226720602042972,-9.709622873443363,-0.3796860207201912,50,standing
1783067934843615700,2.8693404,-0.0337111309438943,0.1180225683122873,-0.0910041764726862,0.002514281310141,0.037040963768959,0.0260958466678857,-1.3257463530831035,-9.709193834376334,-0.3799051798962056,50,standing
1783067934863541800,2.8892665,-0.0983253496736288,0.0815215143889188,-0.1783259381055831,0.0114501491189002,0.0331861488521099,0.0171051882207393,-1.3301152158170937,-9.708606974399087,-0.3796723209884017,50,standing
1783067934883467800,2.9091925,-0.1249102819994091,0.02370411619246,-0.2152846361359581,0.0081951525062322,0.0287566035985946,0.0163909550756216,-1.3330087453015147,-9.708249247002602,-0.3786270497191697,50,standing
1783067934903393800,2.9291185,-0.1123629351153969,0.0255681564986705,-0.1618114411562681,-0.0039927428588271,-0.0078584598377347,0.0114457011222839,-1.3356804487287997,-9.707869307774304,-0.3789786396358162,50,standing
1783067934923319800,2.9490445,-0.1515529358617961,0.0556944146931171,-0.1793610898396,-0.0057296976447105,-0.027752773836255,-0.0114345476031303,-1.3362937583215533,-9.707768185487389,-0.3793855399362743,50,standing
1783067934943245600,2.9689703,-0.2308257945410907,0.125662269410491,-0.1519821210592985,-0.0175567138940095,0.0068831546232104,-0.0110853193327784,-1.3339349202357231,-9.708005501374602,-0.3816252451544627,50,standing
1783067934963171800,2.9888965,-0.0981587609350681,0.1396948864161968,-0.2050473928252235,-0.0065040430054068,0.0369675233960151,0.0044883186928927,-1.3331252112880347,-9.707973352670669,-0.3852730636049061,50,standing
1783067934983097900,3.0088226,0.0094034959003329,0.1011696331888437,-0.2605260458758101,0.0146374404430389,0.032113928347826,0.0237556397914886,-1.335790777235478,-9.707603934836389,-0.3853101442122831,50,standing
1783067935003024000,3.0287487,0.0360546253301203,0.056601008144021,-0.2823322560250759,0.037294365465641,-0.0172339919954538,0.0326139330863952,-1.3411936591923237,-9.707029349818823,-0.381011204909347,50,standing
1783067935022949600,3.0486743,-0.0204831083193421,-0.0225064308404922,-0.2662456656316295,0.0661046952009201,-0.0483689904212951,0.0160566791892051,-1.3470552447021007,-9.70663187493384,-0.3703127372950315,50,standing
1783067935042875600,3.0686003,-0.2609878547012805,0.0030944588840007,-0.206056789063476,0.0638544186949729,-0.0037654137704521,-0.0167214162647724,-1.347316964378208,-9.707092478182911,-0.3570294773519039,50,standing
1783067935062802000,3.0885267,-0.2228422484412789,0.0155740012288093,-0.2107686565488576,0.0408321917057037,0.0206195544451475,-0.0262438151985406,-1.3428158535666763,-9.708050509560108,-0.3478285548189654,50,standing
1783067935082727700,3.1084524,-0.0609254472143948,0.1295651220679283,-0.2358276944816112,0.0334468930959701,-0.0002313347067683,-0.0028659820090979,-1.3393835410304369,-9.708766548874973,-0.3410251218818128,50,standing
1783067935102653700,3.1283784,-0.0052297173470258,0.1808598404973745,-0.1921937199383974,0.0298512615263462,-0.0158178806304931,0.018569927662611,-1.3410600959405303,-9.708734984692931,-0.3352791621083393,50,standing
1783067935122579700,3.1483044,-0.0714719756700098,0.1482329976588487,-0.2150514484345912,0.0317286252975463,-0.0257419925183057,0.0248795822262763,-1.3458951148815452,-9.708280226662756,-0.3290310249663889,50,standing
1783067935142506200,3.1682309,-0.1290634561561048,0.0572702857077121,-0.2175707743117585,0.0321640707552433,-0.0322273522615432,0.0096558928489685,-1.3496553441978991,-9.707998487111926,-0.3218731160357594,50,standing
1783067935162432300,3.188157,-0.1593411055199801,-0.0054728784531354,-0.1948433576643466,0.0045021879486739,-0.0055359019897878,-0.014447265304625,-1.3488560105137526,-9.708252169612049,-0.3175157976090907,50,standing
1783067935182358000,3.2080827,-0.1192982873365283,0.0205482825100421,-0.1875409622291103,-0.008532490581274,-0.0029685194604098,-0.025325683876872,-1.3443072611682116,-9.708836106979849,-0.3189825456934049,50,standing
1783067935202284000,3.2280087,0.0261877497017383,0.0476361959218978,-0.2824403925746679,0.0090821497142314,-0.0232950504869222,0.0012179231271147,-1.3419514918223023,-9.709137720274924,-0.3197012153567746,50,standing
1783067935222210000,3.2479347,0.0326765271991491,0.1349929923355579,-0.3076034754037857,0.0261883493512868,-0.0079149501398205,0.0260526109486818,-1.3452972951188682,-9.708806880885362,-0.3156371807882562,50,standing
1783067935242136300,3.267861,-0.0788593094423413,0.173137721812725,-0.3031500396588817,0.0504471436142921,0.0196124985814094,0.0162980686873197,-1.35032944406718,-9.70834627763629,-0.3082695015644654,50,standing
1783067935262062000,3.2877867,-0.1807775690414011,0.1334106915801763,-0.3075976301848888,0.0716416463255882,0.0427231043577194,-0.0065295486710965,-1.351212510512024,-9.708571318563818,-0.2970874516842887,50,standing
1783067935281988000,3.3077127,-0.1526167657010257,0.0654389791160822,-0.261292975127697,0.0700489953160286,0.0455269999802112,-0.012349909171462,-1.3488466581635177,-9.709283850747346,-0.2842855089846998,50,standing
1783067935301914000,3.3276387,-0.0485652934655547,0.0353653278917074,-0.2026853033363819,0.049122467637062,0.0373054631054401,0.0073854615911841,-1.3477033333472908,-9.709735686168074,-0.2740601753074675,50,standing
1783067935321840000,3.3475647,0.0027000527389347,0.0884480987817049,-0.1423123754382133,0.0268784556537866,0.0064212856814265,0.0248640198260545,-1.3513837754257023,-9.709397832515837,-0.2678441686031408,50,standing
1783067935341766100,3.3674908,-0.1318329208694398,0.1323544605255127,-0.1703933732743374,0.0166583471000194,0.0112455412745475,0.0199816580861806,-1.3560137733139097,-9.708861241421102,-0.2638553729616105,50,standing
1783067935361692200,3.3874169,-0.2236209777288138,0.0962263315677642,-0.2111374898612499,0.0099647203460335,0.0075677763670682,0.0148747684434056,-1.359095811107755,-9.708497084283827,-0.2614183368067257,50,standing
1783067935381618000,3.4073427,-0.2137643312335014,0.1044336034208536,-0.1937935380841605,-0.0052375458180904,0.0119722532108426,0.0189565382897853,-1.3625178945109246,-9.708024790596962,-0.2611045946824364,50,standing
1783067935401544200,3.4272689,-0.2400746844016015,0.1523445246309042,-0.2132920192803256,-0.000501625938341,-0.0259879268705844,0.0061279400251805,-1.365386874075979,-9.707602765792608,-0.2618071534612216,50,standing
1783067935421470200,3.4471949,-0.277120220465213,0.1268137775331735,-0.2224678621709346,-0.0029855978209525,-0.0458998158574104,0.0002442528493702,-1.3662002362854777,-9.707510995855928,-0.2610111077127047,50,standing
1783067935441396200,3.4671209,-0.1877168667852878,0.0774818836092949,-0.0930324856962077,-0.0293816626071929,-0.0293201673775911,0.0234158262610435,-1.3686635576590895,-9.707110013839602,-0.2629552457841113,50,standing
1783067935461322000,3.4870467,-0.0895692117661237,0.0814864430755376,-0.1577273867130279,-0.039923969656229,-0.0343496277928352,0.0175031628459692,-1.373886553004384,-9.706177701425553,-0.2700869242949411,50,standing
1783067935481248300,3.506973,-0.0993370109342038,0.0169224932283163,-0.2862579415688291,-0.013981626369059,-0.0484699383378028,0.0045439903624355,-1.376688312552124,-9.7056592305094,-0.274433922256995,50,standing
1783067935501174300,3.526899,-0.0203013220116496,-0.0046411038041114,-0.2954927481050602,0.006591866724193,-0.0528892241418361,0.0130559504032135,-1.3791092560887337,-9.70534241964519,-0.2734290377970785,50,standing
1783067935521100000,3.5468247,-0.0953482335589826,0.1018570309311151,-0.1970253778785467,0.0077576953917741,-0.0009273921605199,0.0169346425682306,-1.3820238283611834,-9.704999889817833,-0.2708911898825317,50,standing
1783067935541026000,3.5667507,-0.0607883768312633,0.1536152752190828,-0.2105090740309096,0.0129523556679487,0.0140340896323323,0.0316003113985061,-1.386656018206477,-9.704383219224214,-0.2692293941501528,50,standing
1783067935560952000,3.5866767,0.0030811610110104,0.1492360372215509,-0.2591489305700175,0.0158933661878108,0.0164124798029661,0.0394545942544937,-1.3936634127505123,-9.703446815156935,-0.2668273197107948,50,standing
1783067935580878000,3.6066027,-0.0910895532011985,0.0951280149370431,-0.2106090820729732,0.0205342508852481,0.0131393773481249,0.0262387841939926,-1.399899530661106,-9.702610948854684,-0.2646398013375699,50,standing
1783067935600804000,3.6265287,-0.1444892810858786,0.0066278937071561,-0.2411246683785691,0.0263054054230451,0.005395121872425,0.0115637416020035,-1.4033620922051369,-9.7022473762393,-0.2595627720679156,50,standing
1783067935620730000,3.6464547,-0.1324472533755004,-0.0211778125852346,-0.1251385377973318,0.0139978304505348,0.0229538939893245,0.0220565199851989,-1.406874630370736,-9.701824766913056,-0.2562876045884564,50,standing
1783067935640656100,3.6663808,-0.0508611493177711,-0.0150333184808492,-0.2063251211434602,0.0142786102369427,-0.0029148000758141,0.0242414642125368,-1.411247730888426,-9.701235568848253,-0.2545587349692359,50,standing
1783067935660582100,3.6863068,-0.075021630975604,0.0427653750151395,-0.2109679785132408,0.0337067134678363,-0.0144035182893276,0.0295242480933666,-1.416865278509259,-9.700525959274172,-0.2503647356118075,50,standing
1783067935680508200,3.7062329,-0.1565470908872783,0.0938853213995695,-0.2660948041851632,0.0537863783538341,-0.0225287619978189,0.0180960763245821,-1.4218300613097845,-9.700020347839594,-0.2416256949695758,50,standing
1783067935700434200,3.7261589,-0.1887884415395558,0.0734527742236852,-0.2117109058350324,0.0662864744663238,0.0041720606386661,0.0143279759213328,-1.4253526824779807,-9.699789461693166,-0.2298692792675457,50,standing
1783067935720360000,3.7460847,-0.1667883527860045,0.0897416457235813,-0.2306634435862302,0.0579455159604549,0.0209262110292911,0.0091957692056894,-1.427300893936306,-9.699767834383248,-0.2183989322315901,50,standing
1783067935740286200,3.7660109,-0.1150382918044924,0.1115577562123537,-0.1752969456732273,0.0388952121138572,0.0227738339453935,0.0047662202268838,-1.4287731584459542,-9.699736854723096,-0.2100199753397144,50,standing
1783067935760212200,3.7859369,-0.0762051416717469,0.1005611459016799,-0.1388455943767912,0.0144511591643095,0.0264108665287494,-0.0042284838855266,-1.428850023074448,-9.699814596134424,-0.2059191889573819,50,standing
1783067935780139300,3.805864,-0.0740447487674653,0.093968323507905,-0.1085866131807677,0.0047378093004226,0.031398419290781,9.39862220548e-05,-1.428017517773062,-9.699953712344168,-0.2050535120387561,50,standing
1783067935800065000,3.8257897,-0.004465601106733,0.0631786329686641,-0.1275006090198643,-0.004986616782844,0.0186620373278856,0.0168969761580228,-1.4296614855878054,-9.69969184653759,-0.2060416097606532,50,standing
1783067935819991000,3.8457157,0.006551613600552,0.0214513688296079,-0.2142991687625646,0.0094621367752552,0.0054548429325222,0.0197946187108755,-1.434543120149523,-9.69896411678493,-0.2063316604821011,50,standing
1783067935839917000,3.8656417,-0.1903406394176185,0.0215963302582502,-0.3014010953660123,0.0379379503428936,0.0139317316934466,-0.0142425671219825,-1.435172504094243,-9.698958856087922,-0.2021295326171442,50,standing
1783067935859843000,3.8855677,-0.2595421859376132,-0.0111380646079778,-0.3475514549106359,0.0586326122283935,-0.0099483486264944,-0.0454746633768081,-1.4291183186218142,-9.70004431323707,-0.1927901331952773,50,standing
1783067935879769000,3.9054937,-0.2039272662214934,0.0343909299015998,-0.2293699149106629,0.044719785451889,-0.0117553658783435,-0.0509261861443519,-1.4190421841569243,-9.701729489845038,-0.1821339703527279,50,standing
1783067935899695000,3.9254197,-0.0452191979080438,0.1335112293452024,-0.1347136274049058,0.0141566535457968,-0.0101184295490384,-0.0283352956175804,-1.41105425414294,-9.702987965473532,-0.1771311936293728,50,standing
1783067935919621000,3.9453457,-0.0404692269019782,0.1625514458686113,-0.1995259259900078,0.0290952697396278,-0.0106229595839977,-0.0304520763456821,-1.406226833986491,-9.703742583233115,-0.1739698069890029,50,standing
1783067935939547100,3.9652718,-0.0883354321874678,0.1095955162286758,-0.2503080369885079,0.0411749519407749,-0.0031976867467164,-0.0366167649626731,-1.3996608995996416,-9.704806413072347,-0.1674798787141218,50,standing
1783067935959473200,3.9851979,-0.0124561614692211,0.0027238720059394,-0.2585889585996977,0.0282274466007947,-0.0022234579082578,-0.0330435037612915,-1.393388833592832,-9.705824065682291,-0.1606956071351654,50,standing
1783067935979399200,4.0051239,-0.018307663976401,-0.0181476511090993,-0.2617506557673216,0.0152042191475629,0.0137289725244045,-0.0245317108929157,-1.3879865361578765,-9.706650579634308,-0.1575337455707602,50,standing
1783067935999325000,4.0250497,-0.0513609155334532,0.0443389079421758,-0.2915016691748984,0.0229746252298355,0.0088062761351466,-0.0201784148812294,-1.3835143591798842,-9.70733797737658,-0.154567717105709,50,standing
1783067936019251200,4.0449759,-0.1114886364988982,0.1418190389633178,-0.2859188823401928,0.0299846418201923,0.0144473509863018,-0.0271628554910421,-1.3793508097596463,-9.708001409721374,-0.1499749185558874,50,standing
1783067936039177200,4.0649019,-0.1318000415131449,0.1491115340590477,-0.2240425458754412,0.031130475923419,0.0148898269981145,-0.0097587760537862,-1.3759481617093086,-9.708559043604136,-0.1449637941292952,50,standing
1783067936059103000,4.0848277,-0.1024441831693053,0.0963952583938837,-0.2160509808659553,0.0217860788106918,0.0299033019691705,-0.0017709548119455,-1.3755264291658995,-9.708666011109948,-0.1418821947268675,50,standing
1783067936079029000,4.1047537,-0.1690014987908303,0.1024269397735595,-0.2615835007731802,0.0195073150098323,0.0408011153340339,-0.0157122425734996,-1.3733134292915463,-9.70901321711242,-0.1395948692409787,50,standing
1783067936098955300,4.12468,-0.1344485101953148,0.0737573101282119,-0.2517424719721078,0.014053794555366,0.0606868304312229,-0.0054065147414803,-1.3709059297583996,-9.7093715290308,-0.1382131234258413,50,standing
1783067936118881300,4.144606,-0.1525002997145056,0.0850111100703477,-0.2567126798664219,0.0238771308213472,0.072522185742855,-0.007951165549457,-1.3697628972031175,-9.709553315338493,-0.1368340901575982,50,standing
1783067936138807000,4.1645317,-0.0739319360427558,0.1026110641688108,-0.2446516551946289,0.0225660558789968,0.0199503190815448,0.0226741228252649,-1.3705201453112066,-9.709496032193302,-0.1333328862367663,50,standing
1783067936158734000,4.1844587,0.0274622996821999,0.0634317309468984,-0.1549485696494579,-0.0051886527799069,0.006316564977169,0.0565338544547557,-1.378989136840403,-9.70832406580448,-0.1313086504001636,50,standing
1783067936178659800,4.2043845,-0.1475520296573639,0.133047703486681,-0.1628226640254259,-0.0313479453325271,0.0378253348171711,0.030784236267209,-1.3877294926568864,-9.707011229640244,-0.1361533139523584,50,standing
1783067936198586000,4.2243107,-0.3086572222404182,0.081644263985753,-0.2239613155990839,-0.0212149005383253,0.0772023275494575,0.0147554576396942,-1.391674723151326,-9.706334937813878,-0.1438478687766473,50,standing
1783067936218513000,4.2442377,-0.1999474028050899,-0.0218996971189975,-0.4288198713213205,0.042123757302761,0.0654168874025344,0.0105667440220713,-1.3936930772364138,-9.706042092347143,-0.1441422486133407,50,standing
1783067936238439200,4.2641639,-0.1089881979852914,0.0012847791135311,-0.4186006751239299,0.1049693971872329,0.025002509355545,0.0135503774508833,-1.3960669667609036,-9.70588134882748,-0.1313172994975,50,standing
1783067936258365000,4.2840897,-0.1190465045325458,0.0884744022667407,-0.3151069829016923,0.1308718174695968,-0.0013521019136533,-0.0059562204405665,-1.397380971968919,-9.705982471114396,-0.1077690040544141,50,standing
1783067936278291000,4.3040157,-0.2370293253563344,0.1682692389935255,-0.1323901163607835,0.0872733891010284,0.0293600838631391,-0.0185317527502775,-1.3944696145668625,-9.706619015452263,-0.0859312571225687,50,standing
1783067936298217000,4.3239417,-0.1110867776997387,0.1594394513279199,-0.0144306764125823,0.0164863839745521,0.0159858614206314,0.0040044290944933,-1.3929207776896655,-9.706917121616003,-0.0769980090824887,50,standing
1783067936318143000,4.3438677,-0.0790375886186957,0.1180354277938604,0.0226414553970098,-0.0342822112143039,-0.0114963948726654,0.008858535438776,-1.3945933870770035,-9.706663439115882,-0.078606229730416,50,standing
1783067936338069000,4.3637937,-0.1531166780471801,0.0301747735112905,0.0554524226307868,-0.0962086990475654,-0.0046195806935429,0.0073900679126381,-1.396081725938618,-9.706340783032774,-0.0910659165972843,50,standing
1783067936357995000,4.3837197,-0.2339364739075303,0.0741670599728822,0.0437105560439173,-0.1415861546993255,-0.0176830738782882,-0.015025807544589,-1.3954671011716129,-9.706189391863346,-0.1137410733344964,50,standing
1783067936377921000,4.4036457,-0.1770807603500783,0.0519657495588064,-0.0667430200525093,-0.176843911409378,-0.0519961342215538,-0.0289118606597185,-1.3909712510570882,-9.706432552969456,-0.1439466712423134,50,standing
1783067936397847000,4.4235717,-0.1694175322458148,0.035580431947112,-0.1124719484478235,-0.1604635864496231,-0.1042724251747131,-0.0208608489483594,-1.3868134007252753,-9.706509125337003,-0.1755804387897253,50,standing
1783067936417773000,4.4434977,-0.2559166889168321,-0.0166273096740245,-0.1931073093856684,-0.1331682056188583,-0.1425474435091018,-0.0351382829248905,-1.3823159431755545,-9.706673960509896,-0.2001404046265408,50,standing
1783067936437699000,4.4634237,-0.2954956889808178,-0.0504904163092374,-0.1302975279957056,-0.1394322514533996,-0.1217439025640487,-0.0473962351679801,-1.375058665523678,-9.70722808726132,-0.2220989923259243,50,standing
1783067936457624800,4.4833495,-0.2997428250312805,0.0190390469908714,-0.1339343866607174,-0.1657295674085617,-0.069594994187355,-0.0531520508229732,-1.365423991215974,-9.707923083788156,-0.2494372272370383,50,standing
1783067936477551000,4.5032757,-0.2341629761397838,0.1106137533605098,-0.1903799485146999,-0.1353953033685684,-0.0625877305865287,-0.0708838254213333,-1.3545397552385925,-9.708668933719396,-0.2781356263191439,50,standing
1783067936497477000,4.5232017,-0.2477062021933495,0.1732774225443601,-0.325083602514863,-0.0940832048654556,-0.0477670803666114,-0.0894387364387512,-1.3386017430029808,-9.710279876047371,-0.2983063442210666,50,standing
1783067936517403000,4.5431277,-0.1426264098234474,0.1493137786328792,-0.2776619261264801,-0.0933193564414978,0.0047354786656796,-0.0680842027068138,-1.3229244275301697,-9.7119048469007,-0.314902729033865,50,standing
1783067936537329000,4.5630537,-0.0711838063783943,0.0588140080183744,-0.2066209257522597,-0.1587522029876709,0.0551116131246089,-0.0536236278712749,-1.3111685232847927,-9.712684599101545,-0.3391074882248416,50,standing
1783067936557255000,4.5829797,0.0167184950888156,-0.0124205056339502,-0.0781050204763188,-0.2804608643054962,0.1333463639020919,-0.0189888309687376,-1.3033029044762252,-9.712079618945715,-0.3838261892648413,50,standing
1783067936577182000,4.6029067,0.0260207225717604,-0.1372352183043956,-0.0071720470538362,-0.3483055233955383,0.0822557732462883,-0.0245580598711967,-1.2989873793646691,-9.709815765666962,-0.4499706497691571,50,standing
1783067936597108000,4.6228327,0.1166835747934877,-0.190042094862461,-0.115177115753293,-0.3325685560703277,-0.1494944095611572,-0.0095848916098475,-1.2946309377208352,-9.707138070890307,-0.5155452379636466,50,standing
1783067936617034000,4.6427587,0.2537085113480687,-0.1843324850440025,0.0659755702108144,-0.3734452128410339,-0.2858684360980987,0.0494614094495773,-1.3007229709856212,-9.70297218338251,-0.5751920070117339,50,standing
1783067936636960000,4.6626847,0.0517127977110445,-0.1086889227777719,0.4300936175841838,-0.5443938374519348,-0.2080639153718948,0.1120502650737762,-1.320639385332912,-9.695117378228902,-0.6564951659422368,50,standing
1783067936656886000,4.6826107,0.004996200852096,-0.0199696058392524,0.5253203436553477,-0.6909599900245667,-0.0160516537725925,0.1557650715112686,-1.3463475348241627,-9.68283189715147,-0.774915939791873,50,standing
1783067936676812000,4.7025367,-0.052870881704986,-0.4009031058698892,-0.0821877962779253,-0.7072188258171082,-0.2318388521671295,0.1949139237403869,-1.387091633144766,-9.665517189735173,-0.907814590196684,50,standing
1783067936696738000,4.7224627,-0.4015440341219305,0.8478039928048848,-0.0829839150916784,-0.6385560631752014,-0.2910314202308655,0.1083089262247085,-1.4204431369960306,-9.648439798206091,-1.029721160335466,50,standing
1783067936716664000,4.7423887,-0.4281066084854305,-0.0426946478664875,0.4624216966718435,-0.7280633449554443,-0.0527391731739044,0.1639314293861389,-1.4499952485643326,-9.630029696768522,-1.1534482238996773,50,standing
1783067936736589800,4.7623145,-0.085943130223453,0.2359849308699369,0.1458401111729443,-0.8084226250648499,-0.0237837042659521,0.1805284023284912,-1.4834559118784962,-9.605991818577053,-1.3017904540866612,50,standing
1783067936756516000,4.7822407,-0.1571427186928689,0.1890115827709436,0.1033271034836769,-0.8380386829376221,-0.1952762454748153,0.1310126930475235,-1.5176014887169005,-9.578770634174344,-1.4541057526230812,50,standing
1783067936776442000,4.8021667,-0.0352552916459739,0.3283785524070263,0.484888380023837,-0.8415220975875854,-0.0180224068462848,0.1262185275554657,-1.545216933134198,-9.549197333687545,-1.611060985919833,50,standing
1783067936796368100,4.8220928,-0.3141661949202418,-0.2304220360457897,0.3973996277935803,-0.8745369911193848,0.005842100828886,0.0584270469844341,-1.5639353698685765,-9.517120525947211,-1.7745147874556482,50,standing
1783067936816294000,4.8420187,-0.1510562383860349,-0.0010673369705677,-0.0924786694720387,-0.9170613288879396,-0.1147342845797538,-0.0105741042643785,-1.5691776544362306,-9.483713346385954,-1.940946728019416,50,standing
1783067936836220000,4.8619447,0.0446541113711893,-0.1928121440976858,0.2019634188026189,-0.9859920144081116,-0.0393798314034938,0.0384016185998916,-1.57499773889184,-9.44489700125754,-2.117474384531379,50,standing
1783067936856146200,4.8818709,-0.0123749129265546,0.0230564659386873,0.385588047838211,-0.9992260336875916,-0.0632236003875732,-0.035571314394474,-1.5790212953194975,-9.400695455959438,-2.303044010154903,50,standing
1783067936876072000,4.9017967,-0.3664363342531025,0.2176817969381809,-0.2377250525355339,-0.9125895500183104,-0.2593535780906677,-0.1698139756917953,-1.5664327396422624,-9.357845909792184,-2.4793945565342903,50,standing
1783067936895999000,4.9217237,-0.377720529333502,0.1984825909495353,-0.5115513460218906,-0.7814515233039856,-0.2393857538700103,-0.1594444513320922,-1.5473675352968277,-9.320390916144849,-2.627994926200807,50,standing
1783067936915925000,4.9416497,0.0208272455818951,0.2754267144203186,-0.3434460654184222,-0.6336043477058411,-0.1609590202569961,-0.0721491649746894,-1.5342615316167474,-9.286452406185864,-2.752855231578648,50,standing
1783067936935851000,4.9615757,0.3142499276809394,0.3557224864065647,-0.4675751339122653,-0.4509139060974121,-0.0661832317709922,0.0506069511175155,-1.5411282025158404,-9.255717076182364,-2.850788367064297,50,standing
1783067936955777000,4.9815017,0.211471982512623,0.4135059823334217,-0.5091761413231491,-0.2444566488265991,-0.0349107347428798,0.0603845119476318,-1.5549185351982713,-9.234193226638435,-2.9124373062476514,50,standing
1783067936975703000,5.0014277,-0.2801402989387512,0.4682347668647766,-0.8677949336931109,-0.1601349860429763,0.0025057531893253,-0.0150360018014907,-1.5604023734368382,-9.222033417767284,-2.9478143245771524,50,standing
1783067936995629000,5.0213537,-0.225146287599951,0.4110761248379945,-0.7460784792989492,-0.0692997276782989,-0.0804726555943489,-0.0761096775531768,-1.553595908292383,-9.216201642873882,-2.969572859659791,50,standing
1783067937015554800,5.0412795,-0.1740314557820558,0.1772773058354854,-0.7784022475376725,0.1487926393747329,-0.1095868498086929,-0.1464231014251709,-1.539019832059741,-9.221822405365108,-2.959694439724088,50,standing
1783067937035481000,5.0612057,-0.3391527521386742,-0.0982920319259166,-0.4773749356538057,0.290248841047287,0.0174773391336202,-0.200896605849266,-1.5093208593666552,-9.240740456324817,-2.9156580218598247,50,standing
1783067937055407000,5.0811317,-0.653673459585011,-0.1257160454243421,-0.4816860768511891,0.28167724609375,0.0491478741168975,-0.2939782440662384,-1.46220196531713,-9.264791778519747,-2.862864004783332,50,standing
1783067937075333000,5.1010577,-0.332234058791399,0.1048152962148189,-0.0411783980846405,0.2493139654397964,-0.0366152226924896,-0.3133371472358703,-1.402813810672611,-9.289122502177952,-2.813308238975704,50,standing
1783067937095259000,5.1209837,0.2119191417582333,0.1199894844710826,0.0319242475271224,0.1600707322359085,-0.0608825720846653,-0.1992268711328506,-1.357694419877231,-9.307887992924451,-2.7731358030632136,50,standing
1783067937115185000,5.1409097,0.1418389127075672,0.2143061830252408,0.3672445818960666,0.0725138410925865,-0.0229563526809215,-0.1244983598589897,-1.331158441259712,-9.3185572709769,-2.7500737841665743,50,standing
1783067937135111200,5.1608359,-0.102554657806456,0.3895873466074466,0.2536918524742126,-0.0622750855982303,-0.0094901099801063,-0.1242302134633064,-1.3089771507203578,-9.322353740650415,-2.747851724202931,50,standing
1783067937155036200,5.1807609,-0.1448788649253547,0.2607797649085521,0.2600222245395183,-0.1672780513763427,-0.0052281594835221,-0.1123186275362968,-1.2868537278480827,-9.318643195694683,-2.770791578024625,50,standing
1783067937174962000,5.2006867,0.1737066077418625,0.2764110492825508,-0.0082809216111898,-0.1376800686120987,-0.1130455657839775,-0.0667184516787529,-1.273393650033325,-9.311679201900958,-2.800267263355851,50,standing
1783067937194888200,5.2206129,0.1680133645363151,0.1663999379903078,-0.2175429729893803,-0.0893170684576034,-0.165749505162239,-0.0400995165109634,-1.2735362733744084,-9.30671427296996,-2.816659010708332,50,standing
1783067937214814200,5.2405389,-0.2420230419903993,0.1360311032116413,-0.0531441456884145,-0.0848456844687461,-0.0827235355973243,-0.0832855701446533,-1.269166972249001,-9.303878172761202,-2.827978569363057,50,standing
1783067937234740000,5.2604647,-0.2801816538624465,0.0544178188860416,-0.0672261547937989,-0.1182551607489585,-0.0126883955672383,-0.0900957509875297,-1.254651394031942,-9.30037513307631,-2.845918422940373,50,standing
1783067937254666000,5.2803907,-0.0018448972143232,-0.0053185646742582,-0.1048652728363871,-0.1219065189361572,-0.0238812379539012,-0.0569893680512905,-1.2420927951015532,-9.294958953246471,-2.8690324642851945,50,standing
1783067937274593000,5.3003177,0.0471432978384196,0.0759241327732801,-0.2564502112716436,-0.0464115776121616,-0.0749086588621139,-0.0719907730817794,-1.2343680460684,-9.291355960318446,-2.883993886573613,50,standing
1783067937294519300,5.320244,-0.2500310649443417,0.1568728157103061,-0.3129667560026049,0.0207742191851139,-0.0758991837501525,-0.1469071507453918,-1.2179143393956124,-9.293746070325374,-2.8832924603059884,50,standing
1783067937314445000,5.3401697,-0.2557174400176852,0.1136088435232639,-0.1307137075811624,0.0049097510054707,0.0549637898802757,-0.1204404011368751,-1.1924753622345623,-9.298066271612049,-2.879994880065322,50,standing
1783067937334371000,5.3600957,0.0367744640372693,0.1068447562158107,-0.1308385030046105,0.0138208903372287,0.0899300724267959,-0.0495311543345451,-1.1711771381400524,-9.30057854669392,-2.880617688138783,50,standing
1783067937354297000,5.3800217,0.2340224716905504,0.1471802737355232,-0.1800450169831514,0.0723161399364471,0.0665760487318039,-0.0128128314390778,-1.1632718449082224,-9.302906697380545,-2.876303039810061,50,standing
1783067937374223400,5.3999481,0.0147696991086006,0.3805354406237602,-0.2508987146243452,0.1642612963914871,-0.0124415997415781,-0.076777197420597,-1.1532123693171887,-9.310906463962793,-2.854380546337366,50,standing
1783067937394149000,5.4198737,-0.0284518221762031,0.2494505616426467,-0.1940364251956343,0.1590606570243835,-0.000661622849293,-0.039091981947422,-1.142312424314022,-9.322277168282866,-2.8214602735102177,50,standing
1783067937414075100,5.4397998,0.1267108286153525,-0.0186509244561195,-0.0095028646215796,0.0421140678226947,0.0832202285528183,0.0409144386649131,-1.140356029549241,-9.327563584253191,-2.8047315492883325,50,standing
1783067937434001200,5.4597259,0.1951980893861502,0.125848731893301,-0.0401855876550078,0.0133896265178918,-0.0191874839365482,0.0439264811575412,-1.1462951372746375,-9.327963981747626,-2.8009835949316617,50,standing
1783067937453927200,5.4796519,-0.0050930853553116,0.0624094021618366,-0.1156295356959104,0.0614506155252456,-0.0492181442677974,-0.0028089643456041,-1.1542990685753525,-9.329316565400362,-2.7931761360511183,50,standing
1783067937473853200,5.4995779,-0.3483399749398231,0.110434305140376,-0.1363555128604173,0.1153421700000763,-0.0048621809110045,-0.0674225464463234,-1.1492332365531477,-9.335143664118648,-2.775741893908381,50,standing
1783067937493779200,5.5195039,-0.3305263780906796,0.116057405719161,-0.1106441484987735,0.1235942170023918,-0.0155864618718624,-0.0914468765258789,-1.133378518686816,-9.343909154376387,-2.7526711071833967,50,standing
1783067937513705000,5.5394297,-0.013842428195849,0.0970639514356851,0.0054869069784879,0.1134932041168212,-0.0521043241024017,-0.0356739647686481,-1.1225057539515195,-9.352149743977188,-2.729040933009982,50,standing
1783067937533631000,5.5593557,0.1996468124233186,0.156613872513175,-0.0490144985377788,0.043013397604227,-0.0597518235445022,0.0318409316241741,-1.1262030010342596,-9.356633026871084,-2.7120982737764714,50,standing
1783067937553557200,5.5792819,0.0042240474358201,0.1731868216514587,0.1130246138945221,-0.0423799604177475,0.0088747981935739,0.0430659838020801,-1.1359333908014,-9.355548154243824,-2.711780586129427,50,standing
1783067937573483300,5.599208,-0.1619322910569608,0.2346907994061708,-0.0134536480739712,-0.0615561343729496,0.0319365337491035,0.0294828154146671,-1.140812833406031,-9.35166049915552,-2.7231185572236773,50,standing
1783067937593409000,5.6191337,-0.145294533054158,0.0816717365145683,-0.2544879712879657,-0.015254721045494,0.0206346567720174,0.0300928261131048,-1.144880886562541,-9.348578899753091,-2.7319796168103814,50,standing
1783067937613335000,5.6390597,-0.147583959165588,0.0767220051527023,-0.2532283266156911,0.1051007807254791,-0.0513083077967166,-0.0100069530308246,-1.1476792120441794,-9.350662135767935,-2.723662162581086,50,standing
1783067937633261300,5.658986,-0.1528746129196137,0.0517038837522268,-0.3761573716700077,0.1639418303966522,0.0066049676388502,0.0009692005114629,-1.147925003498793,-9.358414649590848,-2.696800459140539,50,standing
1783067937653187000,5.6789117,0.0042348610907793,0.1416138717800378,-0.2149956265941262,0.137447327375412,0.0768072456121444,0.0660900697112083,-1.1509078917670994,-9.36602278650701,-2.668969618406892,50,standing
1783067937673113000,5.6988377,0.1635632532596588,0.2233253557831049,-0.1785375350296497,0.0864841565489769,0.0561649538576602,0.1063580363988876,-1.1643394010744987,-9.36977366347313,-2.6499127434983847,50,standing
1783067937693039000,5.7187637,-0.0632710604924708,0.1744119795322418,-0.13485855230093,0.0907730981707573,-0.012718959711492,0.0438125431537628,-1.1779727165643126,-9.372336207437517,-2.6347841479495164,50,standing
1783067937712966100,5.7386908,-0.2521565326657146,0.1122872395306825,-0.297067468342185,0.1160188168287277,-0.0163320712745189,0.0169579852372407,-1.184064969024807,-9.377099476316571,-2.6150299384266136,50,standing
1783067937732892200,5.7586169,-0.2517197486836463,0.0128407768726348,-0.1488414849460125,0.1200644299387931,0.043750986456871,0.0315500870347023,-1.1874945050820709,-9.382997886705398,-2.592219848464429,50,standing
1783067937752818200,5.7785429,-0.1607104211118072,0.0866939485907554,-0.0393599504858255,0.0827464535832405,0.1012117713689804,0.0600015297532081,-1.192462648883462,-9.387119935071468,-2.5749586248010394,50,standing
1783067937772744200,5.7984689,-0.1355723265934735,0.1568149480432271,-0.0269242472827434,0.061708465218544,0.0710230469703674,0.0390899255871772,-1.1972498100947588,-9.389455100020763,-2.564200499421358,50,standing
1783067937792670000,5.8183947,-0.0523342906102538,0.2099935805231332,-0.0062897477939724,0.0494956187903881,0.0286331139504909,0.029633741825819,-1.20118035447672,-9.391608478662372,-2.5544591498687863,50,standing
1783067937812596000,5.8383207,-0.1271123220883309,0.1286304715663194,0.0251435013458132,0.0275576636195182,0.0329116396605968,0.0151342535391449,-1.2037645257510243,-9.393144017666575,-2.547585172446072,50,standing
1783067937832522200,5.8582469,-0.1397114722248166,0.086614453613758,-0.0438140072852373,0.003417624393478,0.0833967253565788,0.0558264665305614,-1.206727832536027,-9.39332521945238,-2.545514795912802,50,standing
1783067937852448300,5.878173,0.065010232309997,0.0799719468593597,-0.0813292066872119,0.0079578002914786,0.072563499212265,0.1284309029579162,-1.2200627496011551,-9.391022203207015,-2.547654146029055,50,standing
1783067937872374000,5.8980987,0.0817123607859015,0.0648334144383668,-0.3117167559415101,0.0113136284053325,-0.0177488103508949,0.1231159120798111,-1.243648207850009,-9.388602867105602,-2.54516466730088,50,standing
1783067937892300000,5.9180247,-0.2330009466230869,0.081340312603116,-0.04573913012892,-0.0178853906691074,0.0520479902625083,0.0820296332240104,-1.2626270490862428,-9.38580768342912,-2.546134096854925,50,standing
1783067937912226300,5.937951,-0.4154406036578119,0.0387128847539424,0.0278664965689182,-0.0442088171839714,0.1343656778335571,0.0310794953256845,-1.2681317839823665,-9.382384138721228,-2.555993812090158,50,standing
1783067937932152000,5.9578767,-0.3110658908173441,0.127130003875494,-0.1618032578498125,0.0190716441720724,0.1061151400208473,-0.0166723541915416,-1.2623735127165914,-9.381467608398198,-2.5621999732539056,50,standing
1783067937952078000,5.9778027,-0.1425355166696011,0.1105120465517044,-0.1969993666544556,0.0635610222816467,0.069579854607582,-0.0164065863937139,-1.254481298162043,-9.384451592645048,-2.555134857173264,50,standing
1783067937972004000,5.9977287,0.0236059165149927,0.1476362008094787,-0.0401379491209983,0.0241460930556058,0.0472107604146003,0.0135684534907341,-1.2510833262868224,-9.387010044956206,-2.5473957873538136,50,standing
1783067937991930400,6.0176551,0.0718941466048359,0.1506359671473503,0.0276502234697341,-0.0273798462003469,0.0226823929697275,0.023259412497282,-1.253283174418658,-9.386268871200084,-2.549043846821785,50,standing
1783067938011856100,6.0375808,-0.0797531895421445,0.0706312870621681,-0.0637152240633964,-0.0392915084958076,0.0371677465736866,0.008304483257234,-1.255762570144236,-9.38392610746622,-2.5564392177700994,50,standing
1783067938031782100,6.0575068,-0.2336868830606341,-0.0004775543838739,-0.112043786163628,-0.0398267023265361,0.0585485622286796,-0.0157661400735378,-1.2525133590899409,-9.3819492544353,-2.5652722203060985,50,standing
1783067938051708200,6.0774329,-0.0770610278487205,0.120538935047388,-0.1223655659526586,-0.0117435045540332,0.0090676834806799,0.0025910488329827,-1.2488776329360902,-9.380712406116723,-2.5715605067953464,50,standing
1783067938071634200,6.0973589,0.0664540013775229,0.1058393785655498,-0.1909600864902138,-0.0112730488181114,-0.0271067358553409,0.0343054048717021,-1.2532295445352792,-9.379778924658892,-2.5728458704307675,50,standing
1783067938091560200,6.1172849,-0.1051426284730434,0.1155441955000162,-0.1052908047720789,-0.0433686859905719,0.0406523831188678,0.0248776543885469,-1.259253188738972,-9.377514486858248,-2.5781606357127425,50,standing
1783067938111486200,6.1372109,-0.2672445770084857,0.2065355490237474,-0.143888830974698,-0.0133911818265914,0.0643801763653755,-0.0043054684065282,-1.2575626053035258,-9.375430081799626,-2.586548524829745,50,standing
1783067938131412000,6.1571367,-0.1409891640104353,0.0867190830320119,-0.3394479356929659,0.0520769990980625,0.006254069507122,-0.0089605282992124,-1.2542317073151468,-9.37681949033141,-2.5831235188171267,50,standing
1783067938151338000,6.1770627,-0.0808449303016066,0.0331488208860158,-0.2057157570734619,0.0553971640765666,0.0267082266509532,0.0102252624928951,-1.2534740208156403,-9.379813995972276,-2.572605924195051,50,standing
1783067938171264300,6.196989,0.0164227270126342,0.1585229210048913,-0.0503872481957077,0.0267702303826808,0.0069907926954329,0.022507406771183,-1.2554216477520763,-9.381436044216157,-2.565726393814385,50,standing
1783067938191190300,6.216915,-0.0092955054812133,0.1225987901866435,-0.0765934103369712,0.0239785388112068,-0.0080932220444083,0.023610359057784,-1.2602299248166382,-9.38202407323718,-2.561217976479232,50,standing
1783067938211116000,6.2368407,-0.1822647388592362,0.0672697016745805,-0.101432083517313,0.0331289954483509,-0.0166431292891502,-0.0019621760584414,-1.2630847297258674,-9.383108361342549,-2.555832484048605,50,standing
1783067938231042000,6.2567667,-0.1579325538963079,0.0134808283418416,-0.1369052556976676,0.0195577945560216,-0.0137024661526083,-0.0072770463302731,-1.2625772185951472,-9.384686570444703,-2.5502868326202037,50,standing
1783067938250968300,6.276693,-0.0499023872882127,0.1542225934624672,-0.0657756637245416,-0.0095265265554189,0.0037813894450664,0.0076653882861137,-1.2631678779646751,-9.384917456591127,-2.5491414619773627,50,standing
1783067938270894000,6.2966187,-0.1190587794922292,0.1417173321545124,-0.0636158553421497,-0.0166846327483654,0.031414944678545,0.0047585773281753,-1.2635925331175326,-9.383784653168917,-2.553096921604872,50,standing
1783067938290820000,6.3165447,-0.1280002108387649,0.2294026298701763,-0.1583475644379854,0.0087683256715536,0.0209329593926668,0.0068492395803332,-1.2627319707654416,-9.38333340227008,-2.555181034402549,50,standing
1783067938310746000,6.3364707,-0.0705953389659524,0.1599456472843885,-0.2060556565523147,0.0096936719492077,0.0293310936540365,0.0226447358727455,-1.2638726652331649,-9.383457905432582,-2.554159290139377,50,standing
1783067938330672000,6.3563967,-0.1068973631858825,0.07060907523036,-0.1571072089880704,-0.0005304901860654,0.0034220158122479,0.0135155683383345,-1.2661771427832542,-9.383305345219371,-2.553577983120084,50,standing
1783067938350598100,6.3763228,-0.0764632080860436,0.0030862755775451,-0.1893351156368851,-0.0162375271320343,0.0014512464404106,0.0086015071719884,-1.2684797206372025,-9.382519747799634,-2.5553175202637908,50,standing
1783067938370524200,6.3962489,-0.1567053501889109,0.0498059411764144,-0.1530725466445088,-0.0009641756769269,0.0308111403137445,-0.0030834358185529,-1.2687426093570888,-9.381656993490456,-2.558361418004334,50,standing
1783067938390450200,6.4161749,-0.1698147148698568,0.1644260075688362,-0.1615381771728396,0.0383128188550472,0.026097172871232,-0.0076965005137026,-1.2658086017318069,-9.382850002667308,-2.5554317942932245,50,standing
1783067938410376200,6.4361009,-0.0616663287095725,0.176502229809761,-0.1505629019111394,0.0513056442141532,0.0212512370198965,0.0041008531115949,-1.2639733491286635,-9.385200365185735,-2.5477023690849543,50,standing
1783067938430302200,6.4560269,0.0037647593609988,0.2225152084439992,-0.124108610227704,0.0340248048305511,0.0017799268243834,0.0250400155782699,-1.2661078769393264,-9.387070250710844,-2.5397400119036435,50,standing
1783067938450228200,6.4759529,0.0020820669710636,0.1350561206996441,-0.1048880691900849,-0.0086491983383893,0.013719443231821,0.0449865907430648,-1.2731034349150956,-9.386550610750913,-2.5381606337577103,50,standing
1783067938470154000,6.4958787,-0.17430808076635,0.0855915403068065,-0.2128580300435423,-0.0041844295337796,-0.0021740198135375,0.0186680536717176,-1.278822397083789,-9.38526875424683,-2.540024674063921,50,standing
1783067938490080000,6.5158047,-0.2603698689334094,0.1028910501539707,-0.1900564156487584,0.03693338483572,-0.0042983470484614,-0.0052832108922302,-1.2802986071161926,-9.385659214869142,-2.537837100891769,50,standing
1783067938510006300,6.535731,-0.2576183782681822,0.1261123512655496,-0.110350426249206,0.07411889731884,-0.0194819048047065,-0.033344816416502,-1.2773645994909106,-9.38898046824634,-2.527012340016663,50,standing
1783067938529932000,6.5556567,-0.2714294614776968,0.0869476310908794,-0.0287006093055009,0.0597092099487781,0.0298506300896406,-0.0421213582158088,-1.269837857247889,-9.393508759325742,-2.513941553780436,50,standing
1783067938549858000,6.5755827,-0.2167303414322435,0.0512508792877197,-0.0289665667653083,0.0377100631594657,0.028398223221302,-0.0496735982596874,-1.2594446196578442,-9.39701705970764,-2.506043786267936,50,standing
1783067938569784000,6.5955087,-0.0340615518167614,0.0566097759723663,-0.1158189207881689,0.0269417166709899,-0.0353494733572006,-0.0436084568500518,-1.2501286559104918,-9.399832117128373,-2.500145375879109,50,standing
1783067938589710300,6.615435,0.0352270884647965,0.0844639975816011,-0.0847203104302287,0.0038964624982327,-0.05662053078413,-0.0118628749623894,-1.248189650671929,-9.401052014312148,-2.496528354425728,50,standing
1783067938609636000,6.6353607,-0.1195065232597291,0.1339841075539589,-0.1424152512907981,0.016968198120594,-0.0353470779955387,-0.0220086611807346,-1.247882192157954,-9.401789096415042,-2.4939000517487524,50,standing
1783067938629562000,6.6552867,-0.1980994368508458,0.1823217297434806,-0.1622697063177824,-0.0015942382160574,0.0560887679457664,-0.0258502997457981,-1.2426117044091225,-9.402990873420238,-2.492002401433885,50,standing
1783067938649488100,6.6752128,-0.1038366604410111,0.2079670431315898,-0.1261848319798708,-0.0028884937055408,0.0845949351787567,-0.0077800992876291,-1.2352702556051314,-9.403197794169188,-2.494867435476184,50,standing
1783067938669414100,6.6951388,0.1022960068702697,0.2018599584281444,-0.241587280921638,0.0120300631970167,0.0354156196117401,0.046585489064455,-1.235052813462168,-9.403077382659912,-2.49543442170918,50,standing
1783067938689340200,6.7150649,0.1263683718532323,0.0983013842761516,-0.0902116013228893,0.0145200984552502,-0.0274722501635551,0.0657180547714233,-1.2465554735988378,-9.402169035643338,-2.493131989985704,50,standing
1783067938709266200,6.7349909,-0.1140345215894281,0.0759679719150066,-0.1827510610714554,0.0180611796677112,-0.0229727160185575,0.0247789341956377,-1.2572446253955365,-9.40183352007866,-2.489028938581049,50,standing
1783067938729192000,6.7549167,-0.3170366357900202,0.0371592255711555,-0.0537210687935352,0.0097807366400957,0.0451798476278781,-0.003559022443369,-1.25834791046232,-9.402228656876089,-2.48697609770447,50,standing
1783067938749118200,6.7748429,-0.2172640099175274,0.0218020819634199,-0.1757803452759981,-0.0079907216131687,0.0425594709813594,-0.0091349072754383,-1.2541228401131927,-9.402583461663127,-2.4877692939087748,50,standing
1783067938769044200,6.7947689,-0.044484892284125,0.1090875667065382,-0.1074655184626579,0.0109664788469672,-0.0028564957901835,0.001601476338692,-1.2524239272408186,-9.4026302234143,-2.488447631561756,50,standing
1783067938788970200,6.8146949,-0.0674321987599134,0.0692787034094333,-0.1997182702243328,0.030280603095889,-0.0257642716169357,-0.0002082072896882,-1.2537179125741122,-9.403822063547372,-2.4832842574492093,50,standing
1783067938808896000,6.8346207,-0.2050099468916654,0.118103232333064,-0.0575423806473612,0.0147462207823991,0.0531735755503177,-0.00643938081339,-1.252908934278786,-9.404911612349748,-2.479562606577575,50,standing
1783067938828822000,6.8545467,-0.1291116792120039,0.1950111154466867,-0.0789841048657894,0.0120129566639661,0.0367227606475353,-0.010324103757739,-1.2486018847346303,-9.40565453967154,-2.478921386064589,50,standing
1783067938848748300,6.874473,0.0233202314414083,0.1440811386764049,-0.0376502239584922,-0.0059411115944385,0.0209084879606962,0.0179244875907897,-1.24810401821509,-9.40575098578334,-2.478805066208541,50,standing
1783067938868674000,6.8943987,-0.0714209761351346,0.1024070660293102,-0.0574301524445414,-0.0428082793951034,0.0387052968144416,0.0127233006060123,-1.2501780480101703,-9.40417920642197,-2.4837153423428533,50,standing
1783067938888600000,6.9143247,-0.1505371829479932,0.1522410642564296,-0.0145502111390233,-0.070162646472454,0.074852630496025,0.0102884899824857,-1.2491725242294371,-9.401041492918134,-2.4960692124813795,50,standing
1783067938908526000,6.9342507,0.0244913210473954,0.2511661333888769,-0.0950622562244534,-0.0383595265448093,0.0353210121393203,0.0457041822373867,-1.2512201044090092,-9.397464803475142,-2.508482119330764,50,standing
1783067938928452000,6.9541767,0.0275748201459646,0.0793114371240139,-0.2967547491312027,0.0135258371010422,-0.0388385131955146,0.0369856469333171,-1.260438891392201,-9.395748062685133,-2.5102970597982406,50,standing
1783067938948378000,6.9741027,-0.1436405553020537,0.074932199126482,-0.1024243094250559,-0.0098332185298204,-0.0025535528548061,0.0127566009759902,-1.2668433516070243,-9.395259986907243,-2.508901513786614,50,standing
1783067938968304000,6.9940287,-0.2879971499189734,-0.0080628949463367,-0.0112932551696896,-0.0357032306492328,0.0391961149871349,-0.0270893592387437,-1.2640436378858984,-9.394116077569128,-2.514589204034209,50,standing
1783067938988230100,7.0139548,-0.2287511802241206,0.0262035317927598,-0.1014224389061331,-0.0206272788345813,0.0436896011233329,-0.0371260456740856,-1.2547558773197234,-9.393369058594107,-2.5220243224710224,50,standing
1783067939008156200,7.0338809,0.00344078810364,0.0136176064640283,-0.297556128641963,0.0123206134885549,-0.0191940981894731,-0.0105044301599264,-1.249622752214968,-9.393800435748696,-2.5229627723649144,50,standing
1783067939028082200,7.0538069,-0.0077618661731481,0.0534510196805,-0.2735544908076525,0.0274116992950439,-0.0126365972682833,-0.0016936626052483,-1.250241614765674,-9.395027347195148,-2.518084644934535,50,standing
1783067939048008200,7.0737329,-0.1597353655345738,0.2343722349762916,-0.138077514347434,0.0128102647140622,0.0655499398708343,-0.0068827732466161,-1.247905573033541,-9.396084162771702,-2.5152964755207297,50,standing
1783067939067934000,7.0936587,-0.1169523087322711,0.2834989617168903,-0.0711459585860371,0.0095401303842663,0.0833087116479873,-3.56017844751e-05,-1.242655251289904,-9.396729474937915,-2.515490244527161,50,standing
1783067939087860200,7.1135849,0.0202256264269351,0.1162333468079566,-0.1390568807736039,0.033661812543869,0.0240828488022089,0.0199063532054424,-1.2420169533863663,-9.39720761384368,-2.514018126147985,50,standing
1783067939107786200,7.1335109,-0.0246994108401238,0.0564081159204244,-0.1882049425631761,0.0380004122853279,-0.0264748986810445,0.0087956124916672,-1.2454244237422942,-9.398732631453871,-2.5066189558073875,50,standing
1783067939127712000,7.1534367,-0.1831618338294327,0.082317633202672,-0.0323661460757255,-0.0166313275694847,0.0108002228662371,-0.0004156409704592,-1.246925037563592,-9.399353393700718,-2.5035426171019672,50,standing
1783067939147638300,7.173363,-0.1850990855023264,0.1076221703290939,-0.0077110127687454,-0.0610340647399425,0.0527198202908039,0.014311583712697,-1.24573553551808,-9.397124611735345,-2.512485802014172,50,standing
1783067939167564000,7.1932887,-0.0706707422897219,0.1585334423989057,-0.1835693917170167,-0.019261447712779,-0.0068887756206095,0.0085457470268011,-1.2468885049454868,-9.394616428306698,-2.521280226105451,50,standing
1783067939187490300,7.213215,-0.1366664785057306,0.0901706847906112,-0.2186696389317512,-0.013397267088294,-0.0164278578013181,-0.016235439106822,-1.2480800528176128,-9.3940383361578,-2.5228408995509146,50,standing
1783067939207416300,7.233141,-0.3154929134793579,0.0634019203305244,-0.1050181253105402,-0.0262478627264499,0.0314563699066638,-0.0559817887842655,-1.2407384578831493,-9.39390506516695,-2.5269576872199773,50,standing
1783067939227342300,7.253067,-0.1706198937729001,0.1131552545368671,-0.2050438491612672,0.0023566596210002,0.0434594601392746,-0.0378599241375923,-1.2292400355301796,-9.394427627736327,-2.530630822774768,50,standing
1783067939247268000,7.2729927,0.0612597206700593,0.1735591620951891,-0.2423521278142928,0.0176247470080852,0.0326050259172916,0.0030858223326504,-1.2239440480139103,-9.395575628727672,-2.5289365860775117,50,standing
1783067939267194400,7.2929191,0.1300245562732219,0.2497176881462335,-0.1044382795959711,-0.0084576550871133,0.0456389784812927,0.0562403947114944,-1.2277658713243902,-9.394969479528068,-2.529333476440609,50,standing
1783067939287120400,7.3128451,0.0751109166942536,0.1645873356103897,-0.1916463151887059,-0.0152332112193107,-0.0151269361376762,0.048951257020235,-1.2379445893809198,-9.392737774953243,-2.5326556066006423,50,standing
1783067939307046100,7.3327708,-0.1930553052037954,0.0558230095088481,-0.1638403166353702,-0.0047813905403018,0.0157396644353866,0.0134305451065301,-1.2446626455895602,-9.391413832873106,-2.5342753167569634,50,standing
1783067939326972200,7.3526969,-0.3490177280709147,0.0561135168880224,-0.1346834879949688,0.0276699420064687,0.0530511774122715,-0.0190615896135568,-1.242079204967618,-9.39200478450358,-2.533355279302597,50,standing
1783067939346898400,7.3726231,-0.1907239396467804,0.0541617982983589,-0.2210971583396196,0.0651714503765106,0.0130782276391983,-0.0252877306193113,-1.2354723540484904,-9.394989937794207,-2.525501350931823,50,standing
1783067939366824200,7.3925489,0.0162415252268314,0.1338385616034269,-0.1440256090968847,0.0394656546413898,-0.0248410049825906,0.0066609364002943,-1.2341418360970913,-9.398052247974276,-2.514735042245686,50,standing
1783067939386750200,7.4124749,0.0084798051841557,0.0844336024433374,-0.0347901583522558,-0.0254950653761625,-0.0065833576954901,0.0135739147663116,-1.23790235767439,-9.39787806045115,-2.513538233676553,50,standing
1783067939406676200,7.4324009,-0.1834973493941128,0.1297907475173473,-0.0591647211521863,-0.0243018101900815,0.0243302080780267,-0.0149394599720835,-1.2374613359086215,-9.396248997944593,-2.519839379647374,50,standing
1783067939426602200,7.4523269,-0.1972854901194572,0.1030056164443492,-0.2253761508330702,0.0122627997770905,0.0351522788405418,-0.0182711612433195,-1.2320526087328791,-9.396547688630225,-2.5213714115202426,50,standing
1783067939446528300,7.472253,-0.0046305824100971,0.1490425604760646,-0.1337166887894272,0.0234810747206211,0.0245433524250984,0.0121558364480733,-1.2303281230278311,-9.397394076326488,-2.519058458402753,50,standing
1783067939466454300,7.492179,-0.0088031919196248,0.1245247898131608,-0.1092006716921925,0.0086254710331559,0.0404152125120162,0.0171802751719951,-1.2325902227409182,-9.397865200969576,-2.516191086272895,50,standing
1783067939486379300,7.512104,-0.2383411386072635,0.1515665259957313,0.0311444953262805,-0.0598577372729778,0.1102297306060791,-0.0083566289395093,-1.229753538010269,-9.396476961481572,-2.522760235530138,50,standing
1783067939506305300,7.53203,-0.22395444746688,0.105139705863595,0.0496218167811632,-0.1110832020640373,0.1653151661157608,-0.0142942015081644,-1.2200485018800944,-9.392397583213448,-2.5425842954188584,50,standing
1783067939526231300,7.551956,-0.1012452557083219,0.0516799183547496,0.0210445415943861,-0.1419136524200439,0.1148800924420356,-0.0253909472376108,-1.2089814566817134,-9.38637350061834,-2.569971191777289,50,standing
1783067939546157300,7.571882,-0.0792724202878773,0.0107587099015712,-0.2119526056364178,-0.1192378103733062,0.0391098447144031,-0.0530044622719287,-1.197884454736486,-9.380466322401166,-2.596595287069678,50,standing
1783067939566083000,7.5918077,-0.1690720067437738,0.1135258414149284,-0.2476554949194192,-0.0748047456145286,0.0180012825876474,-0.0576760917901992,-1.1858963491704315,-9.376692064559458,-2.615659760762751,50,standing
1783067939586009300,7.611734,-0.1015702498789876,0.1739151359260082,-0.2978010433137417,-0.0296168867498636,-0.0089873177930712,-0.013176891952753,-1.1781303913440555,-9.374832115906475,-2.6258181666836142,50,standing
1783067939605935400,7.6316601,0.1942579589918255,0.2137777752369642,-0.3177949068114161,-0.0149741694331169,-0.0775220394134521,0.0588009878993034,-1.1854573732312768,-9.373094916850327,-2.6287191488221286,50,standing
1783067939625861000,7.6515857,0.14541443310678,0.2041290724039077,-0.2581868258059024,-0.0122739123180508,-0.1184165477752685,0.0879580155014991,-1.2051477237377315,-9.37077904112339,-2.6280235677734014,50,standing
1783067939645787100,7.6715118,-0.0141105045475065,0.1522673677414655,-0.1162874150827527,-0.0463260486721992,-0.0940311849117279,0.1079835072159767,-1.229527766430378,-9.366800785142182,-2.6309087678208947,50,standing
