time,seconds_elapsed,acc_x,acc_y,acc_z,gyr_x,gyr_y,gyr_z,grav_x,grav_y,grav_z,fs_hz,activity
1783066261953319400,0.0,-0.0762397745937109,1.654904219299555,-0.2848801869422197,-0.2492577582597732,-0.3515390753746032,-0.1721502095460891,-1.3795846185155212,-8.298814995276928,-5.0395256145596505,50,standing
1783066261973244400,0.019925,-0.5425567251384258,2.48569920963645,0.0193693018585443,0.2102431952953338,-0.2140987366437912,-0.2521187365055084,-1.374899237178266,-8.30211228325665,-5.035371417489648,50,standing
1783066261993170200,0.0398508,-0.2470727265954017,1.100471178406477,-0.363851432326436,0.5064029693603516,-0.1293073147535324,-0.1132331565022468,-1.3594364412389697,-8.34502554230988,-4.968184717923402,50,standing
1783066262013095400,0.059776,-0.0667396864511072,0.9779115511864424,-0.3076654347240924,0.5690587162971497,-0.1881517022848129,-0.0342601984739303,-1.362598704662174,-8.400834523293376,-4.872339202366769,50,standing
1783066262033021400,0.079702,0.1879984602056443,0.4082967232525348,-0.3122130150258541,0.5676594376564026,-0.2437605708837509,0.1065071895718574,-1.389738056000322,-8.454310677415132,-4.771125730036199,50,standing
1783066262052946400,0.099627,-0.06738733670488,0.0928770211398601,-0.2376794598281383,0.5082657933235168,-0.2842593491077423,0.1781431585550308,-1.4405106502518057,-8.50116361400485,-4.671780974186957,50,standing
1783066262072872400,0.119553,-0.3073383947268128,0.3746095577061176,-0.1402495976895093,0.4833963215351105,-0.3186990022659302,0.1727686524391174,-1.4983387159727513,-8.541381058102846,-4.5793207171544426,50,standing
1783066262092797200,0.1394778,-0.3671506200022995,0.4066121311664581,0.1081733744710683,0.4400536119937897,-0.2532974183559418,0.1786259710788726,-1.5543458498768508,-8.578471310091018,-4.490460238179565,50,standing
1783066262112723500,0.1594041,-0.4233649669162929,0.2454518473953008,0.1825476474538445,0.3102928102016449,-0.2457919865846634,0.1932694464921951,-1.607516591311246,-8.606153097742796,-4.418189367216825,50,standing
1783066262132648200,0.1793288,-0.3715888947106898,0.152507021716237,0.343705593137443,0.1722986847162246,-0.2397751063108444,0.2078123241662979,-1.6630333113498983,-8.620498433959483,-4.369405754825473,50,standing
1783066262152574200,0.1992548,-0.1693612720139324,0.0744429543048143,0.2761050520732999,0.0653684362769126,-0.2393287122249603,0.2440752983093261,-1.723255140339583,-8.622789759767056,-4.341459178757667,50,standing
1783066262172499500,0.2191801,-0.4512136355675756,0.1042296052813529,0.1764607287555933,0.1203646510839462,-0.2384722977876663,0.1996505409479141,-1.783025572299957,-8.621302736079693,-4.320224959810078,50,standing
1783066262192425200,0.2391058,-0.5463887045167386,0.491705074301362,-0.1001478889256715,0.2615706324577331,-0.3321488797664642,0.0827522277832031,-1.8307541226804256,-8.63333745726645,-4.276003248506784,50,standing
1783066262212350500,0.2590311,-0.0740710522525012,0.1629571040600538,0.0426364879384636,0.2679036557674408,-0.3653291463851928,0.1487942039966583,-1.878400255474448,-8.652795606452226,-4.215580343987048,50,standing
1783066262232276500,0.2789571,0.1453304080851375,-0.0605997223913669,0.2145224561244249,0.3150532841682434,-0.3691945075988769,0.2310647368431091,-1.9429270881816745,-8.66865953053832,-4.153283462288975,50,standing
1783066262252205000,0.2988856,-0.1474265035815536,-0.0302250423938035,0.2391656067326664,0.3347660005092621,-0.2655780911445617,0.2258444130420684,-2.010946146918833,-8.686912980109453,-4.082158254230023,50,standing
1783066262272131300,0.3188119,-0.6268618788965046,-0.2568862646013498,0.4922431267008185,0.2570038139820099,-0.1779567897319793,0.053442507982254,-2.053895500198752,-8.704609964841604,-4.022643112204968,50,standing
1783066262292056300,0.3387369,-0.605691372834891,-1.0670786118924618,0.380315660393238,0.262573093175888,-0.3610659539699554,-0.1240399032831192,-2.0654893457502124,-8.726702554184198,-3.9684757609486576,50,standing
1783066262311982000,0.3586626,-0.2606422561340034,-1.2092571318179368,-0.2814212786599993,0.1599625051021576,-0.5789059400558472,-0.2485605627298355,-2.0720582027465104,-8.751070102721453,-3.910975173616409,50,standing
1783066262331907300,0.3785879,-0.4518431656427681,-1.167191429504752,0.304960267418623,0.0819797664880752,-0.4253465235233307,-0.3041356205940246,-2.0607218390874564,-8.772037487426399,-3.8697766095265744,50,standing
1783066262351833000,0.3985136,-0.6342345996215939,-0.3706926765233278,-0.0488826888516545,0.0374430418014526,-0.5109707713127136,-0.4041272103786468,-2.035449742925912,-8.790719391542673,-3.840647253414988,50,standing
1783066262371758300,0.4184389,-0.511653345091641,0.5738900210350751,-0.1666115349143743,0.042724322527647,-0.3362225592136383,-0.5325895547866821,-1.9904371735058723,-8.811739383217692,-3.815993289151788,50,standing
1783066262391684400,0.438365,-0.1765251722939312,0.1888695439517498,0.5753288216665386,0.2233780473470688,0.1381859481334686,-0.5478761792182922,-1.8956560723103584,-8.843608685687183,-3.790442376048863,50,standing
1783066262411609000,0.4582896,0.5874824930578469,-0.2780371891796588,-0.6906909385979175,0.3042471706867218,-0.0367548391222953,-0.3271951079368591,-1.8110693251319228,-8.880233073729276,-3.745914083014428,50,standing
1783066262431535400,0.478216,1.0299104723624883,-0.0043272155493497,-0.4638429616466164,0.3648721873760223,-0.2049262672662735,-0.0623577125370502,-1.7864779047109185,-8.912128095161915,-3.6814179377064105,50,standing
1783066262451460000,0.4981406,0.6688901718087494,0.1587368560165167,-0.2857622304737567,0.3312706053256988,-0.1445687264204025,0.1134535074234008,-1.8073330612130465,-8.936478692564368,-3.611548867188394,50,standing
1783066262471386000,0.5180666,-0.0684847765527665,0.2635591664940118,0.1967594204187393,0.2674167156219482,0.0443967022001743,0.1373470574617386,-1.8352046723484992,-8.952416266408562,-3.557620000863075,50,standing
1783066262491311400,0.537992,-0.476445545849204,0.3321592399895191,-0.1626648431152105,0.2378885149955749,-0.1041474863886833,0.0031050883699208,-1.8492220917850728,-8.967595715361833,-3.5118361548095938,50,standing
1783066262511237000,0.5579176,-0.550395894331485,-0.1384814189732074,-0.2803919356122613,0.1557553708553314,-0.2812229990959167,-0.0874143615365028,-1.855327569053322,-8.983426321700215,-3.4678801087051627,50,standing
1783066262531162400,0.577843,-0.1871304451994598,-0.4314309306025505,-0.0914551716431975,0.0929330363869667,-0.1938775181770324,-0.0728279426693916,-1.8557221213288604,-8.994690058514475,-3.4383462634459137,50,standing
1783066262551088400,0.597769,-0.2276106318868696,-0.2741448579162359,-0.1611772349059581,0.0853508114814758,-0.0521399043500423,-0.0176556482911109,-1.857738867978752,-9.001740561547875,-3.4187527974426746,50,standing
1783066262571013000,0.6176936,-0.6281285378314554,0.1820306378424167,-0.108867786476016,0.1487454771995544,0.0649910941720008,-0.1083292663097381,-1.846877428355068,-9.011247810083628,-3.3995357635363934,50,standing
1783066262590939400,0.63762,-0.8031642022199929,0.0835001209855079,-0.6413485232800245,0.2757059335708618,-0.0212153196334838,-0.2671365141868591,-1.8108549517288803,-9.032427376234532,-3.3625045482590794,50,standing
1783066262610865200,0.6575458,-0.7631649309173226,-0.0686368983745575,-0.8543439159676433,0.4070636928081512,-0.1052064895629882,-0.3751557469367981,-1.7559838361173867,-9.066887864241004,-3.2982486414477226,50,standing
1783066262630790100,0.6774707,-0.6732248400121927,0.1055056165665388,-0.8752893811017274,0.6069778203964233,-0.0717625543475151,-0.4318495988845825,-1.6891040105432271,-9.113539725300669,-3.203233146974444,50,standing
1783066262650716400,0.697397,-0.6814080003373324,0.3674614395171404,-0.7126327212929725,0.6959952116012573,-0.0250508487224578,-0.4885759055614471,-1.6093940756209193,-9.170342393496632,-3.0797821238726377,50,standing
1783066262670641200,0.7173218,-0.6145401574619114,-0.0619850392699241,-0.4303679775461554,0.6084094643592834,-0.0791922137141227,-0.4962822794914245,-1.5221350404933094,-9.22482334074676,-2.9590730929553506,50,standing
1783066262690567200,0.7372478,-0.210920924501121,0.0964110404849052,-0.0618076368764042,0.5065622329711914,-0.2368962615728378,-0.5435304641723633,-1.4361400339521466,-9.272786868926882,-2.850139547766745,50,standing
1783066262710492200,0.7571728,-0.2882438181564212,0.1829693799972534,0.0419908835113048,0.3897497057914734,-0.2428319752216339,-0.5421134829521179,-1.3498391763322055,-9.313107773399352,-2.759410352310538,50,standing
1783066262730418200,0.7770988,-0.2206153661720454,0.018079262048006,0.256490543282032,0.2385008037090301,-0.1149705424904823,-0.5134507417678833,-1.2606471273154018,-9.343644365960358,-2.697678995540738,50,standing
1783066262750343400,0.797024,-0.1834958150241523,-0.1951250972151756,0.0091080200850963,0.1432993113994598,-0.0850668475031852,-0.4805367887020111,-1.1734178297389295,-9.365969595015049,-2.65933932801336,50,standing
1783066262770269200,0.8169498,0.0001668079342693,-0.0415723658382892,0.2411000819265842,0.0335892029106617,0.0016886981902644,-0.4226545393466949,-1.0907257372006771,-9.380808267706632,-2.642185071855783,50,standing
1783066262790194200,0.8368748,0.2477897888235747,0.1639548829257488,-0.0540095303460955,0.0576017387211322,-0.0451266020536422,-0.2840847373008728,-1.0242593147329986,-9.389860758212208,-2.6366236383363604,50,standing
1783066262810120200,0.8568008,0.2984614799838513,0.2279132680952549,-0.5053779180839657,0.1566314101219177,-0.2457363903522491,-0.2016704529523849,-0.9876920637056232,-9.400398518839475,-2.612919814404845,50,standing
1783066262830045200,0.8767258,0.0420861605793237,0.1462520529747009,-0.3957423621058464,0.1860386133193969,-0.3029699027538299,-0.1684415340423584,-0.9687918406635522,-9.413308853816986,-2.5732173340916638,50,standing
1783066262849971200,0.8966518,-0.2832501745875924,0.0361328051328659,-0.1328241238638758,0.1616311073303222,-0.2734902203083038,-0.1338015645742416,-0.955449836270511,-9.42469475570619,-2.536261229877174,50,standing
1783066262869896200,0.9165768,-0.2924755374420434,0.0666670596063137,-0.1954717186957597,0.2212724983692169,-0.1369905471801757,-0.1604315489530563,-0.9393413628388196,-9.436524894231557,-2.498005148980021,50,standing
1783066262889822200,0.9365028,-0.495893392836675,0.3383867362022399,-0.377203081330657,0.322573184967041,-0.1397027969360351,-0.24400594830513,-0.908306026975438,-9.453711006832124,-2.4439148084826767,50,standing
1783066262909747200,0.9564278,-0.4057872977148741,0.0336783977180719,-0.5158152870766818,0.409867525100708,-0.1824171841144561,-0.2917152047157287,-0.8647855227440595,-9.476109885644911,-2.3718910441488026,50,standing
1783066262929673200,0.9763538,-0.232513016975671,0.074083473342657,-0.4476259863391518,0.4783610701560974,-0.2797725200653076,-0.3066212832927704,-0.8183918011639266,-9.502001867270469,-2.2831112291947004,50,standing
1783066262949598200,0.9962788,-0.1512852979015559,0.0520686254113912,-0.4122855006277561,0.5092088580131531,-0.2307249903678894,-0.2478653043508529,-0.7779641483813524,-9.528468433913588,-2.184824457965791,50,standing
1783066262969524200,1.0162048,-0.2838091236446052,0.0294546425431966,-0.249037889188528,0.4400355815887451,-0.1104701310396194,-0.1888625770807266,-0.7443507056582719,-9.55224210821092,-2.0906953909382224,50,standing
1783066262989449200,1.0361298,-0.2605326582796871,-0.1112929677963256,-0.3271393660008907,0.3742919266223907,-0.1314335465431213,-0.1837196201086044,-0.7134585776578635,-9.571606733894347,-2.0113972516871987,50,standing
1783066263009375200,1.0560558,-0.2472587506867945,-0.1899672760605812,-0.3160278971388935,0.2388657182455063,-0.15650674700737,-0.1896654367446899,-0.6845346809905022,-9.586457097023724,-1.9497849912524223,50,standing
1783066263029300200,1.0759808,-0.2617472947664558,0.0006587561696767,0.3323091698542237,0.0864186063408851,0.0612030439078807,-0.166810855269432,-0.6516406385831535,-9.595273440685869,-1.9174205987423656,50,standing
1783066263049226200,1.0959068,-0.1650365406826138,0.2844371193498373,0.3221463800191879,-0.0505350828170776,0.2268399745225906,-0.0750117376446724,-0.6222069657627493,-9.59728302694261,-1.917133744625002,50,standing
1783066263069151200,1.1158318,-0.0152750182822346,0.092217095926404,-0.0533481438279151,-0.0809282809495925,0.1730154901742935,-0.0287789199501276,-0.6052720879768952,-9.59480290056467,-1.9348866973280905,50,standing
1783066263089077200,1.1357578,-0.0750322619674727,0.1715302866160869,-0.1565954600736498,-0.0915311798453331,0.0389919802546501,-0.0403520725667476,-0.5939972087141127,-9.592263737475871,-1.950900405148417,50,standing
1783066263109002200,1.1556828,-0.2751567749051377,0.2435311084657907,0.0589215600460767,-0.1371710151433944,-0.0913828536868095,-0.0076619726605713,-0.5890003137422726,-9.588249825659394,-1.97203832411468,50,standing
1783066263128928300,1.1756089,-0.0824190842831507,0.0761228702157735,0.0060550622552633,-0.1409856081008911,-0.179983839392662,0.0248311590403318,-0.5948406372683123,-9.582599837073683,-1.9975816384330392,50,standing
1783066263148853200,1.1955338,-0.1161545094180852,0.009216741156578,0.077933865160495,-0.1758704483509063,-0.1258192509412765,0.1144997999072074,-0.615274024694413,-9.575548164996505,-2.0250182191520927,50,standing
1783066263168779000,1.2154596,-0.2323364182997495,-0.3202460993558168,0.2454509706124663,-0.2525536119937897,-0.0930091813206672,0.1607300043106079,-0.6472335627306253,-9.565114449265598,-2.06399691523537,50,standing
1783066263188705300,1.2353859,-0.358626537285,-0.3136176211267709,0.0374915262654423,-0.2780957818031311,-0.1566012799739837,0.1023112833499908,-0.6779130708936602,-9.551988425710796,-2.1143118288472293,50,standing
1783066263208630300,1.2553109,-0.3288223506517708,0.1732026037424802,-0.117407651284337,-0.204005017876625,-0.2996855676174164,-0.0004481010255403,-0.6978413948744535,-9.540815874311328,-2.157832406143844,50,standing
1783066263228556000,1.2752366,-0.3006791560333222,0.4907084644794464,-0.1948357588797807,-0.1101952195167541,-0.2530085444450378,-0.0894338935613632,-0.7023418480988591,-9.53450596051216,-2.1841027195625005,50,standing
1783066263248477000,1.2951576,-0.3813662654247134,0.2089870338290929,0.1223804712608456,0.0152529114857316,-0.081789843738079,-0.1273928135633468,-0.6873455006275325,-9.533954756370186,-2.191270126973837,50,standing
1783066263268403000,1.3150836,-0.2273402905128896,0.2342068152815103,-0.4504126944482326,0.1357638388872146,-0.1412107199430465,-0.1562196910381317,-0.664948813771829,-9.539271567478776,-2.1749784789949653,50,standing
1783066263288328200,1.3350088,-0.1776630172174423,0.2370394083589315,-0.4854907298311591,0.2160482853651046,-0.1464021801948547,-0.1478801816701889,-0.6420517031133175,-9.549135958889126,-2.1382547222316264,50,standing
1783066263308254000,1.3549346,-0.2643223328862339,0.2563070034086704,-0.4676590128034353,0.26303231716156,-0.0348434075713157,-0.1210468560457229,-0.6207841664180159,-9.560773205190896,-2.092041983241588,50,standing
1783066263328179200,1.3748598,-0.2482426106249913,0.3445639635324478,-0.3066792001657187,0.276265412569046,0.152973473072052,-0.0962179601192474,-0.5961622777935117,-9.573462590894104,-2.040536252409965,50,standing
1783066263348105200,1.3947858,-0.0880958512779325,0.3279699716061353,-0.4670826742202043,0.2370926588773727,0.2247537225484848,-0.0197640545666217,-0.5773425726417452,-9.584103227373957,-1.9955033708542584,50,standing
1783066263368030000,1.4147106,0.1076809878442436,0.4529880978941917,-0.563761425730586,0.3455715775489807,0.116888128221035,0.0239854771643877,-0.5714078488305211,-9.595247137200833,-1.9429675663225352,50,standing
1783066263387956200,1.4346368,0.1284405750174075,0.1967459764152765,-0.459776150599122,0.3845204710960388,0.1365417242050171,0.1134623512625694,-0.5798971524953842,-9.608801615300774,-1.8721764125235376,50,standing
1783066263407881000,1.4545616,0.0803155361326411,0.1046831942677497,-0.3288150441281497,0.338068813085556,0.13989919424057,0.1910435408353805,-0.60419660423249,-9.620287470433116,-1.8042691435977816,50,standing
1783066263427807000,1.4744876,-0.1037116458218544,0.0540267737418413,-0.1975789201080799,0.3695099949836731,0.1264340132474899,0.1800999045372009,-0.6374433325350284,-9.62993558874428,-1.7402280485808848,50,standing
1783066263447732200,1.4944128,-0.283103751854226,-0.0636708003997802,-0.1213048048533499,0.35822594165802,0.1206148713827133,0.0974744632840156,-0.6602117022473365,-9.640777885276078,-1.6703060788318511,50,standing
1783066263467658000,1.5143386,-0.5374837327230721,-0.1443202081292867,0.2179728888392448,0.2554522156715393,0.1269255727529525,-0.0134267257526516,-0.6651535425636917,-9.650209145966173,-1.6128944849573077,50,standing
1783066263487583200,1.5342638,-0.472713300518319,-0.0510994881182908,0.0297786138005554,0.1908398121595382,0.042498979717493,-0.0925367996096611,-0.6512147413212805,-9.657985625186562,-1.5714945530764757,50,standing
1783066263507509000,1.5541896,-0.2927365995310246,-0.1904261257439851,0.0341249724417924,0.1327698230743408,-0.0167452059686183,-0.0927555337548255,-0.6326224882498384,-9.6642575450629,-1.5402278926752506,50,standing
1783066263527434000,1.5741146,-0.1178910508871078,-0.0694283410131931,0.1203963117063045,0.0926414653658866,-0.0520688146352767,-0.0343427322804927,-0.6211692202128469,-9.668537998861074,-1.5178617470882831,50,standing
1783066263547360300,1.5940409,-0.0590711245846003,0.1801531535327434,0.1103274837650358,0.023152682930231,-0.0364778563380241,0.0396399907767772,-0.622528160541132,-9.67046809014082,-1.504949804675579,50,standing
1783066263567285000,1.6139656,-0.0831476542860269,0.290004690349102,0.1171136367738246,-0.0979800447821617,0.0119218593463301,0.1147368103265762,-0.63780639369376,-9.668391868388651,-1.5118853030271828,50,standing
1783066263587211000,1.6338916,-0.1524099180173128,0.2787976521581411,0.043906800135225,-0.1866525709629058,-0.0476540327072143,0.131509393453598,-0.6628157472658902,-9.662273677769305,-1.5399835625253615,50,standing
1783066263607137300,1.6538179,-0.1705455864276737,0.22879881875813,-0.0228380008824169,-0.2140836268663406,-0.042869109660387,0.1292857676744461,-0.6891225202374159,-9.654323011025786,-1.5778358849272132,50,standing
1783066263627062000,1.6737426,-0.2550794343750924,0.0011094225466251,-0.0793459239155054,-0.1967900246381759,0.0180101916193962,0.1153038069605827,-0.7138239769041538,-9.645851535278558,-1.6181430531352758,50,standing
1783066263646988000,1.6936686,-0.1641888378120958,0.1312532212853431,-0.1919054045163095,-0.1003847867250442,-0.0063181752339005,0.0737084820866584,-0.7316913497671484,-9.63952525486648,-1.6475893662415444,50,standing
1783066263666913000,1.7135936,-0.2301213725987821,-0.0337847807019948,-0.3667627897284924,0.0224185194820165,-0.0566741302609443,0.0274342205375432,-0.7420740659631788,-9.637592240977286,-1.654242686650902,50,standing
1783066263686839000,1.7335196,-0.3626792467419057,-0.003386719828844,-0.4777092821747064,0.1128382533788681,-0.0796703025698661,-0.0372336581349372,-0.7440403976000844,-9.64000865446925,-1.6392137520842254,50,standing
1783066263706764000,1.7534446,-0.5055735137213021,-0.0491723194479942,-0.2113857655338943,0.1901516169309616,0.0530531853437423,-0.1055401116609573,-0.730732222411409,-9.6459964967072,-1.6097040183529256,50,standing
1783066263726690000,1.7733706,-0.4331894647076725,0.2325292374581098,-0.4153435730241239,0.2567182779312134,0.0602288283407688,-0.142409086227417,-0.7039065401323139,-9.65505950860679,-1.566755980247259,50,standing
1783066263746615300,1.7932959,-0.1639338401377201,0.1960252609252929,-0.244020937809348,0.303619921207428,0.0981839820742607,-0.1045022532343864,-0.6768799284536391,-9.66539210205078,-1.5140709765031932,50,standing
1783066263766541000,1.8132216,-0.0288830532003194,0.1770814910024404,-0.4496171601563691,0.3318799436092376,-0.0120541974902153,-0.0466734394431114,-0.6609464462626725,-9.6759269400686,-1.4525759127072988,50,standing
1783066263786466000,1.8331466,-0.0879236365161836,0.0891992094099521,-0.2056434224896133,0.3231200575828552,-0.0779683664441108,-0.0120573341846466,-0.6572714840769768,-9.685607791605593,-1.3882961866289376,50,standing
1783066263806392300,1.8530729,-0.1589940456479787,0.142725047892332,-0.0091343235701322,0.2783358991146087,-0.0851128548383712,-0.0062786368653178,-0.6580272708803415,-9.6939442427963,-1.3284762164384123,50,standing
1783066263826317000,1.8729976,-0.196252639940381,0.0348901115953922,0.2278713286496698,0.155995562672615,-0.0333955027163028,0.0002768610720522,-0.6583277151316403,-9.699832131791114,-1.2846123786620796,50,standing
1783066263846243000,1.8929236,-0.2428022096693515,0.0892985781311988,0.4291643008448183,-0.0062542962841689,0.0186317823827266,0.0266602095216512,-0.661607540519908,-9.701419108721613,-1.2708753836020827,50,standing
1783066263866168000,1.9128486,-0.3084543931446969,0.1956120039492845,0.1777098520338535,-0.0683582499623298,-0.0548719689249992,0.0200191810727119,-0.6670332918956875,-9.699994044354558,-1.2788923935800791,50,standing
1783066263886094000,1.9327746,-0.2839632912930101,0.1724900715589523,0.1135487838990986,-0.0971890538930893,-0.0328955091536045,0.0384339205920696,-0.6740165749117731,-9.697521516761183,-1.2938902023561298,50,standing
1783066263906019300,1.9526999,-0.3119326637145131,0.0567839634954929,0.0161252053707838,-0.1232267394661903,-0.0413583368062973,0.0443562753498554,-0.6834566034302115,-9.694044196039435,-1.314829822271317,50,standing
1783066263925945000,1.9726256,-0.3826981716156005,0.0172042327791452,0.0083837974637746,-0.1178279295563697,0.011517715640366,0.0150647507980465,-0.689754680661112,-9.690377490225432,-1.3383628196805717,50,standing
1783066263945871000,1.9925516,-0.388380016644299,-0.0112064536690711,-0.1469347745418548,-0.0833470746874809,0.022165672853589,-0.0427431799471378,-0.6863173266235738,-9.687704471623896,-1.3593176371648907,50,standing
1783066263965796000,2.0124766,-0.1983891405124217,0.0851625012397766,-0.3836277075506746,0.0117680607363581,-0.033911507576704,-0.0622255764901638,-0.6757938137173652,-9.687408703547716,-1.3666839281491934,50,standing
1783066263985722000,2.0324026,0.0238653711687773,0.0606020604789257,-0.3482430904366075,0.0794455707073211,0.0027152760885655,-0.0200642328709363,-0.6679058369465172,-9.689334118652344,-1.356877550536394,50,standing
1783066264005647000,2.0523276,0.0331054932009428,0.137352122682333,-0.3060385641746223,0.1025199070572853,0.0007094282773323,-0.0050087929703295,-0.6662219755128026,-9.691861591303349,-1.3395260182410478,50,standing
1783066264025573000,2.0722536,0.0148744746573269,0.1924532476574182,-0.3019743834756314,0.1097307354211807,-0.0266121551394462,0.0089274551719427,-0.6666957305043936,-9.694739192566274,-1.3183012977741655,50,standing
1783066264045498000,2.0921786,-0.1132148757696151,0.0506307015627622,-0.1565793857216835,0.1339416205883026,0.0083614969626069,0.0140703506767749,-0.6693898649591952,-9.697767015954852,-1.2944564579367637,50,standing
1783066264065424100,2.1121047,-0.2935753153774887,0.0203267487138509,-0.1462263340115547,0.1486471593379974,0.015842804685235,-0.0117581086233258,-0.6694923024203628,-9.701430799159407,-1.2666517745576795,50,standing
1783066264085349000,2.1320296,-0.3336852805130183,0.0810346076548099,-0.0048386722028255,0.1243054196238517,0.0535175688564777,-0.0101940408349037,-0.6660435502059757,-9.704977093464136,-1.2410441628314557,50,standing
1783066264105275100,2.1519557,-0.2196131303269416,0.1993628809154033,-0.0718505266588181,0.1296014189720153,-0.0329389907419681,-0.0092412177473306,-0.6632485126599669,-9.70823346491158,-1.216828663050756,50,standing
1783066264125200100,2.1718807,-0.160139562421292,0.0720978524833917,-0.0118494277477264,0.0992392674088478,-0.0331336520612239,0.0133945671841502,-0.6648124009758234,-9.711153736272454,-1.192434299571812,50,standing
1783066264145126100,2.1918067,-0.3380567735955119,-0.0219271696478128,0.1728963142722845,0.0118479188531637,0.0206433124840259,0.0047226212918758,-0.6679569095466286,-9.71229823013246,-1.181304126009345,50,standing
1783066264165051000,2.2117316,-0.321542349711433,0.1654039126902818,0.1342125094823539,-0.0841187164187431,0.0029124920256435,-0.0151944570243358,-0.6659163436297327,-9.711536013588308,-1.188709287699312,50,standing
1783066264184977200,2.2316578,-0.1278112641379237,0.0751420424848794,0.076417615378648,-0.1144966259598732,-0.0144687974825501,0.0056879054754972,-0.6649684683203697,-9.70910907870233,-1.2088752928934992,50,standing
1783066264204902100,2.2515827,-0.0597285655800253,0.0789893655627965,-0.0998239176683127,-0.0841221958398819,-0.0677992403507232,0.0128780845552682,-0.6684077951192855,-9.706522569340468,-1.227610973023623,50,standing
1783066264224828000,2.2715086,-0.1364990129843354,0.0991781671106815,-0.0912596490710973,-0.0704830661416053,-0.0633536130189895,0.0046466249041259,-0.6724417998757213,-9.704565590053797,-1.2408138612069188,50,standing
1783066264244753200,2.2914338,-0.1964130911991,0.1478320156425237,-0.0247371125020086,-0.0680966973304748,-0.0270211286842823,-0.0001854791189543,-0.6737297207944095,-9.702792735162376,-1.2539167961470783,50,standing
1783066264264683300,2.3113639,-0.1357577661629766,0.1049526588588952,-0.1948550481021404,-0.047939583659172,-0.0611509568989276,0.0093445060774683,-0.6760261611685157,-9.701212187972663,-1.2648596304439008,50,standing
1783066264284608000,2.3312886,-0.2429112230017781,-0.0793482620030641,-0.0939466961979866,-0.0308572147041559,0.00377549813129,0.0004792301333509,-0.6788563430931419,-9.700067694112658,-1.2720951346553862,50,standing
1783066264304534300,2.3512149,-0.379216686175391,0.0328133053213357,-0.1416786075793206,-0.0231627933681011,0.050159927457571,-0.0368638485670089,-0.6746809571046382,-9.699551561284064,-1.278232176105678,50,standing
1783066264324460000,2.3711406,-0.3090639033451676,0.1275964523434639,-0.2069476369559764,0.0474549867212772,0.0534143783152103,-0.0658683031797409,-0.6629819706782698,-9.700362877666947,-1.2782054342292248,50,standing
1783066264344385000,2.3910656,-0.1327007166799158,0.2152946095407009,-0.3473063941083848,0.138582557439804,-0.0112087680026888,-0.0626956298947334,-0.6494549651071428,-9.703664841821787,-1.259950523353368,50,standing
1783066264364311300,2.4109919,-0.035218247571215,0.2210755310297012,-0.184161804652214,0.1192007735371589,0.0118724927306175,-0.0089687453582882,-0.6420414739802479,-9.707650696587562,-1.2327566653490063,50,standing
1783066264384236000,2.4309166,-0.1081124380640685,0.1245779813051223,-0.025727730974555,0.0064750462770462,0.0339818075299263,0.0404692180454731,-0.6454624614048748,-9.70901613972187,-1.220154811798781,50,standing
1783066264404162000,2.4508426,-0.2698204188458621,0.0791617995202541,0.0177032683424651,-0.05921146646142,0.073917731642723,0.0392564795911312,-0.6528450459368527,-9.707594582486152,-1.2275234408706426,50,standing
1783066264424087000,2.4707676,-0.3180593299012631,0.1842816316395998,-0.0476699520610272,0.0025830327067524,0.0651649534702301,0.0110990460962057,-0.655632630828768,-9.706320324766637,-1.236070758333057,50,standing
1783066264444013000,2.4906936,-0.2319629818774759,0.0703980628281831,-0.277434547111392,0.0963586866855621,0.0337107852101326,-0.019240990281105,-0.6528443152844905,-9.707807932975888,-1.225824966389686,50,standing
1783066264463938300,2.5106189,-0.2619676595188677,-0.0242336930245161,-0.1151825225807726,0.1029617264866828,0.0725876167416572,-0.0387564934790134,-0.6461831038296222,-9.710741063818334,-1.2059684655360876,50,standing
1783066264483864000,2.5305446,-0.2111679580647498,0.0621650720119476,-0.0590804038695991,0.0464454032480716,0.0704551637172699,-0.0420880317687988,-0.6365289941690861,-9.713041157454253,-1.1924885870423167,50,standing
1783066264503789300,2.5504699,-0.0381277783423662,0.0916448489964008,-0.1215454817414283,0.0216794051229953,0.0263824518769979,-0.0154522024095058,-0.6289565130881964,-9.714240596371887,-1.1867360148649662,50,standing
1783066264523715000,2.5703956,-0.0262515356529504,0.0197077400326728,-0.1122720419615507,-0.0022853892296552,0.044133011251688,0.0206029210239648,-0.6291612418800592,-9.714428812420367,-1.1850859826356173,50,standing
1783066264543640000,2.5903206,-0.2589523302856832,0.1342939041554927,-0.062928019208461,0.0060769747942686,0.0685090944170951,0.0182275213301181,-0.6321396001037209,-9.714094465899468,-1.1862464047171175,50,standing
1783066264563566000,2.6102466,-0.318385420050472,0.1439993056118488,-0.2528391811676323,0.0605763271450996,0.0330523289740085,-0.0157676339149475,-0.6313643779475242,-9.714821611130237,-1.1806892820466308,50,standing
1783066264583491000,2.6301716,-0.3266962253432721,0.1064811836004257,-0.2028103179555386,0.0657361298799514,0.0266484208405017,-0.0318076200783252,-0.6254478473801165,-9.716806062945723,-1.167421584998816,50,standing
1783066264603417000,2.6500976,-0.2469175360336899,0.1319692606002092,-0.0308779533445835,-0.0030370901804417,0.0602377876639366,-0.0048429514281451,-0.6200826670851558,-9.717903795054552,-1.1611356365971266,50,standing
1783066264623343000,2.6700236,-0.0648180707387626,0.2420464228659868,0.0070324559200555,-0.0516738146543502,0.0791149884462356,0.0527075491845607,-0.6232154121529311,-9.716799633204936,-1.1686689547114073,50,standing
1783066264643268000,2.6899486,-0.1394753984466195,0.1943605425834655,-0.216429312659055,-0.0073115173727273,0.0229642651975154,0.0643338710069656,-0.6345998527374118,-9.715203888446093,-1.175799537243694,50,standing
1783066264663194000,2.7098746,-0.3702086923986673,0.0924450594633817,-0.1648112074941396,0.0352998077869415,0.0204232912510633,0.0104559399187564,-0.6422393346399069,-9.71519044444263,-1.1717517231576144,50,standing
1783066264683119000,2.7297996,-0.5049333891868591,-0.1253746846407651,-0.1001153018303215,0.0259955003857612,0.0266462806612253,-0.0649283975362777,-0.6363526146888733,-9.7162916836828,-1.1658190451730042,50,standing
1783066264703045000,2.7497256,-0.3386557624019682,-0.1146077914327383,-0.0597292962323874,0.0315764062106609,0.0477399639785289,-0.1063095778226852,-0.6178276546999811,-9.718078567099573,-1.1608645645707845,50,standing
1783066264722970400,2.769651,-0.0505174139140173,-0.0120341366648674,-0.179448074003309,0.0581452697515487,0.0365966036915779,-0.0776350796222686,-0.598311126390472,-9.72024480522275,-1.1529246384169909,50,standing
1783066264742896000,2.7895766,0.0195545222323387,0.1984481041580438,-0.2058551655441522,0.07123813778162,0.0044777831062674,-0.0090481145307421,-0.5893744808169081,-9.722283033052086,-1.1402844986829903,50,standing
1783066264762821000,2.8095016,-0.1359139796379953,0.2272603571444749,-0.1714500609867274,0.0965968370437622,-0.0363312102854251,0.0190092958509922,-0.5919233250495046,-9.72400971071422,-1.1241126776915042,50,standing
1783066264782747100,2.8294277,-0.2933101616352796,0.1060802015841007,-0.1485720203548669,0.0843375250697135,0.006261674221605,-0.0042013092897832,-0.5947891628094018,-9.725982472091912,-1.10539146447815,50,standing
1783066264802672000,2.8493526,-0.3874841272505,0.026052140623331,0.016837153032422,0.0165646113455295,0.0536180026829242,-0.0251472145318985,-0.590996054136753,-9.727357267576457,-1.0952754363942891,50,standing
1783066264822598100,2.8692787,-0.2648022618902847,-0.0255102888315916,-0.0093154522906988,-0.020060583949089,0.0535778515040874,-0.0200283117592334,-0.5854385296074673,-9.727419226896762,-1.097703832584992,50,standing
1783066264842523100,2.8892037,-0.2131471126506104,-0.0364431862562894,-0.1606963195212185,0.0219465401023626,-0.0266581121832132,-0.0341677293181419,-0.5799322603413835,-9.727710903319716,-1.098055568632111,50,standing
1783066264862449200,2.9091298,-0.220815528386645,0.0350876799941062,-0.0697924981504678,0.0595297589898109,-0.0275049712508916,-0.0345415398478508,-0.5737601841103285,-9.729060564363005,-1.0892999421812593,50,standing
1783066264882374100,2.9290547,-0.189383594421111,0.0958101519823074,-0.084761665353924,0.0424325317144393,-0.0352651588618755,-0.0245283190160989,-0.5683814867466688,-9.730527714306117,-1.0789699060205369,50,standing
1783066264902300200,2.9489808,-0.2318816237369552,0.0892296045482158,-0.025170097091794,0.0029438019264489,0.0092844245955348,-0.0118436189368367,-0.5650882538875565,-9.731278240412474,-1.0739185409151015,50,standing
1783066264922226200,2.9689068,-0.3214304503021761,0.061513330104947,-0.0585715775646269,-0.0450978875160217,0.0187527704983949,-0.0221599135547876,-0.5620300353607163,-9.73094681650102,-1.0785242811448872,50,standing
1783066264942151200,2.9888318,-0.3630433308139443,0.1099018056988716,-0.1203939005535095,-0.0543718300759792,0.0191642101854085,-0.0464158244431018,-0.554684019979462,-9.730252404496072,-1.0885282271564003,50,standing
1783066264962077200,3.0087578,-0.3318456074630841,0.0494026210725307,-0.1728080514669418,-0.0032139590475708,-0.0092993797734379,-0.0672347098588943,-0.5433848465256392,-9.730207396310568,-1.0946225254435091,50,standing
1783066264982002000,3.0286826,-0.269041981819272,-0.0439782579362392,-0.1971406748212874,0.027973610907793,0.0096235331147909,-0.0685893222689628,-0.530172423329018,-9.731249014317989,-1.0918377170305698,50,standing
1783066265001928200,3.0486088,-0.1905482177536934,0.1885468878686428,-0.0947691184967756,0.0483988858759403,0.0005401836242526,-0.0423635505139827,-0.5187340971328318,-9.732582893270251,-1.0854231007479131,50,standing
1783066265021853200,3.0685338,-0.0825153842644765,0.228396083176136,-0.2270777671191841,0.0922443270683288,-0.0479039475321769,-0.0107580916956067,-0.5143887614049018,-9.734422383657098,-1.070878515632078,50,standing
1783066265041779000,3.0884596,-0.1905921664932742,0.1308931558012962,-0.1761425296518951,0.0891482010483741,-0.0342912822961807,-0.0091996323317289,-0.5139014528119936,-9.73657810038626,-1.0513348801199347,50,standing
1783066265061704200,3.1083848,-0.3051764309199526,0.1771393586695194,-0.0550111086040735,0.0244112219661474,-0.0073244329541921,-0.0254404377192258,-0.5107973127841949,-9.738084413295985,-1.0388399210102857,50,standing
1783066265081630200,3.1283108,-0.2195996497908607,0.1887052933007478,0.0395532811008393,-0.0350246392190456,0.0159269962459802,-0.014293760061264,-0.5062924391129985,-9.73812942148149,-1.0406289233189077,50,standing
1783066265101555200,3.1482358,-0.1359689977608621,0.0717342798680067,-0.142458505910635,-0.0395150631666183,-0.0085105076432228,0.0099801216274499,-0.5061260695701465,-9.737276019522549,-1.0486564546909185,50,standing
1783066265121481200,3.1681618,-0.2232807494563981,0.0887146407634019,-0.2020007551383227,0.003669636324048,0.0071498919278383,0.0030257604084908,-0.5078486555790528,-9.73674819625616,-1.052710552387312,50,standing
1783066265141406000,3.1880866,-0.2539227020880207,0.180562318855524,-0.203400319737941,0.0397572629153728,0.0102148531004786,-0.0066146478056907,-0.5078825213160365,-9.737318105098604,-1.0474209215465933,50,standing
1783066265161332200,3.2080128,-0.2448984878288581,0.0809925220787525,-0.0900019040949642,0.0033461498096585,0.0291751213371753,0.0112521350383758,-0.5077789148110896,-9.737856449759006,-1.0424557003546506,50,standing
1783066265181257200,3.2279378,-0.2502785734320059,0.0629910014420747,-0.1136087704580277,-0.0054005030542612,-0.0088071841746568,-0.0009268539724871,-0.5086833163049072,-9.737660050404072,-1.0438378754280506,50,standing
1783066265201183000,3.2478636,-0.2561734036242589,0.072106620311737,-0.1091768524251878,0.0216429196298122,-0.0082610128447413,-0.0043769143521785,-0.508923445203714,-9.73779682852626,-1.042434073044732,50,standing
1783066265221108200,3.2677888,-0.2764632909264415,0.0550870964497327,-0.0898258168756961,0.0212278384715318,-0.0027078166604042,-0.0048945862799882,-0.5089844912085681,-9.738286073347926,-1.037843384253606,50,standing
1783066265241034000,3.2877146,-0.2571825806668028,0.1080640688776969,-0.1314537122935056,-0.0122651569545269,-0.0225173570215702,0.0023722050245851,-0.5091115881869569,-9.738440971648693,-1.0363182935781776,50,standing
1783066265260956200,3.3076368,-0.3101921767227351,-0.0435369439095258,-0.0673943509675562,-0.0562269873917102,-0.0039826543070375,0.007891621440649,-0.5116177623216063,-9.737526194891332,-1.0436652222748846,50,standing
1783066265280881200,3.3275618,-0.3508634655354544,0.1094102227896451,-0.1642822151839733,-0.0529389753937721,-0.0073617342859506,-0.0191441737115383,-0.5111988427897914,-9.736345460674166,-1.054814977320656,50,standing
1783066265300807000,3.3474876,-0.2661145500652492,0.1378577341169118,-0.1712906326413154,-0.0181914735585451,0.0077289785258471,-0.0170446541160345,-0.5076616085743532,-9.73576327687204,-1.061872859942913,50,standing
1783066265320732200,3.3674128,-0.181636341295205,0.1310246732264757,-0.1460305191785097,-0.0086289467290043,0.0034565136302262,-0.0007915899623185,-0.5065468522654846,-9.735514270547032,-1.0646874059069902,50,standing
1783066265340658200,3.3873388,-0.1495641731973737,0.0614765052258968,-0.1874110887717455,-0.0033625985961407,-0.0040046507492661,0.0159491132944822,-0.5089909940145909,-9.735247728565335,-1.0659534072548151,50,standing
1783066265360583200,3.4072638,-0.2481500369707122,0.0704553459733724,-0.2046514888428151,0.0170705020427703,-0.0047838930040597,0.0058878348208963,-0.5118592063946649,-9.735247728565335,-1.064574447051808,50,standing
1783066265380509200,3.4271898,-0.2349028347216546,0.1323304951280355,-0.1718552807867527,0.0370716080069541,0.002133366651833,-0.0028956236783415,-0.5120881928449497,-9.735772629222271,-1.059662344286591,50,standing
1783066265400434000,3.4471146,-0.19408066619616,0.0690916564047336,-0.1763075840204954,0.026080971583724,0.0123809082433581,0.002347663976252,-0.5125082083553075,-9.73642904730439,-1.0534138783510774,50,standing
1783066265420360200,3.4670408,-0.2756201181005686,0.0346691623210907,-0.0703157913722097,0.0184444990009069,0.0545364953577518,0.0026304107159376,-0.5132695481166243,-9.736723646336792,-1.0503203693151473,50,standing
1783066265440285200,3.4869658,-0.2731780221780762,0.1554535965621471,-0.1913550771571695,0.022657673805952,0.0199981443583965,-0.0226165018975734,-0.510623746315576,-9.737199447154998,-1.0471952960971742,50,standing
1783066265460211000,3.5068916,-0.2170765245214104,0.0930477015316486,-0.0804161834955215,0.0160432700067758,0.0150105310603976,-0.013913226313889,-0.5068702755335718,-9.737789814263582,-1.043511858344078,50,standing
1783066265480136200,3.5268168,-0.193478681715019,0.0610784458190202,-0.1030938792496919,0.0041394177824258,-0.0395917780697345,0.0008939000545069,-0.5062268630634993,-9.737992643359302,-1.041933210850507,50,standing
1783066265500062000,3.5467426,-0.2688137990865856,0.0269458745926618,-0.0634739626534283,-0.0053518218919634,-0.0467471592128276,-0.004248131532222,-0.5075061988169327,-9.73797861483395,-1.0414497381825,50,standing
1783066265519987200,3.5666678,-0.3119586384059861,0.0804781428158283,0.0283884746164083,-0.0452424585819244,0.0104994028806686,-0.0145949954167008,-0.5064093069583178,-9.73749053905606,-1.0465230959240346,50,standing
1783066265539913200,3.5865938,-0.1714243785561993,0.159931618759036,-0.0919761267773806,-0.0599282868206501,0.0005896914517506,-0.0059969737194478,-0.5037403800100088,-9.736437815132737,-1.05753972610943,50,standing
1783066265559838000,3.6065186,-0.0938681145364418,0.1461234581589698,-0.2574813078850507,-0.0278219394385814,-0.0313050523400306,0.020478731021285,-0.5061786765402183,-9.73535001989603,-1.0663627917733045,50,standing
1783066265579764200,3.6264448,-0.1798679068505763,0.1063888291418552,-0.1896177319705486,0.0011252353433519,-0.0300442334264516,0.0139533327892422,-0.5117569515965879,-9.734820443063974,-1.0685348020501435,50,standing
1783066265599690200,3.6463708,-0.3713048536049201,0.0211824887603521,-0.0787403592377901,-0.0112997619435191,0.0329420380294323,-0.0227189622819423,-0.5117065731162205,-9.734757899221778,-1.069130064529553,50,standing
1783066265619615000,3.6662956,-0.2469403323873877,0.1541173795223236,-0.0651369274295866,-0.0194610692560672,0.0546708516776561,-0.0277326274663209,-0.5049886265054345,-9.734666129285095,-1.073156178240478,50,standing
1783066265639541200,3.6862218,-0.0008670286254957,0.0706336251497268,-0.2444903088867664,0.0164790134876966,-0.0176592096686363,0.0028696744702756,-0.5023643424164503,-9.73467898876667,-1.0742661853089928,50,standing
1783066265659466000,3.7061466,-0.036681817317754,0.1030371806263923,-0.1380769298255443,0.0425114370882511,-0.0315486416220665,0.0224161744117736,-0.5060536984536796,-9.735209734642504,-1.0677031004663555,50,standing
1783066265679392000,3.7260726,-0.1499651917463168,0.0946259106338024,-0.0382429291546344,0.0360107757151126,-0.0410627983510494,0.0200273469090461,-0.5117321459488943,-9.7357767208755,-1.059797880299762,50,standing
1783066265699317000,3.7459976,-0.2299041861841455,-0.0025356559574604,-0.0893880099803209,0.0127100041136145,-0.0126460501924157,0.0070294849574565,-0.5154407546758651,-9.736178871935603,-1.0542921224903314,50,standing
1783066265719243000,3.7659236,-0.2905518028378486,-0.0598743307262659,-0.0283002118110656,-0.0360489413142204,0.0474570356309413,-0.0062937457114458,-0.5150970192721114,-9.73585212419927,-1.05747031413503,50,standing
1783066265739168300,3.7858489,-0.2656002804001793,0.0596276624888181,-0.1865313833277672,-0.0389958545565605,0.0010823585325852,-0.0282443258911371,-0.5107196444381028,-9.735044899469614,-1.0669828233677894,50,standing
1783066265759094000,3.8057746,-0.2101181567508727,0.0398386739134788,-0.1634440107941627,0.0215812567621469,-0.0044781351462006,-0.0337308496236801,-0.5049998054865747,-9.735158296716213,-1.06867158017233,50,standing
1783066265779019000,3.8256996,-0.2253322751587256,0.1145358952403068,-0.095051369504258,0.0516547933220863,0.0136722922325134,-0.0436069406569004,-0.497716699273698,-9.736382870075106,-1.060899119539931,50,standing
1783066265798945300,3.8456259,-0.1786405570127069,0.0986333927094936,-0.0413059699870645,0.013761774636805,0.0381101630628109,-0.0281486064195632,-0.4902396779239177,-9.737540807938576,-1.0537424527183177,50,standing
1783066265818870000,3.8655506,-0.0677237290523946,0.2405313421279191,-0.0812735309772193,-0.0005102828145027,-0.0118201598525047,0.0108300177380442,-0.4884791710574179,-9.737579970905184,-1.0541762410257012,50,standing
1783066265838796000,3.8854766,-0.0931801688048988,0.1172346328049898,-0.1775309883356094,0.0045547122135758,-0.0261774640530347,0.0270375236868858,-0.4936984035430475,-9.73743617852032,-1.0530885188542305,50,standing
1783066265858721000,3.9054016,-0.3645511780936271,0.0435837056607007,0.0424396501921117,-0.0244806502014398,0.0445996522903442,-0.0085675753653049,-0.4963140659341588,-9.737108846262096,-1.054888042556867,50,standing
1783066265878647000,3.9253276,-0.2984761295637115,0.1165244387090206,-0.0316390008449554,-0.034777708351612,0.0413461253046989,-0.0314604490995407,-0.490712483067438,-9.736725984424352,-1.0610143434174355,50,standing
1783066265898573000,3.9452536,-0.1021497667999938,0.0248760825812816,-0.1032195514559745,-0.0332875810563564,-0.0134399384260177,0.0051628756336867,-0.487871304824762,-9.73605729138255,-1.0684425937220454,50,standing
1783066265918498000,3.9651786,-0.0053352235481143,0.0920394012719392,-0.1366536190241575,-0.0125587070360779,-0.0692484453320503,0.0424556769430637,-0.4938557495292275,-9.735285137966274,-1.0727175676275045,50,standing
1783066265938424000,3.9851046,-0.1806935074871405,0.0474164156913757,-0.0839390969246625,0.003290225053206,-0.0462156385183334,0.034906793385744,-0.503449689967744,-9.734805245494842,-1.0726100155998022,50,standing
1783066265958349000,4.0050296,-0.3971907708158716,0.1540881534278392,-0.0654039078027009,-0.0092009231448173,0.0141623588278889,-0.0104810083284974,-0.5067699934968725,-9.734635734146831,-1.0725897765293717,50,standing
1783066265978275000,4.0249556,-0.298702960589528,0.160479900291562,-0.1641131422273814,-0.0180467031896114,0.0261429008096456,-0.0110856117680668,-0.5033544494323432,-9.734442257401346,-1.0759335339993237,50,standing
1783066265998200000,4.0448806,-0.0925634616786614,0.0494511363893747,-0.2588753925919532,0.0003348807804286,-0.0179685913026332,0.0176912322640419,-0.5037422797061503,-9.734146489325164,-1.0784356530133634,50,standing
1783066266018126000,4.0648066,-0.1666312259955331,-0.0401993239194154,-0.1328096569471061,0.0017811548896133,-0.0076866140589118,0.0109975794330239,-0.5080846928246319,-9.733978147020936,-1.0779078297469764,50,standing
1783066266038051000,4.0847316,-0.3319217779718339,0.0703220749825239,-0.0272961493350565,0.0070486385375261,0.0006317879888229,-0.0397118330001831,-0.5063481148229911,-9.734068747913836,-1.0779273381650447,50,standing
1783066266057977000,4.1046576,-0.2323867237148806,0.0852519330888986,-0.0786561880856752,0.0203105416148901,-0.0086370510980486,-0.0473946891725063,-0.4976950719637796,-9.734782449141145,-1.0754985035829243,50,standing
1783066266077902000,4.1245826,-0.1424626340964809,0.0653361032634973,-0.0778789201028645,0.0206304583698511,-0.0107848206534981,-0.0239702928811311,-0.490654286606796,-9.73551777767837,-1.0720858455952256,50,standing
1783066266097828000,4.1445086,-0.1158018235228955,0.151304075667262,-0.0708743020378053,0.0003966838121414,-0.0184976104646921,-0.0128790158778429,-0.4878362700439989,-9.73589070264399,-1.069962862091884,50,standing
1783066266117753000,4.1644336,-0.2036255433285608,0.1030553008049726,-0.015172580821067,-0.0346770770847797,-0.0169478431344032,-0.0139763504266738,-0.486802470016852,-9.735528883594274,-1.0737403348039836,50,standing
1783066266137679000,4.1843596,-0.1985808636922389,0.1364151340931653,-0.0744124861013144,-0.0424083955585956,-0.0176225826144218,-0.0132818222045898,-0.4843651233347132,-9.73476900513768,-1.081687786677107,50,standing
1783066266157604000,4.2042846,-0.0711171343503519,0.1164566341698169,-0.105658176779747,-0.0249752346426248,-0.0106312790885567,0.0202848296612501,-0.4853850409669801,-9.733964703017472,-1.0884494628317654,50,standing
1783066266177530000,4.2242106,-0.0691281524902209,0.1086895072996616,-0.1913128454506397,-0.0027512968517839,-0.0043491581454873,0.038827508687973,-0.4921626088105141,-9.733380181127789,-1.0906325059592723,50,standing
1783066266197455000,4.2441356,-0.1656239121165126,0.1151782847970724,-0.1218248832046985,-0.0270000901073217,0.0145967919379472,0.0314338393509388,-0.49906625071913,-9.732686353644729,-1.0936811529401689,50,standing
1783066266217381000,4.2640616,-0.1769418998686596,0.2042763719201087,-0.1165519112378358,-0.0382658280432224,-0.009557582437992,0.0287571512162685,-0.5052559356721118,-9.731552965700626,-1.1009000713430344,50,standing
1783066266237307100,4.2839877,-0.1889558705283328,0.1358633454293012,-0.1013695396751165,0.0114125655964016,-0.0134666506201028,0.0098168700933456,-0.5094027896858752,-9.731075411316752,-1.1032126591343432,50,standing
1783066266257232600,4.3039132,-0.2357018761448562,0.0708867231279611,-0.0488080892454832,0.0065545495599508,0.0527475178241729,0.0046422341838479,-0.5103913257991894,-9.73134019973278,-1.1004089268252253,50,standing
1783066266277158700,4.3238393,-0.2526840636711567,0.0921148045957088,-0.027118893072009,-0.0557425059378147,0.0495521277189254,-0.007077885325998,-0.5092706512061879,-9.73072177557349,-1.106385809277743,50,standing
1783066266297084000,4.3437646,-0.269852969408594,-0.0391682273060083,-0.1942506524682045,-0.0743272677063942,0.0101271998137235,0.0063515407964587,-0.5087115925513208,-9.72917454613149,-1.120165839761868,50,standing
1783066266317009700,4.3636903,-0.2733312399784103,-0.0500654688954353,-0.2345921613372862,-0.0054220398887991,-0.0160348340868949,-0.0066784671507775,-0.5095728124905378,-9.728154555433989,-1.1286064089141783,50,standing
1783066266336935000,4.3836156,-0.2892237325718626,-0.0051665889829397,-0.2289507213842123,0.0534782037138938,0.0047288117930293,-0.0239022597670555,-0.5071475581049919,-9.728908588671684,-1.1231742277976124,50,standing
1783066266356861000,4.4035416,-0.264907037439011,0.0836819072932004,-0.045890229037404,0.0437704697251319,0.0630993321537971,-0.0316195338964462,-0.501087819674611,-9.73036930887401,-1.1132022843595593,50,standing
1783066266376785700,4.4234663,-0.1701643685577437,0.1646709222406149,-0.0914116247624158,0.0355389900505542,0.0368260033428669,-0.0271263774484395,-0.4946756510773673,-9.73145184341371,-1.1065870309382675,50,standing
1783066266396712000,4.4433926,-0.0873757933750748,0.1295592768490314,-0.1484820039838552,0.0412295646965503,-0.0253875106573104,-0.0262983627617359,-0.4894770960535853,-9.732552498131987,-1.0991962630998342,50,standing
1783066266416636700,4.4633173,-0.0606847703263163,0.0681324559837579,-0.0116799163997173,0.0140787623822689,-0.0326298549771308,0.005557918921113,-0.4874377722457051,-9.733374920430778,-1.0927951638858764,50,standing
1783066266436562700,4.4832433,-0.0606648235168308,0.0508773698002099,0.0292032981306314,-0.0556044802069664,0.0171271488070487,0.04281472787261,-0.4928446362579241,-9.732729608264563,-1.0961190476115792,50,standing
1783066266456487700,4.5031683,-0.2311763615444302,0.0914063640654087,-0.0451782083105295,-0.0898787230253219,0.0312585197389125,0.0318163819611072,-0.5001024253664538,-9.73061130093634,-1.1115205418176948,50,standing
1783066266476413700,4.5230943,-0.3282815948385745,0.0959521908015012,-0.2621504687398672,-0.0254282914102077,-0.0038342806510627,-0.007278065662831,-0.5019076846901327,-9.729022570440172,-1.124541570628062,50,standing
1783066266496339000,4.5430196,-0.2234302043970674,0.1345540163964033,-0.2458615972399711,0.0843621715903282,-0.0157077983021736,-0.0093621350824832,-0.4999178625797852,-9.729766082283854,-1.1189829866528511,50,standing
1783066266516264700,4.5629453,-0.1170064866049215,0.0236333890438079,-0.216853529420495,0.13141530752182,0.0058807265013456,0.0257678087800741,-0.5015954769358039,-9.73227075858116,-1.0962166627671568,50,standing
1783066266536189700,4.5828703,-0.1685814467478543,0.1157949553906917,-0.0756891549736261,0.085327960550785,0.0168990064412355,0.0436311215162277,-0.5089777692068368,-9.734350487464663,-1.0741261192511766,50,standing
1783066266556116000,4.6027966,-0.2096079056737944,0.1537999841362237,-0.0762783530384302,0.020559724420309,0.0048166164197027,0.0472969375550746,-0.5179301603388041,-9.734946115270256,-1.0644088812265544,50,standing
1783066266576041700,4.6227223,-0.2876413587512448,0.0747533354282379,-0.0714108931325376,0.0247974526137113,0.0078541915863752,0.0314768701791763,-0.5260877478312701,-9.734906952303648,-1.0607473630443214,50,standing
1783066266595966700,4.6426473,-0.3212804839048534,4.15010541677e-05,-0.1215789456196129,0.0476572103798389,-0.0035360327456146,0.0033760801889002,-0.5291102009249851,-9.7354651707083,-1.054123853251338,50,standing
1783066266615892700,4.6625733,-0.2660666192702949,-0.0312526318758726,-0.0950888519704341,0.0565820820629596,-0.0039777625352144,-0.014854185283184,-0.5282098180191591,-9.736641228750347,-1.0436531665109097,50,standing
1783066266635817700,4.6824983,-0.2243563427986577,0.0396206472486257,-0.0936906756103038,0.0672351494431495,-0.0076333237811923,-0.0211943481117486,-0.5250287037650123,-9.738082659730315,-1.031733303875476,50,standing
1783066266655743700,4.7024243,-0.1989197037251666,0.0660936436325311,-0.114022685021162,0.0847113281488418,-0.014896847307682,-0.0288651566952466,-0.520238656476885,-9.73986545149386,-1.0172375263374298,50,standing
1783066266675668700,4.7223493,-0.2379150952149182,0.041938276541233,-0.1137006134599447,0.0802948698401451,-0.0338320657610893,-0.030345793813467,-0.5149117988983168,-9.74189666506052,-1.0003511273358017,50,standing
1783066266695594800,4.7422754,-0.2223204165242612,0.1040612629771232,0.037369068929553,0.0527415610849857,0.0030751046724617,-0.0209071803838014,-0.5097068871989846,-9.743566059577464,-0.9866701002467424,50,standing
1783066266715519700,4.7622003,-0.1391955220593139,0.1125812540411949,-0.0444086121775209,0.0383775532245636,0.0113800577819347,0.0044983453117311,-0.5081368248706684,-9.744455701893568,-0.9786639039237052,50,standing
1783066266735445800,4.7821264,-0.1569125266661867,0.1539437765210866,-0.0767658442944288,0.0264177918434143,0.024211797863245,0.0163471437990665,-0.5101719108948484,-9.744966574025154,-0.9724925948776304,50,standing
1783066266755370800,4.8020514,-0.2786847298355773,0.2251315284222364,-0.0274399417199194,0.0268470384180545,0.0130983721464872,-5.93102886341e-05,-0.5118509500229731,-9.745376323869824,-0.967501143265888,50,standing
1783066266775296800,4.8219774,-0.2284707558475434,0.1582575480669736,-0.0307955357581377,0.0016767759807407,0.0054996465332806,0.007203550543636,-0.5119361075557768,-9.745688458558917,-0.9642940908528864,50,standing
1783066266795221800,4.8419024,-0.1029385060248896,0.0836462514579296,-0.0423719917833805,-0.0482366494834423,-0.0180281121283769,0.0398839600384235,-0.5164116090020164,-9.744998138207196,-0.9688789344251156,50,standing
1783066266815147800,4.8618284,-0.164958616608195,-0.0470475823789834,-0.0101491997011005,-0.0871955379843711,-0.0109075205400586,0.0473619736731052,-0.5260678375544027,-9.74314345025122,-0.982247388433665,50,standing
1783066266835072800,4.8817534,-0.2617900744622573,0.0259217922419309,-0.0884877001397311,-0.1063890606164932,-0.0076898811385035,0.0130738923326134,-0.5326359273657202,-9.740842187571523,-1.0013231141731145,50,standing
1783066266854998800,4.9016794,-0.2559775887912139,0.1607061102628707,-0.1203945581406354,-0.0816231742501258,-0.0070941760204732,-0.0050770840607583,-0.5332111699704081,-9.738859489321708,-1.020142892390117,50,standing
1783066266874923800,4.9216044,-0.1004082934275269,0.250757552587986,-0.2179592987053096,-0.0278993882238864,-0.0032981331460177,0.0180631689727306,-0.5342046745197847,-9.737780461913347,-1.0298684598516672,50,standing
1783066266894849800,4.9415304,-0.1343829341458156,0.0961632032036781,-0.2237706883978098,-0.0060848481953144,0.0279338769614696,0.0341164879500865,-0.5398840718630701,-9.737163791319729,-1.0327361973077058,50,standing
1783066266914775800,4.9614564,-0.1923916536632925,0.1508668532937765,-0.1654128266490996,-0.0229174811393022,0.0240798909217119,0.0325512662529945,-0.5457706456836313,-9.73650328158438,-1.035877929399535,50,standing
1783066266934700800,4.9813814,-0.1506186141537502,0.0994914708435535,-0.1640310169018805,0.0105844102799892,-0.0142913414165377,0.0349676348268985,-0.5526782331150025,-9.73585504680872,-1.0383075676992537,50,standing
1783066266954626800,5.0013074,-0.2047070914875715,0.0567032994747161,-0.1444359434634447,0.0426687896251678,-0.0124422293156385,0.0213433131575584,-0.5587438898295164,-9.736161336278917,-1.032164754095301,50,standing
1783066266974551600,5.0212322,-0.3295410203151405,0.00895195274055,-0.0329391236580908,0.0440416112542152,0.0296924039721488,0.003307111095637,-0.5611020703282207,-9.736893742206693,-1.023951052501425,50,standing
1783066266994477800,5.0411584,-0.2658268191650509,0.041819034075737,-0.0499228455543518,0.0222589634358882,0.0202264748513698,-0.0106373522430658,-0.558975616226159,-9.737587569689753,-1.0184895722251386,50,standing
1783066267014402800,5.0610834,-0.1587323990371078,0.0273205531239509,-0.1132984623998403,0.0319015756249427,-0.0145219452679157,0.0008856597705744,-0.5586303829850628,-9.73805284911394,-1.0142207357995212,50,standing
1783066267034328600,5.0810092,-0.245031174297817,0.0338297888875007,-0.1137245788574218,0.0536133162677288,-0.0094805276021361,-0.0048544681631028,-0.5591212352419271,-9.73887585593462,-1.0060141215335576,50,standing
1783066267054253800,5.1009344,-0.256023035368137,0.1085083055138587,-0.077906831023097,0.0523950606584548,-0.0172574836760759,-0.0253669433295726,-0.5575565797410905,-9.740082309114932,-0.9951444986034184,50,standing
1783066267074179600,5.1208602,-0.2150171443061903,0.1751765341639518,0.0176917240351438,0.0330733470618724,-0.0051717376336455,-0.0275184605270624,-0.5527733275199309,-9.741209267318249,-0.9867449190486222,50,standing
1783066267094104800,5.1407854,-0.1001705026162788,0.1377040048599243,-0.0036058424722403,0.0049245539121329,-0.007217560429126,-0.0051179756410419,-0.5495558633107692,-9.741744104847312,-0.983254154323414,50,standing
1783066267114030800,5.1607114,-0.0756254055550322,0.005928805527091,-0.035989012748003,-0.0079615777358412,-0.0306327622383832,0.0183817334473133,-0.552104488347657,-9.7415009437412,-0.9842402427513152,50,standing
1783066267133955800,5.1806364,-0.210082208654657,0.0570937600970268,-0.1088480588622391,0.007407116703689,-0.0668050274252891,-0.0042928722687065,-0.5551644969727844,-9.741341369265315,-0.9841048528686164,50,standing
1783066267153881900,5.2005625,-0.2860809775667265,0.006221650993824,-0.0381250018633902,0.0008396916091442,-0.0414691120386123,-0.0290762819349765,-0.5533861256560311,-9.741645320647956,-0.9821041075054556,50,standing
1783066267173806600,5.2204872,-0.2431453240185976,0.0945522608757019,-0.0536731379985809,-0.0063364091329276,-0.0463936440646648,-0.0314759351313114,-0.5475396646501496,-9.741987850475311,-0.9819685714922844,50,standing
1783066267193732900,5.2404135,-0.1549560953687876,0.05222001658082,-0.0606336246609687,-0.0123696224763989,-0.0298829358071088,-0.0046686916612088,-0.5444501742022112,-9.742003048044442,-0.9835375743746756,50,standing
1783066267213657900,5.2603385,-0.1769888442829251,0.1021335097849369,-0.1725233893066644,-0.0003639345522969,-0.0366810262203216,0.010803110897541,-0.5460599474864081,-9.741787943989038,-0.9847736189756542,50,standing
1783066267233583600,5.2802642,-0.2395961436370387,0.13804770373106,-0.1494295139670372,0.0130171179771423,-0.0381082147359848,0.0090835075825452,-0.5494429409882053,-9.741789113032818,-0.982877868356928,50,standing
1783066267253509000,5.3001896,-0.2901828964602202,0.1162783549934625,-0.0890196150593459,0.0266557894647121,-0.0215553790330886,-0.003215704113245,-0.5513790236173197,-9.742164960607886,-0.9780463565472512,50,standing
1783066267273435000,5.3201156,-0.2494885190328583,0.0503296727895736,-0.0846896230310201,0.0090157184749841,-0.028894742950797,-0.0181449186056852,-0.5498755602518096,-9.742656543517112,-0.9739959851779044,50,standing
1783066267293361000,5.3400416,-0.2110330796387046,0.0469616576611995,-0.0388677099894732,-0.0121432896703481,-0.0201432574540376,-0.0190941803157329,-0.5471805490141735,-9.742729608753322,-0.9747771256182344,50,standing
1783066267313286100,5.3599667,-0.1672236389307305,0.1513157661050558,-0.0940634544454514,-0.003870535409078,-0.0291952975094318,-0.0114413853734731,-0.5450512088352814,-9.742636085250972,-0.976892875663191,50,standing
1783066267333212000,5.3798926,-0.2205617728212848,0.0009077624946832,-0.0601860270239412,-0.0261037610471248,0.0027574868872761,-0.0129631096497178,-0.5445354413328692,-9.742466573902965,-0.9788976396143436,50,standing
1783066267353137000,5.3998176,-0.3420465008188039,0.0763040720015764,-0.0368735404975712,-0.0474875941872596,0.0075792912393808,-0.0425382778048515,-0.5394686594625935,-9.741996618303656,-0.9863486132074148,50,standing
1783066267373063200,5.4197438,-0.1914607660213485,0.1513286255866289,-0.1087387532688677,-0.0275203995406627,-0.0149104297161102,-0.032542984932661,-0.5317378094822168,-9.741603819593786,-0.9943898808438332,50,standing
1783066267392988000,5.4396686,-0.0460445062836632,0.1784802518844604,-0.2093744987767189,0.0033618109300732,-0.0454597547650337,0.0025937398895621,-0.5297609564512967,-9.741519648441672,-0.9962557477809488,50,standing
1783066267412914000,5.4595946,-0.1129481876574456,0.1503653335124254,-0.1557207230657339,0.0093012992292642,-0.037730623036623,0.0227828733623027,-0.5337856088574976,-9.741537184098362,-0.9939446943596004,50,standing
1783066267432839000,5.4795196,-0.2307688401894643,0.1239268239200115,-0.1191894201345741,-0.0079427035525441,-0.0270134303718805,0.0195279419422149,-0.5394160524925217,-9.741286424207686,-0.9933663830149918,50,standing
1783066267452765000,5.4994456,-0.2854233173755928,0.0712614016592502,-0.1079740525066852,-0.0334034450352191,-0.0045087789185345,0.0041574272327125,-0.5423717604929581,-9.740693719011544,-0.9975487102009356,50,standing
1783066267472690000,5.5193706,-0.2756466407813132,0.1179483340322971,-0.124136667278409,-0.0142131522297859,-0.0143603878095746,-0.0212344173341989,-0.5407759792014956,-9.740244806200264,-1.002784565027803,50,standing
1783066267492616000,5.5392966,-0.2198292207630351,0.0788426505684852,-0.1099455717753618,0.0043651843443512,0.0132881412282586,-0.0068772351369261,-0.5376363660015165,-9.740343590399622,-1.003507472474873,50,standing
1783066267512541000,5.5592216,-0.1338537957051769,0.156136318129301,-0.1309158060245215,0.0084466012194752,0.0041875778697431,0.0157190393656492,-0.5381685731820762,-9.74042366989851,-1.0024394779171797,50,standing
1783066267532467000,5.5791476,-0.1739789218772202,0.0500672224611043,-0.1639315020501613,0.0173084456473588,-0.0092016868293285,0.0178060941398143,-0.5426356721261516,-9.740448804339763,-0.999800142389536,50,standing
1783066267552392000,5.5990726,-0.3034150838032364,0.0511883354455232,-0.1403495509326457,0.0048227328807115,0.0181838478893041,-0.0116907935589551,-0.543683500678651,-9.740672091701626,-0.997045656049624,50,standing
1783066267572318000,5.6189986,-0.2847759959153831,0.0155927059292793,-0.0950982043206691,0.0017411884618923,0.0190620254725217,-0.0240288823843002,-0.5397271642683074,-9.740839849483969,-0.9975555783331392,50,standing
1783066267592243000,5.6389236,-0.1123932571884244,0.0460614939510822,-0.156229184044525,0.0071214670315384,0.022040931507945,0.0027433692011982,-0.5368843055251985,-9.741081257024408,-0.9967284798592329,50,standing
1783066267612169000,5.6588496,-0.0844276110939681,0.0678553926080465,-0.1313303781747818,0.020983699709177,-0.0032331873662769,0.0278296936303377,-0.5410575726218522,-9.741028650054336,-0.9949915730640292,50,standing
1783066267632094000,5.6787746,-0.2848000343780964,0.0428828639149665,-0.1381476569741964,0.0138370180502533,-0.0136943059042096,-0.0076242364011704,-0.5447907312681898,-9.741195238792896,-0.9913171223349868,50,standing
1783066267652020000,5.6987006,-0.451856646178849,0.0677156918764114,0.0381050550539046,-0.0181174203753471,0.0251820217818021,-0.0549288131296634,-0.5387441445803269,-9.74148691521585,-0.9917455768801272,50,standing
1783066267671946000,5.7186266,-0.2273102241681888,0.028006781822443,-0.0801157392442226,-0.0103762308135628,0.0035679843276739,-0.0494697354733943,-0.527611596397683,-9.741731829887629,-0.9953297920424492,50,standing
1783066267691871000,5.7385516,-0.0269343302853405,0.0812543878853321,-0.0982469506751745,0.0072941984981298,-0.0224050711840391,-0.0038646361790597,-0.5225348045900464,-9.74200713969767,-0.9953043653402476,50,standing
1783066267711797000,5.7584776,-0.0907869900580495,0.1782452740848064,-0.0742095839403569,0.0088058626279234,-0.0423734001815319,0.0187722835689783,-0.5255700806327164,-9.742032274138928,-0.9934543535593896,50,standing
1783066267731722000,5.7784026,-0.3190982810275629,0.1321621528238058,-0.0718611211180687,0.0108517184853553,-0.0538478791713714,-0.0061357491649687,-0.5294964602962136,-9.742038703879713,-0.991314053595066,50,standing
1783066267751648000,5.7983286,-0.3943593833148479,0.0577379032194614,-0.0867692057840526,0.0020372606813907,-0.0314024202525615,-0.0424645729362964,-0.5257621326060965,-9.742431502589582,-0.989424513521418,50,standing
1783066267771573000,5.8182536,-0.2592508017756044,0.0266945301800966,-0.050058454632759,-0.0272274166345596,-0.0077735222876071,-0.0372277349233627,-0.5176677100103348,-9.742664142301678,-0.9914194867309182,50,standing
1783066267791499000,5.8381796,-0.0788233248135075,0.0751823744952678,-0.1437608206808567,-0.0456760227680206,-0.0156942512840032,0.0045247082598507,-0.5147891588993371,-9.742070852583646,-0.99872235709019,50,standing
1783066267811424000,5.8581046,-0.1378731874143704,0.1239163025259971,-0.2231196040779352,-0.0075499769300222,-0.0571238845586776,0.0122233582660555,-0.5182876685395836,-9.741274733769894,-1.004656715575233,50,standing
1783066267831349800,5.8780304,-0.2185377196477726,0.1059440079838037,-0.2123240692973136,0.0362870208919048,-0.0512027107179164,0.0063614905811846,-0.5218690341576934,-9.741558226886392,-1.000039650233835,50,standing
1783066267851275000,5.8979556,-0.3402242172950878,0.0270925895869731,-0.0705347678851336,0.0196321085095405,-0.020267067477107,-0.0157909654080867,-0.52183805449754,-9.742163791564106,-0.994136490604654,50,standing
1783066267871201000,5.9178816,-0.2493357761565595,0.131678753221035,-0.1136937453277409,0.008292956277728,-0.0258079878985881,-0.0120608927682042,-0.5186045159364119,-9.74260393654704,-0.9915295229766518,50,standing
1783066267891126000,5.9378066,-0.2116878537530079,-0.0467442155182361,-0.1529876448400318,0.0056442990899086,-0.0248641707003116,0.0053739096038043,-0.5189927846016362,-9.74269862909317,-0.990393504684046,50,standing
1783066267911052000,5.9577326,-0.2565044987421482,0.1216875205606222,-0.1109644664943218,0.033864788711071,-0.0153611777350306,-0.0039551993831992,-0.5202644485052674,-9.742936529502272,-0.9873755451023578,50,standing
1783066267930976800,5.9776574,-0.2016204871164634,0.2388596095234155,-0.1849697600342333,0.0856980457901954,-0.036378551274538,-0.0123403314501047,-0.5193337069937959,-9.744140644595026,-0.975918623803556,50,standing
1783066267950903000,5.9975836,-0.1317372054100036,0.1137117193758487,-0.1596176574390381,0.1076747179031372,-0.0387616828083992,-0.0061088730581104,-0.5184380367957055,-9.746182964077592,-0.9557808948557824,50,standing
1783066267970828000,6.0175086,-0.1676514358887448,-0.0514659833431243,-0.0654728083204478,0.0541678220033645,-0.0145104052498936,-0.0141047481447458,-0.517389477590844,-9.747851189550756,-0.9391941363878548,50,standing
1783066267990753800,6.0374344,-0.2536355557097122,-0.0575543633460998,0.0097294399190694,-0.0222954750061035,-0.0135521469637751,-0.0432406030595302,-0.5122097368653863,-9.748346864113213,-0.9368840328145772,50,standing
1783066268010679000,6.0573596,-0.1472301407592371,0.1082499468386173,-0.010732990938425,-0.0299667455255985,-0.0201301909983158,-0.0394884198904037,-0.5035437979919836,-9.748203656250238,-0.9430571684915572,50,standing
1783066268030605000,6.0772856,0.0492116285450756,0.1812538082510232,-0.1587123060971498,0.0272162221372127,-0.0635205656290054,0.0268516261130571,-0.5030624076832085,-9.748184367027878,-0.9435181370668112,50,standing
1783066268050530000,6.0972106,-0.0611385785084217,0.0943120223790407,-0.196742323153466,0.0543161630630493,-0.0954843461513519,0.0462528690695762,-0.5133202188579365,-9.74862977270782,-0.9333207143098116,50,standing
1783066268070456000,6.1171366,-0.4546352440467104,0.0289022693574428,0.0502718051224947,0.0040667494758963,-0.0333018936216831,-0.0135327661409974,-0.5184580201378092,-9.749061734384298,-0.9259510623246432,50,standing
1783066268090381800,6.1370624,-0.4290161245457828,0.0279635272026062,0.0651934799224138,-0.0490145981311798,-0.0047520236112177,-0.0629787147045135,-0.5104087153254077,-9.74902081785202,-0.9308474560640752,50,standing
1783066268110307000,6.1569876,-0.1250407399786636,0.0265852245867252,-0.0617618980385363,-0.0506397970020771,-0.023531312122941,-0.0444289930164814,-0.499247525570169,-9.748541509902475,-0.9418578026391564,50,standing
1783066268130233000,6.1769136,0.0340741921026259,0.1911082627892494,-0.1891892774254083,0.0201316103339195,-0.0713869556784629,0.0006299157394096,-0.4958558007726446,-9.74846201492548,-0.9444649894628672,50,standing
1783066268150157800,6.1968384,-0.0867196675539016,0.1794914747536182,-0.1604537429369986,0.0464910827577114,-0.0696151107549667,0.0172413270920515,-0.4997102477110922,-9.749116679441928,-0.9356421429947018,50,standing
1783066268170084000,6.2167646,-0.3413001759635284,0.1186246258586645,-0.0218593651086091,-0.0032639380078762,-0.017596635967493,-0.0034622482489794,-0.5020573953591286,-9.74945044144094,-0.9308829657688736,50,standing
1783066268190008800,6.2366894,-0.2922285038784146,0.0549327826708555,-0.095963881239295,-0.0514040924608707,-0.0153396595269441,-0.0206285007297992,-0.4992047458743676,-9.74905530464351,-0.9365355116378516,50,standing
1783066268209934800,6.2566154,-0.1713839734805747,-0.0423076943755149,-0.1146207970447838,-0.0530336126685142,-0.0105248605832457,0.0005135664250701,-0.4973466238522901,-9.748032975858449,-0.948105610987544,50,standing
1783066268229860000,6.2765406,-0.1552087914882227,0.0612152239412069,-0.2211912663638591,0.0170145779848098,-0.0497296638786792,0.0081000514328479,-0.4990067390842363,-9.747556590518355,-0.9521169655207544,50,standing
1783066268249785900,6.2964665,-0.2715119521293789,0.1596697529524564,-0.136567840436846,0.0664791166782379,-0.0287714637815952,-0.0017228974029421,-0.5004684091346339,-9.748448570922015,-0.9421694258715956,50,standing
1783066268269710000,6.3163906,-0.2977702097840607,0.1800549538552761,-0.021219898161292,0.0433449149131774,-0.0036886055022478,-0.0120890662074089,-0.4991996313078328,-9.749678989499806,-0.9300261297438294,50,standing
1783066268289636000,6.3363166,-0.2687366056645289,0.0435270070374012,0.0425572852224111,-0.0298910941928625,-0.0153944063931703,-0.0151460282504558,-0.4966596279688179,-9.749919812518357,-0.9288611045524476,50,standing
1783066268309561000,6.3562416,-0.2095187660856172,0.010410334855318,0.0692840371716767,-0.062171820551157,-0.0370223559439182,-0.0119530744850635,-0.4940772467928007,-9.749124278226494,-0.938529096607864,50,standing
1783066268329487000,6.3761676,-0.1211443535946309,0.0525496869266033,-0.0274475405044853,-0.0267606545239686,-0.056279893964529,-0.0053026936948299,-0.4932678666386753,-9.748319391584396,-0.9472919565171004,50,standing
1783066268349412000,6.3960926,-0.151387260438688,0.0354401466935873,-0.0758802936315536,-0.0028577703051269,-0.048529215157032,-0.0057054846547544,-0.4934013202926143,-9.748117731532457,-0.9492872219875454,50,standing
1783066268369338000,6.4160186,-0.2279958318121731,0.1521662454545498,-0.1091857663840055,6.73215836286e-05,-0.0568645037710666,-0.0286907777190208,-0.4910127811882644,-9.74827613696456,-0.9489014375403524,50,standing
1783066268389263000,6.4359436,-0.1087350269418209,0.1161070900797843,-0.1613245344221592,0.0076379608362913,-0.0702213793992996,-0.0107123479247093,-0.4877203520467504,-9.748578919303416,-0.9474901825029404,50,standing
1783066268409188900,6.4558695,-0.0605484305955469,0.0570960981845855,-0.2126478944242,0.0313642770051956,-0.0876318514347076,0.0055528585799038,-0.4893698362868279,-9.748974056100844,-0.9425546988621354,50,standing
1783066268429114000,6.4757946,-0.2150958355655893,-0.0410743531882762,-0.1313134270399809,0.0166938602924346,-0.0399977453052997,-0.0046079088933765,-0.4916424573939293,-9.74941478560567,-0.936799788597226,50,standing
1783066268449040100,6.4957207,-0.3463915808184072,0.0439858567208051,-0.0724310299605131,0.0029391127172857,-0.024838950484991,-0.0460039377212524,-0.487089799058251,-9.749780111786723,-0.9353783044267444,50,standing
1783066268468966000,6.5156466,-0.1990444991486147,0.0823264010310173,-0.1715443151414394,0.0474185757339,-0.06580101698637,-0.0486265048384666,-0.4779160933258011,-9.750711255156991,-0.9303870720107108,50,standing
1783066268488891100,6.5355717,-0.0784745479084551,0.0692640903621912,-0.1684755021553486,0.0823746398091316,-0.0854155197739601,-0.0205094330012798,-0.472790274744667,-9.752312845134735,-0.9160979229606688,50,standing
1783066268508817200,6.5554978,-0.2612377378091216,-0.0131909054845571,-0.0326999811399728,0.0341251380741596,-0.0406778268516063,-0.0288301650434732,-0.4700413778953254,-9.753656660959123,-0.9031335927736014,50,standing
1783066268528742100,6.5754227,-0.3477171303337439,0.1565694488495588,0.0440261887311935,-0.0121602984145283,-0.016979519277811,-0.055462822318077,-0.4621214716162532,-9.754176300919056,-0.9015994420088828,50,standing
1783066268548668200,6.5953488,-0.1399707076828926,0.0851502262800932,-0.0413771355271339,-0.0303622614592313,-0.0214281156659126,-0.0237496849149465,-0.4543899640487506,-9.754133630821109,-0.9059786800064146,50,standing
1783066268568593200,6.6152738,-0.0684581808067858,0.1049281089395284,-0.104657986761257,-0.0314920768141746,-0.0730998069047927,0.0056795286945998,-0.4537769832495599,-9.753560214847326,-0.9124284406676888,50,standing
1783066268588519200,6.6351998,-0.1946411130905151,0.1092804589301347,-0.040103535394743,-0.021713750436902,-0.0613633878529071,0.0054408377036452,-0.4571803984848782,-9.75297627747953,-0.9169787243831902,50,standing
1783066268608444000,6.6551246,-0.4082328642360865,0.0785802002400159,-0.0224473941296339,-0.0183156840503215,-0.0446621663868427,-0.0436722449958324,-0.4548769438480958,-9.752801505434512,-0.9199704535450786,50,standing
1783066268628370000,6.6750506,-0.3954443655399605,0.0623924510270357,-0.0383921283669769,-0.0185065753757953,-0.0396930500864982,-0.0854740366339683,-0.4423767971066757,-9.753074477156996,-0.9231791133932769,50,standing
1783066268648295200,6.6949758,-0.1625871382365003,0.0924777926892042,-0.0966642845936119,-0.0162892639636993,-0.0634621977806091,-0.0577249862253665,-0.4286309611530974,-9.753381935670973,-0.9264080123119056,50,standing
1783066268668221000,6.7149016,0.0008450359893962,0.0509317303359508,-0.1560287661015987,-0.01980996504426,-0.0762096866965293,0.0058836946263909,-0.425217426382564,-9.753284320515396,-0.9289938640866428,50,standing
1783066268688146200,6.7348268,-0.1364391360232606,0.0642629210740327,-0.1666822620630264,-0.0106757152825593,-0.1027169227600097,0.0103367567062377,-0.4293404976619407,-9.752848851707578,-0.9316576034031808,50,standing
1783066268708072200,6.7547528,-0.2555383936563506,0.1118839194267988,-0.0812929663300514,-0.0060396632179617,-0.0492884293198585,-0.010665163397789,-0.4320463956197723,-9.75273545446098,-0.9316035351283848,50,standing
1783066268727997200,6.7746778,-0.3814816354326903,0.0321241540133953,-0.0729097533881664,-0.0211987141519784,-0.0099114011973142,-0.0528687685728073,-0.4265614614026621,-9.75273253185153,-0.9341515391107648,50,standing
1783066268747923200,6.7946038,-0.1718930555138736,0.1015109939724207,-0.0855232973761856,-0.0479761585593223,-0.0167339146137237,-0.0462788715958595,-0.4161828368598595,-9.752539055106045,-0.9408410998772828,50,standing
1783066268767848000,6.8145286,-0.0206226263878867,0.0883849704176187,-0.2214811161559075,-0.0184164214879274,-0.085972785949707,-6.2175095081e-06,-0.4124284162297845,-9.751980836701392,-0.948235886303708,50,standing
1783066268787774200,6.8344548,-0.065118003533408,0.1582043565750122,-0.2124636238984763,0.0530992895364761,-0.1099955886602401,0.0285005439072847,-0.4173137040533125,-9.752218737110494,-0.9436359912928192,50,standing
1783066268807699200,6.8543798,-0.3433355542486533,0.1265671092957258,-0.0866547856241464,0.0750631093978881,-0.0530146658420562,0.0021675846073776,-0.4231083618067204,-9.753352709576488,-0.9292350524313748,50,standing
1783066268827625000,6.8743056,-0.5161818188341334,0.0935311011344194,-0.0078074588805437,0.007403690367937,0.0032268245704472,-0.049998365342617,-0.418454800379835,-9.754434075072409,-0.9199456844300032,50,standing
1783066268847550200,6.8942308,-0.3165221834618598,0.1234288112699985,0.0228002992205321,-0.0466864928603172,-0.0234060380607843,-0.0398323982954025,-0.4086217539558187,-9.754405433499812,-0.9246659909501672,50,standing
1783066268867476000,6.9141566,-0.0600010989110916,0.0287479555785655,-0.1472760622601956,-0.0067106005735695,-0.1091791540384292,-0.0007469609263353,-0.4056710509240627,-9.753994514611362,-0.9302643224138766,50,standing
1783066268887402000,6.9340826,-0.0693394571533426,0.0672884063750505,-0.0258761264692991,0.0260548721998929,-0.0994392335414886,0.033709917217493,-0.4117453293364495,-9.754078101241587,-0.9267164937391876,50,standing
1783066268907327200,6.9540078,-0.2793175113137811,0.1097737954050302,0.0032763182569295,0.0112741682678461,-0.0618974789977073,0.0120966732501983,-0.4188915843619033,-9.754216048407557,-0.9220509130809456,50,standing
1783066268927253000,6.9739336,-0.3708883452259003,0.1154816516578197,-0.0043119449149817,-0.0251422524452209,-0.0456628017127513,-0.0276864916086196,-0.4181507759319618,-9.754088038113712,-0.9237405466683208,50,standing
1783066268947178200,6.9938588,-0.1481970130300149,0.1666495288372039,-0.1470107623875141,-0.0046308152377605,-0.0853713005781173,-0.013295623473823,-0.4147396157816052,-9.753930801725389,-0.9269385389920324,50,standing
1783066268967104300,7.0137849,-0.0306861205669119,0.0738689538091421,-0.1516302388817071,0.0235097594559192,-0.0912759080529213,0.0172544736415147,-0.4176279941668733,-9.75407517863214,-0.9241147868081928,50,standing
1783066268987029000,7.0337096,-0.1951218458121642,0.0702607001841068,-0.0397580098927021,0.0064209131523966,-0.0753198564052581,0.005624989978969,-0.4228815307809039,-9.7542078651011,-0.9203164905037732,50,standing
1783066269006955300,7.0536359,-0.3580672229018062,0.087573069512844,0.041384807376936,-0.0250241830945014,-0.0573511943221092,-0.032361339777708,-0.4212453444138169,-9.754161687871813,-0.9215531196266412,50,standing
1783066269026880000,7.0735606,-0.3020700624024495,0.0078857848137617,0.0025543606579303,-0.0476271286606788,-0.0737821236252784,-0.0414503961801528,-0.414694132672064,-9.753782917687296,-0.92851185272336,50,standing
1783066269046806000,7.0934866,-0.1836146921634674,-0.082779990017414,-0.0774514884710311,-0.0461868345737457,-0.0919743925333023,-0.0310467071831226,-0.4090998928615823,-9.75319839579761,-0.9370916842158884,50,standing
1783066269066731000,7.1134116,-0.157617204336822,0.0259451731175184,-0.1258240358434617,-0.0425367765128612,-0.102521114051342,-0.0154030630365014,-0.406666162908636,-9.752537886062264,-0.9449821452047676,50,standing
1783066269086657000,7.1333376,-0.1964875081421807,0.1157984625220298,-0.1592271968167275,-0.0182629525661468,-0.1166334301233291,-0.0137791326269507,-0.4068512736845761,-9.752010647317766,-0.9503355619966984,50,standing
1783066269106582300,7.1532629,-0.2721985826866701,0.1387497145205736,-0.1133634904600679,0.0046961605548858,-0.0890414789319038,-0.0232796929776668,-0.4056598354103043,-9.752069099506736,-0.9502610354557632,50,standing
1783066269126508000,7.1731886,-0.2778336294315755,0.138595985263586,-0.1259194590419531,0.0154136093333363,-0.0739435330033302,-0.0304102413356304,-0.4012219260280951,-9.752512751621008,-0.9475811487220228,50,standing
1783066269146433000,7.1931136,-0.1340179367583245,0.1302992815613746,-0.1319992173470556,0.0156944096088409,-0.0760623663663864,-0.0023151780478656,-0.3988416798280552,-9.75289619798064,-0.9446435609001664,50,standing
1783066269166359300,7.2130399,-0.1504263429846614,0.0672317077517509,-0.1628472139447927,0.0215715132653713,-0.0689140111207962,0.0203854814171791,-0.4024846394402906,-9.75312416151762,-0.9407304060444236,50,standing
1783066269186284000,7.2329646,-0.3542900059180334,0.0452671287029981,-0.1507378200866282,0.0323428809642791,-0.0679574534296989,-0.01175173278898,-0.4051210158258676,-9.753605807554722,-0.934583793048188,50,standing
1783066269206210000,7.2528906,-0.4239390770098194,0.0369949749201536,-0.0361271060444414,0.0191787332296371,-0.0530192591249942,-0.0500847324728965,-0.3998160412855446,-9.754312494519352,-0.9294846432782709,50,standing
1783066269226135000,7.2728156,-0.266234048259072,0.0257978736013174,-0.1146428627461195,0.0272845420986413,-0.0529993399977684,-0.0377863049507141,-0.3918720965437591,-9.755085232457516,-0.9247402252301572,50,standing
1783066269246061000,7.2927416,-0.1770281533800065,0.1151601646184921,-0.0972942530602216,0.0352115482091903,-0.0577589683234691,-0.01094626262784,-0.3880035480147227,-9.755862062048912,-0.9181463799230754,50,standing
1783066269265986800,7.3126674,-0.2034551917303353,0.1542892289578914,-0.1003384430617094,0.043377611786127,-0.0531479567289352,0.0158728156238794,-0.3895586685022339,-9.75653426222205,-0.9103139327317477,50,standing
1783066269285913000,7.3325936,-0.2371967908777296,0.1685632535040378,-0.0857832634866237,0.0633988156914711,-0.0909702107310295,0.0177421532571315,-0.3942737873906269,-9.75734090242982,-0.8995806495323777,50,standing
1783066269305837800,7.3525184,-0.2931202650863677,0.0176069683611392,-0.0753781162630766,0.05399901419878,-0.0905868932604789,-0.0049652960151433,-0.3976069138687104,-9.758415838184952,-0.8863424708399921,50,standing
1783066269325763800,7.3724444,-0.43534010340292,-0.037193712362647,0.1252542731314897,0.0137969814240932,-0.0626783147454261,-0.0581274218857288,-0.3930537806089967,-9.759280930581689,-0.8788293917961418,50,standing
1783066269345690000,7.3923706,-0.2425304435232654,0.0912766002058982,0.0310738412428647,-0.0003849181812256,-0.0757600665092468,-0.0535713732242584,-0.382206552173756,-9.759810507413745,-0.8777232571851462,50,standing
1783066269365614800,7.4122954,-0.0578462954973801,-0.0350789121657609,-0.0890185190808028,0.0123101025819778,-0.1175629049539566,-0.0042225900106132,-0.379394819221273,-9.760047823300956,-0.8762936627734452,50,standing
1783066269385540900,7.4322215,-0.0924351225912571,0.0831669435083866,-0.0044580753874033,-0.0119198868051171,-0.1081892624497413,0.0166614763438701,-0.3826643789438531,-9.76008055652678,-0.8745132821626961,50,standing
1783066269405466000,7.4521466,-0.2726877179104834,0.0223638074994087,0.0855816034346819,-0.0618401169776916,-0.0461865477263927,-0.0001057453919202,-0.3866155642550438,-9.759282684147358,-0.881653655436635,50,standing
1783066269425391900,7.4720725,-0.2608797546843067,0.1416588799655437,-0.0549841475319117,-0.0879387557506561,-0.0671527460217475,-0.0533030331134796,-0.3816639331970363,-9.758118901064991,-0.8965612286459654,50,standing
1783066269445317000,7.4919976,-0.103361809470877,0.193298466309905,-0.0370972662508487,-0.087236687541008,-0.0693284943699836,-0.0214431770145893,-0.375029755879566,-9.756787360200285,-0.9136999219082296,50,standing
1783066269465243000,7.5119236,0.0056767304621636,0.1770171935945749,-0.1665126045845449,-0.0289861168712377,-0.1221094951033592,0.0250091310590505,-0.3778254144800826,-9.755618316420913,-0.924943565782532,50,standing
1783066269485167900,7.5318485,-0.0148525916190817,0.1557277373284101,-0.1143341621231287,-0.0049262656830251,-0.1224396750330925,0.0363332070410251,-0.3866249531378969,-9.755278709203004,-0.9248992882493884,50,standing
1783066269505094100,7.5517747,-0.2767297233102843,0.0709381610542535,0.0248206260669976,-0.0814008116722107,-0.0353904105722904,0.0096928970888257,-0.3936465954029932,-9.754286191034316,-0.932372692869976,50,standing
1783066269525019000,7.5716996,-0.2752144964417442,0.1452197873175144,-0.0430984063617885,-0.1265133470296859,-0.0167966652661561,-0.0370265357196331,-0.3908225509582087,-9.752401692461968,-0.9530385373450816,50,standing
1783066269544945000,7.5916256,-0.1628682202002033,0.0220236157596111,-0.273075036727637,-0.1203598454594612,-0.0368883535265922,-0.0445675402879715,-0.3827102639121934,-9.750262342345714,-0.9778950384430588,50,standing
1783066269564870000,7.6115506,-0.0595797682264819,-0.0014776713371276,-0.2088673529721796,-0.0738321170210838,-0.0002354874741286,-0.0307776350528001,-0.3757162037737667,-9.74861048348546,-0.996912604254484,50,standing
1783066269584796000,7.6314766,-0.0940021892448887,0.0585942277878522,-0.1957242321521043,-0.0211050789803266,0.0276943240314722,-0.0401675254106521,-0.3686771354498341,-9.747928346440196,-1.0061645628549158,50,standing
1783066269604721200,7.6514018,-0.1763974177284166,0.1224181729227304,-0.1730688943602144,-0.0093101318925619,0.0341080874204635,-0.0733942985534668,-0.3578087911613285,-9.748157479020952,-1.007870855316147,50,standing
1783066269624647000,7.6713276,-0.2606086095927283,0.0665220981776714,0.0053450142897665,-0.0513782054185867,0.0904019996523857,-0.1106811165809631,-0.3388395580036565,-9.748223529994489,-1.0137530452225356,50,standing
1783066269644572000,7.6912526,-0.1174435263153165,0.122094347795844,-0.0521556461077183,-0.082963116466999,0.0976315960288047,-0.1123181506991386,-0.3147098733428865,-9.747532625120876,-1.028077703977376,50,standing
1783066269664498000,7.7111786,0.0008310622629709,0.1109048452615737,-0.0688052406787872,-0.0698228552937507,0.1401035189628601,-0.0885851383209228,-0.2927740454645827,-9.74651906416416,-1.0440498376782985,50,standing
1783066269684423000,7.7311036,-0.0071935099669732,0.1335796184062957,-0.1800449439179152,-0.0532609522342681,0.1143264845013618,-0.0670335963368415,-0.2745740248474292,-9.74570014899671,-1.056559921291843,50,standing
1783066269704349000,7.7510296,-0.0464016308919526,0.0781096601188182,-0.0916366656899452,-0.0421278029680252,0.0964705944061279,-0.0527928434312343,-0.2611035717691294,-9.744998138207196,-1.0664088228721171,50,standing
1783066269724274000,7.7709546,-0.0319018712985329,0.0953401963829994,-0.3073556381225585,-0.0552366822957992,0.0424044281244277,-0.0233952738344669,-0.2522599017086439,-9.744122524416444,-1.0764927022520452,50,standing
1783066269744200000,7.7908806,0.0376528725733049,0.0962649100124835,-0.2684511763192713,-0.0515477955341339,-0.0311966799199581,0.0042551811784505,-0.2505872375223785,-9.742953480637071,-1.0874150782827288,50,standing
1783066269764125000,7.8108056,-0.0766027626872062,0.0774158326357603,-0.0603847644664347,-0.0600364990532398,-0.0099891377612948,0.0156673677265644,-0.2528992773244157,-9.741761640504002,-1.097511159557104,50,standing
1783066269784051000,7.8307316,-0.115258912285231,0.0165460611313581,-0.1073632271319627,-0.0601162537932395,0.0013854972785338,0.0335499495267868,-0.2576380693493411,-9.740296828648448,-1.1093401290386915,50,standing
1783066269803977000,7.8506576,-0.1181667442896403,-0.0585509731680154,-0.26652795317173,-0.0550247617065906,-0.0340145155787467,0.0443198271095752,-0.2658032556263729,-9.73882149539888,-1.1203132123433053,50,standing
1783066269823902000,7.8705826,-0.0852617968957871,0.0118915133237838,-0.2059556302439421,-0.0535943135619163,-0.0899359062314033,0.0417885929346084,-0.2768610580723732,-9.73728770996034,-1.1309065756153314,50,standing
1783066269843828000,7.8905086,-0.0320972660064697,0.1294511402994394,-0.1706803917884826,-0.0206971354782581,-0.1341967582702636,0.0628546103835105,-0.2897732196807861,-9.736185301676391,-1.1371521920066323,50,standing
