time,seconds_elapsed,acc_x,acc_y,acc_z,gyr_x,gyr_y,gyr_z,grav_x,grav_y,grav_z,fs_hz,activity
1783068639946703400,0.0,-0.0185949405021616,0.0038276776625309,0.0306441445887088,-0.0012756870128214,0.0007916032336652,0.0001706858747638,0.0094670455311716,0.0588704783128108,-9.806468798214196,100,standing
1783068639956665600,0.0099622,-0.0090370805906015,0.002605716385832,0.0197205995142459,0.0017712195403873,-0.001339093549177,0.0006649114075116,0.0094859945435251,0.0588953387594316,-9.806468798214196,100,standing
1783068639966627300,0.0199239,-0.0009189814333745,-0.0009268736205296,0.0361819049715995,0.0023717624135315,-0.00010445213411,0.0034353979863226,0.0094483248476812,0.0586869886717991,-9.806469967257977,100,standing
1783068639976589600,0.0298862,0.0157601577509427,-0.0067502140457276,0.0328898776888847,-0.0032516594510525,-0.0011344465892761,-0.0008190863300114,0.0093789585390535,0.0586744671169435,-9.806469967257977,100,standing
1783068639986552600,0.0398492,0.0212488365614088,-0.0084415053006494,0.0295978504061698,-0.0028745557647198,0.0016360399313271,-0.0004720764700323,0.0092772357472276,0.0587197401639306,-9.806469967257977,100,standing
1783068639996514600,0.0498112,0.0106283638034597,-0.0043383442981401,0.0297480725318193,0.0010001820046454,0.0017484651179984,-0.0008374963072128,0.009273437496589,0.0586567898963578,-9.806469967257977,100,standing
1783068640006476300,0.0597729,0.0196351154711679,0.0027626605132129,0.0342372006446123,0.0001069577410817,0.0006235458422452,0.0008309740805998,0.0092449414836446,0.0585887615948682,-9.806470551779864,100,standing
1783068640016438500,0.0697351,0.0068833360519929,-0.0045888210610253,0.0264560452491045,-0.0011274069547653,0.0003432066878303,-0.0012399806873872,0.0092775245832395,0.0586079960183007,-9.806470551779864,100,standing
1783068640026400500,0.0796971,0.0034477789626078,0.0015056370562873,0.0183744456022977,-0.0034265141002833,-0.0005036785732954,-0.0012293281033635,0.0091217797532124,0.0587983172588981,-9.806469382736086,100,standing
1783068640036363300,0.0896599,0.0060567804299585,0.0063816912605892,0.0294476282805204,-0.0012629700358957,0.0017911901231855,-0.0001650815247558,0.0092062540118931,0.0588602948455139,-9.806468798214196,100,standing
1783068640046325500,0.0996221,0.002492240365775,0.0014522309351945,0.0236117617338895,0.0012768866727128,0.0017171542858704,-0.0010769478976726,0.009329129189602,0.0588517142468364,-9.806468798214196,100,standing
1783068640056287500,0.1095841,-0.0051494511892931,0.0039586881976341,0.0312426950037479,0.0011894564377143,0.0020503071136772,0.0006626397953368,0.0094889422691485,0.0588891053814673,-9.806468798214196,100,standing
1783068640066249500,0.1195461,-0.0129991914378944,0.0001816995427245,0.0258551567465066,-0.0023405633401125,0.0005597357521764,-0.0006673427997156,0.0097071641551796,0.0589251539423828,-9.806468213692307,100,standing
1783068640076211500,0.1295081,-0.0163245090688578,-0.0013795447248965,0.0364788420915603,-0.0027225001249462,0.0011096742236986,-5.76071906834e-05,0.0098900921071879,0.058990017605829,-9.806467629170417,100,standing
1783068640086173400,0.13947,-0.0101609769038623,-0.0027446499324869,0.0301928936898708,0.0011960751144215,0.0018367171287536,-0.0017830692231655,0.0100113381584582,0.0591580219833413,-9.806466460126638,100,standing
1783068640096136400,0.149433,-0.0231715619520284,-0.0072045108516002,0.0258539877027273,9.44419298321e-05,-0.0011043464764952,-0.0011094335932284,0.0100034516795247,0.0591287593562388,-9.806466460126638,100,standing
1783068640106098400,0.159395,-0.00532833943289,0.0133940999064594,0.0423135395944118,0.0011123020667582,0.0004911532741971,0.002098876517266,0.0099671062910871,0.0591801379170268,-9.806466460126638,100,standing
1783068640116060400,0.169357,-0.0011102399639552,-0.0072498843632871,0.0255541279733181,-0.0004516365006566,0.0008023398113436,0.0026379255577921,0.0099388574441371,0.059174137434503,-9.806466460126638,100,standing
1783068640126022700,0.1793193,-0.0013688635006779,-0.0037691980740986,0.0358802916765213,0.0038280633743852,0.0021016960963606,0.0012562777847051,0.0100478433771,0.0589854784280294,-9.806467629170417,100,standing
1783068640135984400,0.189281,0.0093167491986416,0.005865471667028,0.0571300004541873,0.0011349259875714,3.84803861379e-05,0.0020558233372867,0.0101361392901279,0.0587779731571907,-9.806468798214196,100,standing
1783068640145946600,0.1992432,0.0165240593621041,-0.0016191119347,0.0260059633940458,0.0002552838996052,-0.000541822402738,-0.0020281341858208,0.0101114329654898,0.0586310389671707,-9.806469382736086,100,standing
1783068640155909600,0.2092062,0.005167302510637,-0.0031177027622703,0.0016162030249834,0.0011436697095632,-0.0035687391646206,0.0005001841927878,0.0099460966107435,0.0584836161533836,-9.806470551779864,100,standing
1783068640165867800,0.2191644,0.0096931082303635,-0.0018782697609625,0.0340893166065216,0.0002120959106832,-0.0002046340378001,-0.001680678455159,0.0097597802584059,0.0582916418118169,-9.806471720823644,100,standing
1783068640175829800,0.2291264,0.0099106359966506,-0.0059064018990378,0.0415711967945098,0.0001085076946765,-0.0023874039761722,-0.001185976085253,0.0095422524921188,0.0582795632149558,-9.806472305345537,100,standing
1783068640185791700,0.2390883,-0.0022903810969,0.0011568007857305,0.0209206229537725,-4.11618966609e-05,-0.0001426255330443,0.0006793018546886,0.0094729866481909,0.0583989655106561,-9.806471720823644,100,standing
1783068640195753700,0.2490503,-0.0058039444590947,0.0029536073748953,0.0269072961479425,0.002262917580083,0.0007011268171481,-0.001672378508374,0.009395246378507,0.0582481725628487,-9.806472305345537,100,standing
1783068640205715700,0.2590123,-0.012244251734612,-0.0001179135915124,0.0297515796631574,0.0021603857167065,-0.0004046176327392,-0.0010806241771206,0.0094011384048208,0.0580276662465417,-9.806474058911204,100,standing
1783068640215678700,0.2689753,-0.0217579048949759,-0.0053785421000327,0.0420206941276788,-0.0002163532190024,-0.0012484815670177,0.0007863037171773,0.0093379820704489,0.05820061622723,-9.806472889867424,100,standing
1783068640225640700,0.2789373,-0.0111391377536347,0.0003172857882454,0.043816345372796,0.0010811388492584,0.0085066771134734,0.0023280074819922,0.0094931246830994,0.0581910172818228,-9.806472889867424,100,standing
1783068640235602700,0.2888993,-0.0151202935114037,0.0066370268616825,0.0483043044418096,-0.0014104503206908,-0.0002431091852486,-0.0014977630926296,0.0100326149835716,0.0583056931700557,-9.806471720823644,100,standing
1783068640245564700,0.2988613,-0.0121265539138752,-0.0107348312690621,-0.0027221184402704,0.0016005196375772,0.0019028659444302,0.0018106817733496,0.0101812639233539,0.0583195892646675,-9.806471136301756,100,standing
1783068640255526700,0.3088233,0.0091244780295528,0.00081150817913,0.0022159224838018,-0.0011813577730208,-0.0058833733201026,0.0003545603831298,0.0100291352516971,0.0582953453059773,-9.806471720823644,100,standing
1783068640265490000,0.3187866,0.0065284941615129,0.0052874160507461,0.0222667768657207,-0.0019640608225017,-0.0020606718026101,0.0004483037046156,0.0097820046483015,0.058458203150914,-9.806471136301756,100,standing
1783068640275451600,0.3287482,0.0033617874586314,-0.009499088062183,0.0313940861731767,-0.0045984075404703,-0.0029186883475631,0.001310309395194,0.0095070470355305,0.0585802220953861,-9.806470551779864,100,standing
1783068640285413600,0.3387102,0.078325321296649,-0.0157511113613843,-0.0817407100975513,-0.0482524111866951,-0.1329347342252731,-0.0028383629396557,0.0036760841366471,0.060642392489314,-9.80646178395152,100,standing
1783068640295376000,0.3486726,0.1455428269931115,-0.0701428870572941,-0.401103012356162,0.0099577102810144,0.0050255293026566,-0.0009816172532737,-0.0102704286277061,0.0655041213407414,-9.80642612811625,100,standing
1783068640305337600,0.3586342,-0.1791092522366903,0.0729134112165542,0.6325906318068504,0.0003168012481182,-0.003861438948661,0.001440793974325,-0.0110801444252603,0.0658006474687485,-9.8064232055068,100,standing
1783068640315299800,0.3685964,-0.0069993984672473,-0.0039220003159018,0.0508043045639991,0.001860401360318,0.0036236173473298,0.0004120409139432,-0.0102089248234813,0.0652734132908284,-9.80642729716003,100,standing
1783068640325262800,0.3785594,-0.0039452504732151,0.0045713858690345,0.0030722470521926,-0.0006554869469255,0.0045836865901947,0.0018855677917599,-0.0095221327235194,0.0650100953126791,-9.806429635247587,100,standing
1783068640335224600,0.3885212,-0.0238025441987905,-0.0167530092797707,0.0210293440252542,0.003335210494697,0.0032490068115293,0.0022508208639919,-0.0092673662321176,0.0649363176904153,-9.806430804291368,100,standing
1783068640345186800,0.3984834,-0.0427212253461591,0.0049876248199958,0.0847819774895906,0.0193650443106889,0.0504716448485851,0.0004686332540586,-0.0072577354512468,0.0641449481170158,-9.806437818554045,100,standing
1783068640355148800,0.4084454,-0.11666945493659,0.0511383451242232,0.274098096165061,0.0495863631367683,0.1333767771720886,-0.0005314367008395,0.0021966894874247,0.0606409403177443,-9.80646236847341,100,standing
1783068640365110500,0.4184071,-0.0023574732500506,-0.001170463984902,-0.0648234775662422,-0.0142501387745141,-0.0462963171303272,0.0010776452254503,0.006696964329906,0.0590802166399313,-9.806469967257977,100,standing
1783068640375072800,0.4283694,0.1068416509432718,-0.0485546259410679,-0.2916787610411643,-0.0080900602042675,-0.0233822222799062,-0.0029612956568598,0.0035909020584906,0.0600767259971471,-9.806465291082858,100,standing
1783068640385035800,0.4383324,-0.0233612849710043,0.0184543607044033,0.1160790330290794,-0.0075028324499726,-0.0261050388216972,-0.002049695700407,0.001214919614559,0.0610032023254549,-9.806460030385852,100,standing
1783068640394997800,0.4482944,0.0140201468248444,0.004427652849676,0.0768739808440208,0.010658711194992,0.0275619309395551,0.0012945544440299,0.0007939751624919,0.0609639799933414,-9.80646061490774,100,standing
1783068640404959700,0.4582563,-0.0804638768284581,0.0360463461255421,0.2899690345138311,0.0095921158790588,0.0369509011507034,0.0007632539491169,0.0066925330374942,0.0588238900915719,-9.806471136301756,100,standing
1783068640414921700,0.4682183,0.1180123939781449,-0.0400633221153635,-0.2187988182693719,0.001057177549228,0.0078244395554065,0.0003697770298458,0.006935004019615,0.0587680180187569,-9.806471720823644,100,standing
1783068640424883700,0.4781803,0.0211213240244891,-0.0074348627084866,-0.0139449387222528,0.000214553438127,-0.0006492059910669,-0.0003554017457645,0.0071601830861065,0.0587605562315089,-9.806471136301756,100,standing
1783068640434845700,0.4881423,0.0117229769400204,-0.0092594021213706,0.0065542439490556,-0.0019307541660964,-0.0020279833115637,-0.0001943230745382,0.0072809987374697,0.0589390820030355,-9.806469967257977,100,standing
1783068640444808700,0.4981053,0.0061263059979683,0.0009041685983771,0.02929915972054,-0.0004766681231558,-0.0010442117927595,0.0016797434072941,0.0071914390241843,0.0589508637723745,-9.806469967257977,100,standing
1783068640454770700,0.5080673,-0.000965329338485,-0.0031327222348889,0.0580301641643047,-4.41956799477e-05,0.0006179098854772,-0.0013205143623054,0.0072501086963951,0.0587979108335217,-9.806471136301756,100,standing
1783068640464732700,0.5180293,-0.0062422222827502,-0.0076580861382652,0.0527934325546026,0.0011334542650729,0.0010320314904674,0.0002350380527786,0.0072896860798908,0.0586845090203452,-9.806471720823644,100,standing
1783068640474694700,0.5279913,-0.0220115599956363,0.0021526571223977,0.0364835182666778,0.0040371064096689,0.0026962701231241,0.0031909798271954,0.0071974377942417,0.058600210004067,-9.806472305345537,100,standing
1783068640484657000,0.5379536,-0.0298662738176994,0.0031385263545904,0.0140402157902717,0.0021939328871667,0.0028312923386693,-0.0006913761608302,0.0072709967916191,0.0582128911869134,-9.806474643433091,100,standing
1783068640494619600,0.5479162,-0.0190252353779389,-0.0073115788221126,0.0185293439030647,-0.0004166013095527,0.0013575333869084,0.0001150984317064,0.0073535034263215,0.0581883641004329,-9.806474643433091,100,standing
1783068640504581600,0.5578782,-0.0209770567155908,-0.0020708423241507,0.0393289708256721,-0.0022347413469105,-0.0015272026648744,0.0005380083457566,0.0073600330609857,0.0581849437340628,-9.806474643433091,100,standing
1783068640514543900,0.5678405,-0.0063075374665233,-0.004515417898097,0.043669045856595,0.0029450180009007,-0.0007878168253228,-0.0015040975995361,0.0072053619474376,0.0580856800440931,-9.806475227954984,100,standing
1783068640524505600,0.5778022,-0.0018165125116996,0.0031999559519346,0.0444189874410629,0.0016232912894338,9.74178547039e-05,-0.0001283085439354,0.007203465676229,0.0578521863820496,-9.806476981520651,100,standing
1783068640534467600,0.5877642,0.0133433709412871,-0.0009584332359954,0.0423240609884262,0.0015367777086794,0.003429302945733,-0.0008949051843956,0.0073066178067383,0.0578207226647064,-9.806476981520651,100,standing
1783068640544429800,0.5977264,0.0331483961943304,0.0021324089188128,0.0306517433732748,0.0001918813213706,-0.0007566537242382,-0.0018208862747997,0.0074033949953882,0.0578722701888531,-9.806476396998764,100,standing
1783068640554392800,0.6076894,0.0296316773272468,-0.0095938034411985,-0.010498013138771,0.0028612595051527,-0.001223451225087,-0.0005708835087716,0.0073288119430595,0.057777111851843,-9.806476981520651,100,standing
1783068640564354600,0.6176512,0.0269320036142249,-0.0053263141558738,0.0351414560079574,-0.0025899647735059,-0.0014381019864231,0.0017431371379643,0.0071853694721794,0.0578491130755515,-9.806476981520651,100,standing
1783068640574316800,0.6276134,0.0286658987517235,-0.0054889710714109,0.0619265870809555,0.0008963011205196,-0.0010727243497967,0.0003764118882827,0.0070974868343939,0.0578621323873288,-9.806476981520651,100,standing
1783068640584278800,0.6375754,0.0086781453344272,-0.0125161388949956,0.0204769708395004,0.000406812177971,-0.0014905743300914,0.0024499492719769,0.0068841648857662,0.0578563328342046,-9.806476981520651,100,standing
1783068640594240800,0.6475374,-0.0020935536253469,0.0058887429447611,0.028407763838768,-0.0002454943023622,-0.001942329457961,-0.0012502659810706,0.0067323193418997,0.0578568808234762,-9.806476981520651,100,standing
1783068640604202800,0.6574994,0.0193097719573415,-0.0073595598494168,0.0150876790165901,-0.0065081836655735,-0.0108167817816138,-0.0008646402275189,0.0055300702667795,0.0583859827314969,-9.806474643433091,100,standing
1783068640614165800,0.6674624,-0.0371379658707068,-0.0002075189705705,-0.0034703064590692,-0.0062609836459159,-0.0207950342446565,0.0015043977182358,0.003768780232279,0.0590150972481584,-9.806471720823644,100,standing
1783068640624127700,0.6774243,-0.020863154862204,0.0041203039335552,0.0448603014677762,-0.0059573827311396,-0.0177401229739189,-0.0022408056538552,0.002008816645768,0.0594756730977678,-9.806469382736086,100,standing
1783068640634089700,0.6873863,-0.0210489848740631,-0.0012768515354022,0.025405074891448,-0.0045540127903223,-0.0168525017797946,0.0021339263767004,0.0002493572736044,0.0599347922092303,-9.806467044648528,100,standing
1783068640644051700,0.6973483,-0.0370026285036466,-0.0001210508300922,0.0533867222726345,0.0049832994118332,0.0192522387951612,-0.0001811596448533,0.0001917770154819,0.0599760877674212,-9.806466460126638,100,standing
1783068640654013700,0.7073103,-0.0470576882144669,0.0142755543495295,0.1104033254802226,0.0036629429087042,0.0124025922268629,0.0013172805774956,0.0023160452611191,0.0591965136630926,-9.806471136301756,100,standing
1783068640663975700,0.7172723,0.0256468294917605,-0.0113411083328304,-0.0619803630948066,-0.0010138342622667,-0.0040237847715616,-0.0002036507357843,0.0023354025540211,0.0593747745731379,-9.806469967257977,100,standing
1783068640673938700,0.7272353,-0.0123298613585648,-0.0005243070018943,0.0399251831531524,0.0036771385930478,0.0105441268533468,0.0009325653081759,0.0029026923216995,0.0590326055053854,-9.806471720823644,100,standing
1783068640683901000,0.7371976,0.0065812078753282,0.0122886548486305,0.0653653293579816,0.0009002606384456,0.0043109990656375,-0.0004165921127423,0.0038934246732664,0.0586395647669211,-9.806474058911204,100,standing
1783068640693862700,0.7471593,0.0655039386776508,-0.0180778829416725,-0.0847258633881807,-0.0131186712533235,-0.0447314269840717,0.0012944199843332,0.00108479306892,0.0595274991831276,-9.806469382736086,100,standing
1783068640703824600,0.7571212,0.0513087469547986,-0.012543474426493,-0.0564595538467168,-0.0345842838287353,-0.0963165909051895,0.0024022948928177,-0.0052203667092573,0.0617742506300332,-9.806454185166954,100,standing
1783068640713787000,0.7670836,0.0309051610119175,8.22988554369e-05,0.0310644158273935,0.0090666487812995,0.0167545992881059,0.0016143737593665,-0.0101055318060214,0.0633640497052809,-9.8064401566416,100,standing
1783068640723749600,0.7770462,-0.0710302826173836,0.0373014105208218,0.2809633057594299,-0.0002219241578131,0.0017410286236554,0.0001991700264625,-0.0088761983611533,0.0629557794316438,-9.80644366377294,100,standing
1783068640733711600,0.7870082,0.0377260245744837,-0.0108816878272686,-0.0585632481276988,0.004775539971888,0.005694908555597,-0.001314491033554,-0.008696328874267,0.06280593176533,-9.80644483281672,100,standing
1783068640743673900,0.7969705,-0.0304193776558153,0.0061552209943765,0.0729717127084732,0.0050328010693192,0.012087027542293,-0.0008993041701614,-0.007738211873747,0.0623787969610188,-9.806448339948057,100,standing
1783068640753635600,0.8069322,-0.0189794417411438,0.0030006842199014,0.0270364754855632,0.0068389531224966,0.0174672659486532,-0.0010865251533687,-0.0063093132942565,0.0619420358118368,-9.806452431601285,100,standing
1783068640763597800,0.8168944,0.255942280015815,0.0286604964908212,0.0586176086634397,0.0190138611942529,0.0573345199227333,-0.1530592888593673,-0.0035036370502799,0.0609724281612783,-9.806460030385852,100,standing
1783068640773559800,0.8268564,0.8941103283625096,0.0144524772524368,0.063712301453948,-0.0012638983316719,-0.0076712216250598,-0.1986771821975708,-0.0012227233242796,0.0599174118161667,-9.806467044648528,100,standing
1783068640783522600,0.8368192,0.1306844358209054,-0.0038070549996104,-0.1281312898725271,-0.0240821298211812,-0.0786005184054374,-0.2260017544031143,-0.004689570601072,0.0611182526730233,-9.806458276820182,100,standing
1783068640793484800,0.8467814,0.2956111137877218,-0.025879455504124,-0.1540390535891056,0.0017140442505478,-0.0011663325130939,-0.2897281944751739,-0.0120478558046102,0.0632888564440654,-9.806438403075934,100,standing
1783068640803446800,0.8567434,0.3889044058445841,0.0621316035671858,0.4141372659742832,-0.0011552453506737,-0.0118519999086856,-0.360923558473587,-0.0118176500781963,0.0629654331759782,-9.806440741163492,100,standing
1783068640813408500,0.8667051,0.5743509165450931,-0.1868183470429852,-0.0048404257684946,0.0158694311976432,0.0422089733183383,-0.2770626842975616,-0.0106660745984991,0.0620205809407634,-9.806448339948057,100,standing
1783068640823370800,0.8766674,1.2487502071641383,-1.466361130823195,0.1349357091903686,0.0163048580288887,0.0405495576560497,-0.0420312359929084,-0.0063092162544897,0.0602166002587182,-9.8064629529953,100,standing
1783068640833332700,0.8866293,1.1953639232829212,-1.34740157392174,-0.060036243289709,-0.0018758010119199,-0.0053981589153409,0.1423620730638504,-0.0043982369568242,0.0594707503274781,-9.806468798214196,100,standing
1783068640843295700,0.8965923,0.7476330152645707,-0.5665342514447868,-0.0432803387999534,-0.0038545299321413,-0.0073542511090636,0.2298565059900283,-0.0052808339004433,0.0600109581514028,-9.806464706560968,100,standing
1783068640853257700,0.9065543,-0.066997962927958,0.1555668476782739,0.1449678583830595,0.0201174784451723,0.0663390830159187,0.2336987406015396,-0.0025835225349219,0.0594623980576638,-9.806469382736086,100,standing
1783068640863219700,0.9165163,-0.7508975700184702,0.5038287524132058,0.245537187591195,-0.0027076764963567,0.0030645043589174,0.2223371714353561,0.0046548554807173,0.0571626103824237,-9.80648224221766,100,standing
1783068640873181700,0.9264783,-1.1563036133307962,0.4679371721576899,-0.3467342933088541,-0.0081627676263451,-0.0154440198093652,0.2244931161403656,0.0019991120982616,0.0583382665656739,-9.806476396998764,100,standing
1783068640883143700,0.9364403,-1.00886096233204,0.3749566906433552,0.1479687937647104,0.013171549886465,0.0447926856577396,0.1715494692325592,0.0035955220076255,0.0580945392039837,-9.806476981520651,100,standing
1783068640893106700,0.9464033,-0.5811971291780471,0.3158803784269839,0.0020727146208286,0.0045329043641686,0.0132187958806753,0.113143004477024,0.0044937923006451,0.057914346631756,-9.806478150564432,100,standing
1783068640903068700,0.9563653,-0.4353454736977815,0.3073115797851234,-0.0233662625402212,0.00092219049111,0.003443663008511,0.0754574090242385,0.0046884443689545,0.0579537927261553,-9.806477566042542,100,standing
1783068640913030700,0.9663273,-0.33210966522675,0.2572785518545657,0.0263140064299106,-0.0003811605274677,-0.0026179580017924,0.0611461177468299,0.004702588771205,0.0578582370969234,-9.806478150564432,100,standing
1783068640922992600,0.9762892,-0.3278959199892357,0.2522816934153437,0.0317015446871519,0.0006689238362014,0.0027797368820756,0.0629320293664932,0.0049779807796381,0.0577674307080451,-9.80647873508632,100,standing
1783068640932955000,0.9862516,-0.3115929468987509,0.2589096601877361,0.026764672806859,0.0011197195854038,0.0047025312669575,0.0821278393268585,0.0052847594444232,0.0575738671975908,-9.806479319608211,100,standing
1783068640942916600,0.9962132,-0.3403386739876121,0.2992059782082215,0.0173375037699937,0.0021218671463429,-0.0022408622317016,0.0350492782890796,0.0054497304729884,0.0575300645884824,-9.8064799041301,100,standing
1783068640952879600,1.0061762,-0.3540518863132223,0.224972319272533,0.0245201087504625,-0.0038989651948213,-0.0047169178724288,0.0026964456774294,0.0050969800748949,0.0575434811924817,-9.8064799041301,100,standing
1783068640962841900,1.0161385,-0.1067484471013303,0.0741296734048286,0.0418774862647056,-0.0003407157491892,-0.0046191802248358,-0.000921458529774,0.0048452406533964,0.0577010555075248,-9.806479319608211,100,standing
1783068640972803800,1.0261004,0.0420778905079001,-0.0163158691046759,0.0070107555449008,-0.0036302169319242,-0.0205801799893379,-0.0021636120509356,0.0040104897376411,0.0579151229498907,-9.806478150564432,100,standing
1783068640982765600,1.0360622,0.045321662768675,-0.0135648944626795,-0.077242814156413,-0.020055528730154,-0.0564859844744205,-0.0004543952818494,0.0001681690953811,0.0593539966465905,-9.806470551779864,100,standing
1783068640992727800,1.0460244,0.0288582726688007,-0.0044366992392344,-0.0127601128518581,-0.0149629935622215,-0.0391543917357921,0.00094575737603,-0.0047666187488895,0.0609997134604258,-9.806458861342072,100,standing
1783068641002689800,1.0559864,-0.0300998747943085,0.0093820558200823,0.126995563840866,-0.0003978994209319,-0.0016565528931096,-0.0030785454437136,-0.0067109763014159,0.0616958059658063,-9.806453600645066,100,standing
1783068641012652500,1.0659491,-0.0170555884059402,0.0024102075134636,0.0925794994980096,-0.0033045301679521,-0.0001802949700504,-0.0019314896780997,-0.0064375148135208,0.0616346823291387,-9.806454185166954,100,standing
1783068641022614800,1.0759114,0.0306033467874396,-0.003145166157931,-0.0196527949750423,-0.0096870614215731,-0.0388153083622455,0.0002256707521155,-0.0081577073651191,0.0621023820392787,-9.806450093513726,100,standing
1783068641032576800,1.0858734,0.0332172008139546,-0.0118461078460561,-0.0567740266233682,2.5255838409e-05,0.003204972250387,-0.0016684257425367,-0.0116693847309041,0.0633214435394154,-9.806438403075934,100,standing
1783068641042538800,1.0958354,-0.0801025601022411,0.0141522476302692,0.2258966675758361,0.0086275320500135,0.0332177318632602,-0.0007813268457539,-0.0096800010119739,0.0627614807022502,-9.806444248294827,100,standing
1783068641052500700,1.1057973,-0.0299343203854979,0.0113354731764877,0.0593617050290107,0.0131461434066295,0.0538438707590103,-0.0009473018581047,-0.0052305159272247,0.0615380352879408,-9.806455354210732,100,standing
1783068641062463700,1.1157603,-0.0319150458739371,0.0152775298997294,0.0723918669939041,0.0199092403054237,0.0626450851559639,0.0002852090983651,0.0006407863313823,0.0598405471876729,-9.806467629170417,100,standing
1783068641072425700,1.1257223,-0.0045266448282985,0.0056876993807498,0.0162853643685579,-0.0021552233956754,-0.0032020488288253,-7.12074106559e-05,0.0048259200358181,0.0583571995950071,-9.806475227954984,100,standing
1783068641082387700,1.1356843,0.0688311697044875,-0.0224834426905494,-0.1388899997740983,0.0011172688100486,-0.0085368929430842,0.0009083032491616,0.0035934313714722,0.0586957382338354,-9.806473474389314,100,standing
1783068641092349700,1.1456463,-0.0265625241311499,0.0150778289094334,0.141384154677391,0.009257067926228,0.0234605856239795,-0.0001146812574006,0.0044161593455268,0.0580949547625146,-9.806476981520651,100,standing
1783068641102311700,1.1556083,0.0136703230319544,-0.000431313222507,0.0206277774870395,-0.0006237919442355,0.0043444158509373,-0.0011482540285214,0.004585464912148,0.0578921484996797,-9.806478150564432,100,standing
1783068641112273700,1.1655703,0.0018749629882018,-0.0076323489088099,0.0109001641988754,-0.0017989361658692,0.0021183839999139,-0.0029796198941767,0.0045594545442902,0.0580602213758509,-9.806476981520651,100,standing
1783068641122236700,1.1755333,0.0019595308617164,0.003968766633654,0.0128454530477523,-0.0009730900637805,0.001188940834254,-0.0003516125143505,0.0046245228474799,0.0581308343600714,-9.806476396998764,100,standing
1783068641132199000,1.1854956,0.0172082171178073,0.0112811126407468,0.0248158768266439,0.0001474416349083,0.0005508143804036,0.0025526350364089,0.0046388738873516,0.0581507355037843,-9.806476396998764,100,standing
1783068641142160600,1.1954572,0.0102559023454319,-0.0089066020617494,0.006260813960433,-0.0018528588116168,0.0012347141746431,-0.0013017579913139,0.0047078568889002,0.0581373736987123,-9.806476396998764,100,standing
1783068641152122600,1.2054192,0.0152893002526252,-0.004034201119258,0.0225713127702474,-0.0025571933947503,-0.0003895678091794,-0.0009119840105995,0.0047621386511833,0.0582030136802932,-9.806476396998764,100,standing
1783068641162084600,1.2153812,0.0221064671708969,0.0062171894478378,0.0414250663220882,0.0001405889634042,-0.0012761341640725,-0.00137350987643,0.0046786639021011,0.0582766132060438,-9.806475812476872,100,standing
1783068641172047400,1.225344,0.0076724685733555,0.0036968223910545,0.0143406600415706,0.0035046369303017,-0.0011908455053344,-0.0005649416707456,0.0045978149349452,0.0582531455654883,-9.806475812476872,100,standing
1783068641182009300,1.2353059,0.0171873547095805,-0.0132566276645287,-0.0066080199629068,0.0008609169162809,0.0011383552337065,0.0006888746283948,0.0046597354393452,0.0581479087924584,-9.806476396998764,100,standing
1783068641191971600,1.2452682,0.0265660175627563,-0.0077926677367882,0.0186795660287141,-0.0046365084126591,-0.009934714064002,0.0005824926192872,0.0042593282409332,0.058370177807589,-9.806475227954984,100,standing
1783068641201933300,1.2552299,0.008194100702618,0.019540247111814,0.0625222148865461,-0.002075612777844,-0.0096369730308651,0.0006674475152976,0.003178356897713,0.0587202105213887,-9.806473474389314,100,standing
1783068641211895600,1.2651922,-0.0200683215399505,-0.0013245220354525,0.0586310526669025,0.0012498730793595,-0.0034101174678653,-0.0002829523873515,0.0025607219000579,0.0587853664457797,-9.806473474389314,100,standing
1783068641221857500,1.2751541,-0.0380648212249274,-0.011956029927358,0.023166940575838,0.0009337558876723,0.0006900855223648,-0.0007319613359868,0.0026007091338629,0.0587925999041646,-9.806473474389314,100,standing
1783068641231820500,1.2851171,-0.0041199012185228,0.0205291987836593,0.0390285265743732,-0.0006427182815968,-0.0012446888722479,0.000391213572584,0.0024738875771654,0.0587787312090164,-9.806473474389314,100,standing
1783068641241782500,1.2950791,-0.0267709587004617,0.0080395323370583,0.0468102664917707,0.0001194784417748,0.0017774663865566,-0.0009720585658214,0.0023800301438532,0.0586988389397971,-9.806474058911204,100,standing
1783068641251744500,1.3050411,-0.0285454895257367,-0.0104650515840854,0.0438186834603548,0.0052771782502532,0.0065655326470732,-0.000292924552923,0.002807821393646,0.0584987269575474,-9.806475227954984,100,standing
1783068641261706500,1.3150031,-0.0092521435468108,-0.0041950451036216,0.0227221194177865,0.0041269590146839,0.0103871691972017,0.0009134874562732,0.0038651892406371,0.0580645824571372,-9.806477566042542,100,standing
1783068641271668500,1.3249651,0.0073498296149133,-0.0003863233033102,-0.0247130009740591,0.0001582207623869,0.00106616911944,-0.0020837325137108,0.0040226282708288,0.0579968007508199,-9.806477566042542,100,standing
1783068641281631500,1.3349281,0.0090167016687424,0.0023298220538999,0.0405295787870883,0.0016400035237893,-0.0014593064552173,0.0009424174204468,0.004151408032939,0.0579741276947082,-9.806477566042542,100,standing
1783068641291593500,1.3448901,0.0199838649767567,0.0054232717243256,0.0288572611719369,-0.00153942219913,-0.0008416805649176,-4.1059101931e-06,0.0041077895139766,0.058023072269815,-9.806477566042542,100,standing
1783068641301555500,1.3548521,0.0348523414348484,0.0008670879910001,-0.0009200374543666,0.002558117499575,0.0021908609196543,0.0015690234722569,0.0042030725756281,0.0579404902865877,-9.806478150564432,100,standing
1783068641311517400,1.364814,0.0326227420521434,-0.002542469290737,0.0411281292021274,0.0018681065412238,-0.0005292447749525,0.0008695990545675,0.0043377443640521,0.0579083826818503,-9.806478150564432,100,standing
1783068641321479700,1.3747763,0.027739842548524,0.0031560391783947,0.0589350040495395,8.51203221827e-05,0.0004292268422432,-9.84600046649e-05,0.0042826052268879,0.0578961077221669,-9.806478150564432,100,standing
1783068641331441400,1.384738,0.0175125555178674,0.0097125207503093,0.0334966114103794,-0.0001617367379367,0.0001071792794391,0.0017434862675145,0.0041848975981207,0.0579236761491047,-9.806478150564432,100,standing
1783068641341404400,1.394701,0.0142155061418074,0.014151548943948,0.0578881253451108,-0.0003750559408217,0.0035431897267699,0.0008233642438426,0.0041899194060548,0.057824133897922,-9.80647873508632,100,standing
1783068641351366400,1.404663,-0.0091909422783297,-0.0210568667864194,-0.0149848031640052,0.0011406037956476,0.003282519057393,-0.0001510436413809,0.0044025386726061,0.0577180797075619,-9.806479319608211,100,standing
1783068641361328400,1.414625,-0.0240734267121762,-0.0123006603802554,0.01374503223598,-0.0013403969351202,0.0048497896641492,-0.0015795632498338,0.0046205382234067,0.0577904919232241,-9.80647873508632,100,standing
1783068641371290400,1.424587,-0.0043486727542651,0.0173739496231311,0.0602829115271568,-0.0007337450515478,0.0004954721080139,-0.0014396603219211,0.0046479471055514,0.0577441228976938,-9.80647873508632,100,standing
1783068641381252600,1.4345492,-0.0435722161523066,-0.0063195447106147,0.0210778593420982,0.0018977243453264,0.0018701958470046,-0.0001413692370988,0.0048160750660608,0.0576452428002143,-9.806479319608211,100,standing
1783068641391215600,1.4445122,-0.0186919483029632,-0.0040507229957962,0.0231739548385143,0.0025234536733478,0.0001203676220029,0.0015716406051069,0.0049252887570648,0.0574713475380325,-9.80648048865199,100,standing
1783068641401177300,1.4544739,-0.0080274200616899,0.001486475698091,0.0551969865649938,-0.00071068899706,0.0024793958291411,0.0006914659170433,0.0050346679864946,0.057321107146074,-9.80648107317388,100,standing
1783068641411139600,1.4644362,-0.0121438075844198,0.009290902371332,0.0299094005733728,0.0012369735632091,-0.0001775838900357,-0.0002665639913175,0.0052604778114706,0.0571481936980038,-9.80648224221766,100,standing
1783068641421101600,1.4743982,0.0189382740471162,0.0081240414158906,0.0522054035335779,0.0018066237680613,0.0005720959743484,0.0006306549184955,0.0051533807290281,0.0571179538233671,-9.80648224221766,100,standing
1783068641431063300,1.4843599,0.0126378861281205,-0.0115857901091687,-0.0054044893920421,-0.000247738789767,0.0014573307707905,-0.0010135807096958,0.0051689898609358,0.0570756262187147,-9.806482826739549,100,standing
1783068641441026600,1.4943232,0.0267892113097826,-0.0034227090242551,0.0173398418575525,0.0006601328495889,-0.0017144940793514,-0.0011752345599234,0.005083597149403,0.057142608774011,-9.80648224221766,100,standing
1783068641450988500,1.5042851,0.0362157296093879,0.0128630983022972,0.0520563504517078,0.0033421094994992,0.0007347589125856,0.0027122725732624,0.0050842490283073,0.0570176626535132,-9.806482826739549,100,standing
1783068641460950300,1.5142469,0.0211648229562095,-0.0053558188115712,0.049812370917201,-0.00149632175453,-0.0022884614299982,0.0007601755205541,0.0050217582725716,0.0569807921086903,-9.80648341126144,100,standing
1783068641470912500,1.5242091,0.0245520382586866,-0.002455813920591,0.0192862997502088,-0.001461380161345,0.0038107626605778,-0.0018350302707403,0.005076207856569,0.0569239062557229,-9.80648341126144,100,standing
1783068641480874500,1.5341711,0.0130359147106006,-0.0134530452857725,0.0291617970764636,-0.0019178455695509,0.0013808943331241,0.0005319873453117,0.0052198729480907,0.0569975879798643,-9.806482826739549,100,standing
1783068641490836500,1.5441331,0.0044957736243552,-0.0012289846725296,0.0351473012268543,-0.0017156160902231,-0.0002104082377627,0.0001653681392781,0.0052306711908517,0.0570438108749222,-9.806482826739549,100,standing
1783068641500799500,1.5540961,0.002477956682918,-0.0056173101588152,0.0583411298096179,-0.0015481032896786,-0.0017158931586891,-0.0022687611635774,0.0051535605380078,0.0570926412855973,-9.80648224221766,100,standing
1783068641510761500,1.5640581,-0.0190867825646477,0.0338697601382853,0.0478664975464344,-0.0018540767487138,-0.0010663922876119,-0.0019420459866523,0.0050208466695854,0.0571098983810748,-9.80648224221766,100,standing
1783068641520723500,1.5740201,-0.0261351815475733,-0.0152698854493908,0.0031248540222644,-0.001662595430389,-0.0004434788133949,0.0007743783062323,0.005036278275802,0.0570187723317882,-9.806482826739549,100,standing
1783068641530685400,1.583982,-0.0404680852576624,-0.0348383905413094,-0.0006166705936193,-0.0008784523233771,0.0017390858847647,-0.0012660436332225,0.0050039714541315,0.0571343935015145,-9.80648224221766,100,standing
1783068641540647400,1.593944,-0.0203706061218865,0.0334971502664964,0.0505593898922204,-0.0001530072186142,-0.000611952622421,-0.0003696235944516,0.0051075711092125,0.0571832330453442,-9.80648165769577,100,standing
1783068641550610400,1.603907,-0.0150911028078931,0.0030549214580561,0.0460708463013172,-0.0003131181001663,-0.001017072238028,0.0015779027016833,0.0050653822143445,0.057099386120215,-9.80648224221766,100,standing
1783068641560572400,1.613869,-0.0125984388920769,-0.0150477488650009,0.0317056363403797,-0.000436688773334,-0.0014663476031273,-1.6798148863e-05,0.0049669205295067,0.0570959109549177,-9.80648224221766,100,standing
1783068641570534400,1.623831,0.0101224258586065,0.0195648107309127,0.0306581731140613,0.0017258159350603,0.0016422891058027,0.0007052886066958,0.0049909721211297,0.0570496423940872,-9.806482826739549,100,standing
1783068641580496600,1.6337932,0.0200750572414137,-0.0070234460631152,0.0267681799381971,0.0013268744805827,-0.0003966270014643,-0.0006928709335625,0.0049144220156449,0.0570024011522997,-9.806482826739549,100,standing
1783068641590458400,1.643755,0.0258646072781528,-0.0043426551470765,0.0251221662968397,0.0008655763231217,5.02476468682e-05,0.0018708237912505,0.0049607385255367,0.0570150871039368,-9.806482826739549,100,standing
1783068641600420400,1.653717,0.0238003431085497,0.013138033653004,0.0442763640999794,-0.0019099700730293,-0.0022254236973822,-0.0006985940271988,0.0049300762425031,0.0568923649065662,-9.806483995783328,100,standing
1783068641610383600,1.6636802,0.0306447085610008,-0.012644774809922,0.0547509963631629,-0.001197364879772,-0.0018804764840751,0.0004876106395386,0.0046697656408927,0.0569375055228127,-9.80648341126144,100,standing
1783068641620345300,1.6736419,0.0042809193036446,-0.0055371210620738,0.029612463453412,0.0009811008349061,-0.0046482998877763,0.0007976025226525,0.0042484238252509,0.0568628100185189,-9.806483995783328,100,standing
1783068641630307300,1.6836039,0.0177992931875109,0.0222784490372054,0.0821358468949794,-0.0004155377391725,-0.0033324393443763,0.0005299594486132,0.0038981599284772,0.0567302011813735,-9.806485164827109,100,standing
1783068641640269600,1.6935662,0.0097374222961254,-0.0041280990809435,0.0638818128019571,0.0048404769040644,-0.0050318022258579,0.0008114555384963,0.0034306868347339,0.0565012603968614,-9.806486918392777,100,standing
1783068641650231300,1.7035279,-0.0050278894733695,-0.0103267299587838,0.0186935945540666,0.0055807805620133,-0.0057447832077741,-0.0006826209137216,0.0029329633061439,0.0561158321426948,-9.806489256480337,100,standing
1783068641660194300,1.7134909,-0.0179903599218465,0.0071283312096958,0.0379991835266351,0.0066449800506234,-0.0024419305846095,-0.0004823511699214,0.0025776864491796,0.0557194623694056,-9.806491594567897,100,standing
1783068641670156500,1.7234531,-0.0175436619005398,0.0147603650246746,0.0167523973584175,-0.0015520995948463,-0.0014406675472855,0.0018658700864762,0.0024302636353924,0.0554196711386553,-9.806493348133564,100,standing
1783068641680118500,1.7334151,-0.0208511333475587,0.0007927897789282,-0.0103314244002103,0.0001254258677363,-0.0029970188625156,0.0005097884568385,0.0019967948457117,0.0553213116309838,-9.806493932655451,100,standing
1783068641690080500,1.7433771,-0.0168270597550261,-0.0076481081669451,0.0040343700826168,-0.0003621587529778,-0.0009323875419795,0.0024499578867107,0.0018632989509329,0.0552328615959733,-9.806494517177343,100,standing
1783068641700042500,1.7533391,-0.0197151241881074,-0.0275313234975328,-0.0190098208963871,-0.0006074360571801,-0.0017172212246805,-0.0009114839485846,0.0017586110234078,0.0552142801930895,-9.806494517177343,100,standing
1783068641710004500,1.7633011,-0.0138574659347767,0.0289226545583456,0.100102296218276,0.0009368378669023,-0.002844859380275,-0.0012054066173732,0.0015871815702426,0.0551736741880653,-9.806494517177343,100,standing
1783068641719967500,1.7732641,-0.0029444348336401,-0.0103314244002103,0.0544639961153268,0.0016361839370802,0.0001011295244097,1.03263300843e-05,0.0014480585106313,0.0549234303206205,-9.806496270743011,100,standing
1783068641729929500,1.7832261,-0.0196030055831419,-0.007966928325151,-0.0112251583695411,0.0023980936966836,0.0026220022700726,0.0016492103459313,0.0014968555282102,0.0546538561316207,-9.80649743978679,100,standing
1783068641739891500,1.7931881,0.0727616821204079,0.0330123761239694,0.0665869801074266,0.001639891648665,-0.0001729852519929,-0.0021511204540729,0.0013089303136206,0.0545256220754934,-9.806498608830571,100,standing
1783068641749853400,1.80315,0.0367255103290081,-0.0252270605765748,-0.0127203653633594,-0.0002249509561806,-0.0018687017727643,0.0005743358051404,0.0011328024232738,0.0544063933097291,-9.80649919335246,100,standing
1783068641759815400,1.813112,0.0353672664037556,-0.0209260663138702,-0.0380091203987598,0.0001502884551882,-0.0053278813138604,-0.0011282231425866,0.0008450333493437,0.0544448849894804,-9.806498608830571,100,standing
1783068641769778400,1.823075,0.0681101528204046,0.0238537309633335,0.0814022719234228,0.0035327142104506,-0.0019694224465638,0.0017466170247644,0.0005735060923307,0.0542570981992641,-9.80649977787435,100,standing
1783068641779740700,1.8330373,0.0328280302497209,-0.011912962537189,0.0140671037971973,0.0013585095293819,0.0004173024208284,-0.0011359883937984,0.0003915170000665,0.0539611291936831,-9.80650153144002,100,standing
1783068641789702400,1.842999,-0.0216541773757315,0.004360761625925,0.0254401462048292,0.0021070083603262,0.0029877747874706,0.0004785229684785,0.0005552759234558,0.0538482616700464,-9.806502115961909,100,standing
1783068641799664400,1.852961,0.0180558195236255,0.0234380034690257,0.0737736767411232,-0.001579072792083,-0.0004927103873342,-0.0009481323650106,0.0006488805895813,0.0537750000710133,-9.8065027004838,100,standing
1783068641809626600,1.8629232,-0.030267041204893,-0.0203205929677002,-0.0013449848681688,0.0018632350256666,-0.0018805403960868,0.0005910015897825,0.0004891578426413,0.0538394162098877,-9.806502115961909,100,standing
1783068641819589400,1.872886,-0.0351322908873902,0.0219448514349758,0.020652911928296,0.0016320727299898,-0.0020826742984354,0.0001750158262439,0.0004163678854161,0.0536221384637057,-9.806503285005688,100,standing
1783068641829551400,1.882848,-0.0262369659881922,-0.016285245637549,0.0282861832857131,0.0022476417943835,-0.0012011820217594,0.0018722570966929,0.0002000236118443,0.0533953668033937,-9.806504454049469,100,standing
1783068641839513600,1.8928102,-0.0433296258683549,0.0071133619694272,0.0276876328706741,-0.0001510672736912,-0.0001255313400179,-0.0020644275937229,0.0002339969844812,0.0533402299495181,-9.806505038571355,100,standing
1783068641849475300,1.9027719,-0.0247817348117358,0.0232084872957784,0.0646475364774465,0.0022362284362316,-0.0107171852141618,0.0006476008566096,-5.81087234924e-05,0.0534059703957987,-9.806504454049469,100,standing
1783068641859437600,1.9127342,0.0579251602867152,-0.0813636752123944,-0.0862128870755433,-0.1103049665689468,-0.3297540247440338,0.002194631146267,-0.0122856888566981,0.0566734751586103,-9.80647873508632,100,standing
1783068641869399600,1.9226962,-0.0206363717854488,0.032906002273201,0.1014122097730636,-0.0011429812293499,-0.0180444791913032,-0.0029246944468468,-0.0197657812296878,0.0580736608127364,-9.806458276820182,100,standing
1783068641879362600,1.9326592,-0.0476743542415089,0.0301594480779953,0.1644078873902559,0.0080758174881339,0.004770022816956,-0.0012168092653155,-0.0210093036009348,0.0579770959699293,-9.806455938732624,100,standing
1783068641889324500,1.9426211,0.0642128896535374,-0.0028105228095082,-0.0851870511591434,0.0124207511544227,0.012133227661252,0.0009345025173388,-0.0212668973744846,0.0577275233893422,-9.806457107776405,100,standing
1783068641899286500,1.9525831,0.0413293873952701,0.0121090741977561,-0.0148550393044948,0.0030440269038081,0.010432799346745,0.0029350689146667,-0.0208290356801822,0.0574724115505348,-9.80645944586396,100,standing
1783068641909248500,1.9625451,0.0449939834505785,-0.0019523716102121,-0.0564507860183715,0.0084316553547978,0.0254389643669128,0.0035923842806369,-0.0197052261318895,0.0573182850013254,-9.8064629529953,100,standing
1783068641919210500,1.9725071,0.0360627447044942,0.0595820332488045,0.1761024168372154,0.0016986517002806,0.025765735656023,0.0011356179602444,-0.0148142061122518,0.0559382014203118,-9.806479319608211,100,standing
1783068641929173500,1.9824701,0.967436334401369,0.1322763355216942,-0.350647082838416,-0.0093867378309369,-0.0112317688763141,-0.3624906837940216,-0.0209784677879652,0.0583619671016698,-9.806454185166954,100,standing
1783068641939135500,1.9924321,3.1576649894982576,0.7239034723699093,0.2451993339389562,-0.0216455347836017,-0.0474720671772956,-0.9240387082099916,-0.0235054655149346,0.0591500715723261,-9.80644366377294,100,standing
1783068641949097500,2.0023941,3.110905576410889,0.7704675090156495,0.2263461649090051,-0.0134389083832502,-0.040449108928442,-0.9340417385101318,-0.0246299258004874,0.0585247975471429,-9.806444248294827,100,standing
1783068641959059500,2.0123561,-1.2845077492438255,-1.4707307242095469,-0.301451967036724,-0.0615755431354045,-0.0106035936623811,-0.2769573330879211,-0.0281133018036838,0.0612940887305419,-9.806417944809796,100,standing
1783068641969021400,2.022318,-3.1066856206282973,-1.674889753360301,-0.4715355619758367,-0.2349272221326828,0.0223598629236221,0.3908597230911255,-0.0265762740952894,0.0755630900416988,-9.806322667741776,100,standing
1783068641978984400,2.032281,-2.0226164187073707,0.3476763599319383,-1.4198691365003584,-0.5990250110626221,-0.0737911686301231,0.5282647609710693,-0.0293639708683476,0.1139556476669386,-9.805943897557258,100,standing
1783068641988946400,2.042243,-1.643747888382524,-0.38180867542997,-3.818496796405315,-1.2991501092910769,0.0022200495004653,0.9753059148788452,-0.03832848397966,0.2083786926724016,-9.804361012279989,100,standing
1783068641998908400,2.052205,-3.8315079614087937,-1.9449825594067571,-1.744159542810917,-1.1950829029083252,0.1215368583798408,1.0897551774978638,-0.0164228857011941,0.3285970905285328,-9.80112919075191,100,standing
1783068642008870400,2.062167,-2.599908064879477,0.0701416769143194,-0.9762357269287107,-1.22902512550354,-0.9095075130462646,1.5033748149871826,-0.0685792179371463,0.4576301150137558,-9.795726454925536,100,standing
1783068642018832400,2.072129,-1.9477756972566247,-2.6060151495829222,-5.4479667147189375,-1.232314944267273,-1.9132025241851809,1.8365027904510496,-0.1957829766020178,0.5848599625345319,-9.78723627447784,100,standing
1783068642028794600,2.0820912,-3.0040228262722493,-4.509800898465514,-4.789419219356775,-0.9264216423034668,-2.6296308040618896,2.648444890975952,-0.4062181999454274,0.6962867127783596,-9.773462016147375,100,standing
1783068642038757600,2.0920542,-2.6886069235518573,-4.215591449902951,-0.7703677019029855,-0.4015354812145233,-2.65126371383667,2.633209228515625,-0.6513044654313475,0.7770688800420612,-9.75409388333261,100,standing
1783068642048719400,2.102016,1.4229200485035776,1.0460708951771258,6.247329624959826,-0.0566769652068614,-1.5194923877716064,1.3508522510528564,-0.8438225950185209,0.8107820568125694,-9.73657926943004,100,standing
1783068642058681600,2.1119782,2.830083724948764,4.752881925076246,8.697876272672413,-0.172767087817192,-0.3504218757152557,0.0439353473484516,-0.9242991303991526,0.827852653274685,-9.727831899350882,100,standing
1783068642068643600,2.1219402,1.694212439598143,4.452340643143653,3.5952661331683395,-0.2664622068405151,0.0083219585940241,-0.2425698786973953,-0.9412360174790024,0.8451300243552774,-9.72472165837586,100,standing
1783068642078605300,2.1319019,1.83420543217808,-0.1371822460081428,0.1155260753214359,-0.6845585107803345,0.6214905381202698,-0.0258711297065019,-0.9142332981325686,0.8898594659850001,-9.723307699924709,100,standing
1783068642088568600,2.1418652,1.948948978819698,-1.3639929354995488,1.0242734893888237,-1.0707635879516602,1.3449856042861938,0.101789966225624,-0.8181376072071492,0.9759826289504766,-9.723605221566558,100,standing
1783068642098530600,2.1518272,1.4745581735432147,-0.1210607669644057,1.7854852404117585,-1.235054850578308,2.122178792953491,0.098101757466793,-0.6487080922625958,1.0905628017239273,-9.724208448156714,100,standing
1783068642108492300,2.1617889,0.9628285483449696,1.4023429782904684,-0.4578156641811132,-0.8833833932876587,2.7613413333892822,-0.0991286560893058,-0.4108154280751943,1.1976103870354593,-9.724574358859655,100,standing
1783068642118454500,2.1717511,0.2109917247150093,2.762806424489617,-3.8300329204201695,-0.0768682137131691,3.289998769760132,-0.1982350051403045,-0.1182164103839546,1.244189475119859,-9.726685067403317,100,standing
1783068642128416500,2.1817131,0.1869883150487206,1.9466060689553617,-6.808506294894218,0.7642444968223572,3.0940752029418945,-0.3531069457530975,0.1923430104822851,1.2117949797324836,-9.729591310238838,100,standing
1783068642138379500,2.1916761,0.6577941927768289,2.3460776807174084,-10.872393563896416,1.7696504592895508,2.629150867462158,-0.2790457904338836,0.4659841383937746,1.0907988755021245,-9.734649762672186,100,standing
1783068642148341500,2.2016381,1.6404814339324831,1.08283176908046,-12.532759555733204,2.788417339324951,2.1313605308532715,-0.1495705693960189,0.6946133727386593,0.8706871480032801,-9.743192550089956,100,standing
1783068642158303500,2.2116001,3.0756098066240547,0.7188345716077834,-13.64389825862646,3.641647338867188,1.6373968124389648,0.2083713263273239,0.8806587261151522,0.5559281748216599,-9.751192901194097,100,standing
1783068642168265200,2.2215618,3.404294648501277,0.7511287484258413,-14.029920021706818,4.316971302032471,1.3955031633377075,0.6816476583480835,1.026474725760147,0.1649526252588257,-9.751385793417692,100,standing
1783068642178227500,2.2315241,4.194197948740422,0.9437385018192233,-12.218123112952709,4.9182658195495605,1.6294327974319458,1.1672310829162598,1.1694123204246163,-0.2946106132419779,-9.7322175670892,100,standing
1783068642188189400,2.241486,4.684688094294071,0.3488246166516095,-9.791083013033866,5.215007781982422,2.1102538108825684,1.4662892818450928,1.3466050167165695,-0.8029746709972619,-9.680509591683744,100,standing
1783068642198152200,2.2514488,3.839303437590599,1.8855040961302816,-8.975276917514204,5.542642593383789,2.567288398742676,1.4440600872039795,1.554683557398617,-1.3396261176146569,-9.589512392941115,100,standing
1783068642208114400,2.261411,3.409139750444889,2.468594637839496,-7.363010647457838,5.734938621520996,2.956739902496338,1.518351674079895,1.7927124151863156,-1.9013184819862248,-9.452066162234544,100,standing
1783068642218076400,2.271373,2.965776389986277,1.8999071538835763,-6.709791069120168,5.699374675750732,3.23641037940979,1.5576093196868896,2.049627175229788,-2.4647891080766917,-9.267913709932564,100,standing
1783068642228038400,2.281335,1.7903510928824542,2.416641163240373,-6.387952147614955,5.646110534667969,3.2180795669555664,1.4806015491485596,2.303733745984733,-3.015041648414731,-9.042826605173945,100,standing
1783068642238000400,2.291297,1.0524369230777024,2.439814533556998,-5.716581411036849,5.530697345733643,3.063443899154663,1.3054276704788208,2.5373691911190748,-3.5457860629454254,-8.784050581303239,100,standing
1783068642247963400,2.30126,0.6590460925340652,3.473340712198615,-4.47416902859211,5.325009822845459,3.3110158443450928,1.0842678546905518,2.764063731074333,-4.045255633768439,-8.495071726870536,100,standing
1783068642257925400,2.311222,0.369543506488204,3.907680223724246,-2.151158627468348,5.024340629577637,3.800437450408936,0.8985007405281067,3.0182515503719447,-4.503686507238448,-8.171740520980954,100,standing
1783068642267887400,2.321184,-0.1758522414684295,3.701145259222388,-0.9822299989074468,4.789024353027344,3.83941102027893,0.7044293284416199,3.2863691108226774,-4.91964426663816,-7.820950230279564,100,standing
1783068642277849300,2.3311459,-0.6528133356243372,2.381881107765436,-0.1582534564137458,4.515995979309082,4.069008827209473,1.132756233215332,3.540519812980294,-5.302657495552301,-7.450968332374096,100,standing
1783068642287811300,2.3411079,-1.0452695156663656,0.0368850848048925,1.7418676324814557,4.279411792755127,4.036044597625732,1.5699355602264404,3.764035138377547,-5.670890503963828,-7.059988070103525,100,standing
1783068642297774300,2.3510709,-0.9249155817970632,2.7640754215121266,0.5576818135559558,4.161648750305176,4.123851776123047,1.430482268333435,3.9522336511999367,-6.01779547766447,-6.65855655644536,100,standing
1783068642307736300,2.3610329,-0.7584431630924343,5.9507899798840285,1.276377780410647,3.988875150680542,3.808713912963867,1.1074833869934082,4.131873009991645,-6.331318406245112,-6.2459916543543335,100,standing
1783068642317698600,2.3709952,-1.174619825939834,5.859509872546791,-0.8872679881870746,3.589292287826538,3.3598453998565674,0.7407941222190857,4.285435970501601,-6.599467238616943,-5.8525593227565285,100,standing
1783068642327660300,2.3809569,-0.4902043143495917,5.813407462063432,-0.1662123064637184,3.001880645751953,3.252500534057617,0.5303624868392944,4.431659089642763,-6.812687964493036,-5.4879941892027855,100,standing
1783068642337622500,2.3909191,-0.4259253189235925,4.209282412886619,0.0907177972793579,2.37612247467041,2.968212604522705,0.6283169984817505,4.55816774674952,-6.980421196913719,-5.164031115150451,100,standing
1783068642347584500,2.4008811,-0.6692170656755566,2.8606553888231514,0.0869488001346588,1.8914276361465452,2.7851638793945312,0.9283329844474792,4.64748210697174,-7.122035068693757,-4.883432551050186,100,standing
1783068642357547300,2.4108439,-1.0343763657301663,2.433887773856521,1.0838847852647304,1.5491318702697754,2.7853751182556152,1.3432157039642334,4.697504613508284,-7.255958970493078,-4.631941423490643,100,standing
1783068642367509200,2.4208058,-1.5125526808947325,3.303635302922129,1.5983008730679749,1.3405423164367676,2.868122339248657,1.681353211402893,4.713749938127398,-7.391884275242686,-4.394429136922955,100,standing
1783068642377471500,2.4307681,-1.61291275126636,4.58787665631473,1.4491554367393251,1.274833917617798,2.7687737941741943,1.855686902999878,4.702480356094241,-7.530799409458041,-4.164628739906847,100,standing
1783068642387433200,2.4407298,-1.7578151431977749,4.883932317265868,0.9091776221781968,1.2347255945205688,2.539073944091797,1.9569764137268064,4.665423714114725,-7.6706334120839825,-3.945324602463841,100,standing
1783068642397395500,2.4506921,-1.7031673149481414,4.359462452960014,0.6394459045290947,1.0847831964492798,2.3095133304595947,2.073540687561035,4.603144075812399,-7.808309944415092,-3.743229373975098,100,standing
1783068642407358500,2.4606551,-1.5307956090718506,3.627116146415472,0.4527709480121731,0.8701364398002625,2.0480844974517822,2.2338249683380127,4.51337174268961,-7.941915281784534,-3.567328032667935,100,standing
1783068642417320400,2.470617,-1.7905702885910868,3.4260347711443897,0.5157528893649578,0.651255190372467,1.863740086555481,2.3027682304382324,4.3995019101426,-8.069439253413677,-3.420368708206713,100,standing
1783068642427282400,2.480579,-2.0937728986874222,3.8200381806284183,0.9091387514725326,0.4250639677047729,1.7977436780929563,2.2351558208465576,4.276386694866418,-8.18586432340145,-3.2976538904249666,100,standing
1783068642437244400,2.490541,-2.3779230177894237,3.9138632962733504,0.9205211462303996,0.2184745520353317,1.754806399345398,2.063272714614868,4.156814559024572,-8.286722406423092,-3.197107649831473,100,standing
1783068642447206400,2.500503,-2.577681035502255,3.659633683660626,1.0868468499407171,0.0501421950757503,1.8091899156570437,1.8488311767578125,4.050264109580219,-8.370823415911197,-3.1136879006057976,100,standing
1783068642457169400,2.510466,-2.315440550391376,3.2549440449893474,1.3857868341565132,-0.1114331185817718,1.7011104822158811,1.491325855255127,3.963698755805194,-8.43749281360507,-3.0443697419688105,100,standing
1783068642467131400,2.520428,-1.816887802152336,2.400444938459992,0.5949184882774948,-0.3523829579353332,1.4321376085281372,1.2162224054336548,3.897598682431876,-8.482764033961296,-3.0036344114765523,100,standing
1783068642477093400,2.53039,-2.4900433763206005,2.5071967556953427,0.9585349428042768,-0.5752003192901611,1.161990523338318,1.1293751001358032,3.838128256331384,-8.513948276776075,-2.991960048034787,100,standing
1783068642487055400,2.540352,-2.1363427511304613,2.0965888328909874,1.0720014552474022,-0.7629255652427673,0.8448539972305298,1.1480141878128052,3.7714328474134207,-8.53669143898189,-3.0119030581280586,100,standing
1783068642497017300,2.5503139,-1.9269667179837824,1.6916402510225772,1.585650650331378,-0.8498090505599976,0.6021630764007568,1.241265892982483,3.691792324465513,-8.556564014187455,-3.0538945261612533,100,standing
1783068642506980400,2.560277,-1.4076128815174105,1.1362702215403315,2.0161837553113697,-0.8328520655632019,0.4308619797229767,1.2982420921325684,3.598307400560379,-8.576851015412807,-3.1080893499463795,100,standing
1783068642516942600,2.5702392,-0.6380997506171464,1.450114637160301,2.47751122700572,-0.8085427284240723,0.5138444900512695,1.2749916315078735,3.5020138489753005,-8.597105867934227,-3.1616543513953683,100,standing
1783068642526904300,2.5802009,-0.4727750406429171,2.501654903659224,2.740155324481428,-0.9034917950630188,0.8310371041297913,1.2725396156311035,3.4146500382989644,-8.613751882308721,-3.2115131918027995,100,standing
1783068642536866300,2.5901629,-0.5642448253333568,3.0581396163851022,2.4455036851093173,-0.9099459648132324,0.901901125907898,1.3463964462280271,3.331193464194238,-8.628099556612968,-3.260280145320296,100,standing
1783068642546828300,2.6001249,-0.5928799681872129,2.6879946368724106,2.0067863968908783,-0.933244526386261,0.7992434501647949,1.5513988733291626,3.2356296881884337,-8.64506764254868,-3.3111770966038105,100,standing
1783068642556790300,2.6100869,-0.6596411358177662,1.36745973482728,1.860039546136558,-1.0749911069869995,0.7623118162155151,1.9394664764404297,3.1117522563681006,-8.666781461706757,-3.372576152679324,100,standing
1783068642566753300,2.6200499,-0.9214932061329484,0.5721621743291616,2.02316849963218,-1.243078112602234,0.7474191188812256,2.388486385345459,2.9502792533859608,-8.692695070642232,-3.45011239682436,100,standing
1783068642576715500,2.6300121,-1.4644105812773107,0.7208370705366134,2.1757225753605365,-1.3642114400863647,0.7407109141349792,2.7240710258483887,2.7529399872526525,-8.720164092326163,-3.542662085705995,100,standing
1783068642586677200,2.6399738,-1.9077032145872712,1.8256833952873943,2.583414902979136,-1.4080744981765747,0.8515409827232361,2.7276177406311035,2.542017016924917,-8.74283126668632,-3.642998775202036,100,standing
1783068642596639500,2.6499361,-1.726890281971544,2.8178005819588896,3.021965602459013,-1.3713582754135132,0.9713432788848876,2.488254308700561,2.348035975178331,-8.75512083941698,-3.742320442436635,100,standing
1783068642606601500,2.6598981,-2.035640589322895,2.838388027435541,3.189365657402575,-1.3516534566879272,1.1520251035690308,2.269376754760742,2.1804896436318755,-8.7576021348387,-3.836697639006376,100,standing
1783068642616564200,2.6698608,-2.536768594877422,2.8815508773356675,3.1809070411369205,-1.4451892375946045,1.3506207466125488,2.0063939094543457,2.0422163144513963,-8.748691098630427,-3.931937882146239,100,standing
1783068642626526500,2.6798231,-2.7688524266555903,2.9920448037087914,2.694325593459606,-1.6044615507125854,1.508648157119751,1.7002891302108765,1.937765467634797,-8.725110901078581,-4.035827003426849,100,standing
1783068642636488400,2.689785,-2.46248083113432,2.767096230638027,2.2777771746903657,-1.8314883708953855,1.6322827339172363,1.4008922576904297,1.8673717887207864,-8.68436446467042,-4.155129966938495,100,standing
1783068642646450200,2.6997468,-2.3069972778253254,1.8160750244647264,1.7785645012378692,-1.9321774244308472,1.7068119049072266,0.9838700294494628,1.83339440805614,-8.626831728634238,-4.287987700811028,100,standing
1783068642656412400,2.709709,-2.511277303007245,1.4632809927254915,1.9962077197313308,-1.6367439031600952,2.1216907501220703,0.1815938055515289,1.8633463325969877,-8.559244631573558,-4.408814220628142,100,standing
1783068642666375400,2.719672,-4.861383216327429,2.040100637471676,0.587683860848844,-0.845132052898407,2.3567428588867188,-0.6170726418495178,1.9825053575932976,-8.49815975601375,-4.474520326247811,100,standing
1783068642676337400,2.729634,-8.10242733078003,1.273829264971614,-3.33401465909481,0.3726542890071869,2.301966667175293,-1.4088308811187744,2.174533950097859,-8.466759824621677,-4.444746534752846,100,standing
1783068642686299400,2.739596,-6.935934404933453,0.9738795191913844,-5.37591737755239,1.0384700298309326,1.7756330966949463,-1.5781718492507937,2.394134001747519,-8.46473796340525,-4.334366005626321,100,standing
1783068642696261400,2.749558,-3.8763264695614574,-1.0417682295471429,-4.325294225898385,0.9232518076896667,1.383465051651001,-0.998492956161499,2.573132870678604,-8.47548264478147,-4.208987229332328,100,standing
1783068642706223400,2.75952,-2.135191243007779,-3.2893583557665345,-2.483554598823189,0.455330342054367,0.789567232131958,-0.2061780244112014,2.6692478508263826,-8.488767073768377,-4.12144893887192,100,standing
1783068642716186400,2.769483,-1.6932786658793686,-3.4988796426028013,-1.901166214033961,0.0668867453932762,0.2456642836332321,0.3024199604988098,2.682982069407404,-8.500709440496564,-4.087779601243138,100,standing
1783068642726148400,2.779445,-1.7814269049316644,-1.2850257817685604,-0.862951293054223,0.0038046794943511,0.1337918043136596,0.4325389266014099,2.6574051450803875,-8.511599083301425,-4.081823323187232,100,standing
1783068642736110300,2.7894069,-1.9292969144970176,0.7002765130668878,0.0507014287114143,0.1769138723611831,0.1144569888710975,0.4158962965011596,2.626158942945301,-8.52617355209887,-4.071613771601021,100,standing
1783068642746072300,2.7993689,-1.4522127784833312,0.766411073231697,0.5373834141537547,0.3351846933364868,0.039792601019144,0.3743735253810882,2.5957430541545152,-8.54711697140634,-4.047132825817168,100,standing
1783068642756034300,2.8093309,-0.6275564370319247,0.0320049115478992,1.1563386115789414,0.2309126257896423,0.3303599655628204,0.431701511144638,2.56820681245327,-8.569429925501346,-4.017410179987549,100,standing
1783068642765996500,2.8192931,-0.1630754697427153,-0.7399620422452687,2.3481331519424917,0.0274914409965276,0.580089807510376,0.5162879824638367,2.5469524275004862,-8.586352418729662,-3.994745635975897,100,standing
1783068642775959600,2.8292562,-0.0763493724480271,-0.974245429894328,1.9324626850515605,-0.0926855653524398,0.5007619261741638,0.6180146336555481,2.520380062395334,-8.598969908240438,-3.9844428531482814,100,standing
1783068642785921300,2.8392179,-0.3209431417092681,-0.9532552488356828,1.13897772693336,-0.1361559182405471,0.5135959982872009,0.75938481092453,2.481410864792764,-8.611730021092296,-3.981344010350108,100,standing
1783068642795883500,2.8491801,-0.3684624332532286,-0.8695072905689477,0.3530988599047064,-0.3783621788024902,0.441110610961914,0.7770599126815796,2.4340597694225607,-8.620658592957257,-3.991237627854943,100,standing
1783068642805845500,2.8591421,-0.2425527649529278,-0.8438882806658744,-0.6494362604066729,-0.3797276318073272,0.2908246517181396,0.700405478477478,2.3846150627739724,-8.622784499070049,-4.016413570165634,100,standing
1783068642815807200,2.8691038,-0.3952209685802459,-0.9039934975385664,-0.8081041428402066,-0.2944425642490387,0.3575525283813476,0.5084384083747864,2.344549740497768,-8.62373084000945,-4.037909654919803,100,standing
1783068642825770500,2.8790671,-0.1745332678243517,-0.6539519842654467,-1.0693658460468054,-0.1736069172620773,0.3185513317584991,0.2090871185064315,2.3273694731161,-8.622981482946873,-4.049437011106312,100,standing
1783068642835732500,2.8890291,-0.2992981500037014,0.0031137481063604,-0.8286144314274191,-0.1215983107686042,0.2777562141418457,-0.0586854591965675,2.333471735513956,-8.618947697386146,-4.054508907543123,100,standing
1783068642845694200,2.8989908,-0.6571103021658956,0.5927309151053428,-0.2099009338036179,-0.2103032618761062,0.1662045419216156,-0.2511210143566131,2.356245292858034,-8.608817348515986,-4.062850911691784,100,standing
1783068642855656400,2.908953,-0.5606741272397339,0.8247247305124997,-0.1275695643365383,-0.3285505473613739,0.1053670197725296,-0.3617045283317566,2.3877491230159995,-8.590617090436815,-4.082933330255747,100,standing
1783068642865618400,2.918915,0.0376996160581707,1.0178390724271535,0.0510422049731016,-0.4298023283481598,0.1536393910646438,-0.4580161869525909,2.4280285264343022,-8.565110893258453,-4.112655391563475,100,standing
1783068642875581400,2.928878,0.7701070051401853,1.2211053905218838,0.1247495384797453,-0.5098782181739807,0.2442499846220016,-0.5044733881950378,2.477477909258008,-8.53389450173974,-4.147905568642914,100,standing
1783068642885543400,2.93884,1.1928402500241997,1.6068734711021184,-0.115298404045403,-0.5452014803886414,0.3010489642620086,-0.548029899597168,2.5335847041442987,-8.498732002943754,-4.18603451602906,100,standing
1783068642895505400,2.948802,1.2958388522058724,1.905758217999339,-0.4683797282934188,-0.5500572323799133,0.3183328807353973,-0.4919091165065765,2.591745801211893,-8.46212924221158,-4.224404870955646,100,standing
1783068642905467400,2.958764,1.0288856593593954,0.6200105516970157,-0.8804217755541205,-0.5495079755783081,0.2323567867279052,-0.343385636806488,2.6388810618743297,-8.427950493755937,-4.263370269165933,100,standing
1783068642915429400,2.968726,1.2028799980014562,-0.4048585654973983,-1.5912749199539422,-0.4847457408905029,0.0666437149047851,-0.1828052848577499,2.6674966232448813,-8.398471301293373,-4.303549134819209,100,standing
1783068642925391400,2.978688,1.4643930456206202,-0.7196978373736143,-1.676338052472472,-0.3547748327255249,-0.0008208248764276,-0.0040227472782135,2.676528070962429,-8.377669920805095,-4.338345430651307,100,standing
1783068642935354400,2.988651,1.6483263022139667,-0.6478408079087734,-1.3031705102682112,-0.2375028133392334,-0.1186558455228805,0.1135552823543548,2.6685692209124565,-8.366926992994546,-4.363905111582577,100,standing
1783068642945316400,2.998613,0.9023878159075976,-0.2101630918711423,-0.96280925912261,-0.2137876152992248,-0.1719988137483596,0.1097439602017402,2.65225375366658,-8.360330663469433,-4.386435507820546,100,standing
1783068642955278300,3.0085749,0.0990361282914876,-0.0592886397927999,-0.2304921786725521,-0.2297234386205673,-0.1707646995782852,0.0741950199007988,2.637237094059586,-8.353039337417483,-4.409321877889335,100,standing
1783068642965240600,3.0185372,0.144517484267056,-0.0755424399793148,-0.1230032793343067,-0.2249447107315063,-0.2015318274497985,0.0614770352840423,2.6233292724773287,-8.344715745708346,-4.433312409807741,100,standing
1783068642975202300,3.0284989,0.258346108020842,-0.010173603489995,0.0955494552195072,-0.24333356320858,-0.1387552618980407,0.0657263770699501,2.6105063235223294,-8.33601455285847,-4.457186914131045,100,standing
1783068642985165300,3.0384619,0.1385907245665788,0.0323468568533659,0.4711842643201351,-0.2962848544120788,-0.1144123673439025,0.0846422761678695,2.599029528479278,-8.326011045238376,-4.482519508308172,100,standing
1783068642995127600,3.0484242,-0.0144160633653402,-0.0604921703636646,0.4871183310329914,-0.3508612811565399,-0.1175937801599502,0.1001754254102706,2.5860876293197275,-8.31382668644786,-4.512519217513502,100,standing
1783068643005089300,3.0583859,-0.0960609118729829,0.0406131654173135,0.461489968779683,-0.3903281092643738,-0.105174109339714,0.0957551002502441,2.5727125994399187,-8.299561429730057,-4.54629756847471,100,standing
1783068643015051300,3.0683479,-0.0394905911281704,0.231674666455388,0.3511018408685922,-0.4043784141540527,-0.0636644884943962,0.0792829170823097,2.5614824726343155,-8.283823762372135,-4.581207261553407,100,standing
1783068643025013500,3.0783101,0.0447311221301555,0.2827349916070699,0.1486678819447755,-0.4013071358203888,-0.0397459715604782,0.0733346864581108,2.552977679139376,-8.267397528228162,-4.615499991777539,100,standing
1783068643034976500,3.0882731,0.0690042703822255,0.2136152781516313,-0.2036439192354679,-0.4036211669445038,-0.0280203390866518,0.0871413126587867,2.54486539209336,-8.250800613692402,-4.649552191244066,100,standing
1783068643044938200,3.0982348,-0.0521241549909114,0.286873406586051,-0.3993669823437928,-0.3813885152339935,-0.0689167082309722,0.0812708735466003,2.5356594645917414,-8.234574870556592,-4.683223866960406,100,standing
1783068643054900500,3.1081971,-0.0855710820406675,0.369729968971014,-0.4796989946871995,-0.354828268289566,-0.1612237244844436,0.0624569728970527,2.5245140934601427,-8.21926974939704,-4.716017590798438,100,standing
1783068643064862500,3.1181591,0.042191959041357,0.4084358394622802,-0.4005550230845808,-0.3467983603477478,-0.2277736663818359,0.0738484114408493,2.5097277354776857,-8.20440477322042,-4.749672023119032,100,standing
1783068643074824400,3.128121,0.2047425281271338,0.2448100423604249,-0.0413926253572106,-0.3618201911449432,-0.2222228348255157,0.1045120507478714,2.4918767292276023,-8.189818029463291,-4.784120236165821,100,standing
1783068643084786400,3.138083,0.4832774376958608,-0.0213595988929271,0.3527802954748272,-0.3754813075065613,-0.2676683366298675,0.1452276557683944,2.470269000792503,-8.175189200130104,-4.820210955722629,100,standing
1783068643094749400,3.148046,0.5820359180897474,0.0777010793179273,0.2480374799743294,-0.3583023250102997,-0.3163383901119232,0.1875388920307159,2.442438890711218,-8.161572762709856,-4.85732458858639,100,standing
1783068643104711200,3.1580078,0.5414965485610067,0.1677174503296613,0.0099678517848253,-0.3212831914424896,-0.3940649032592773,0.2397283166646957,2.408908230900764,-8.149985785290598,-4.893391050484777,100,standing
1783068643114673400,3.16797,0.6051688102655113,-0.0858154121905565,-0.2916729158222675,-0.260737270116806,-0.4682190418243408,0.2142330855131149,2.3685791431218384,-8.141409095603228,-4.927237205985188,100,standing
1783068643124635400,3.177932,0.9436737660199404,0.5538982033640146,-0.2842448116481304,-0.2160153985023498,-0.3684965968132019,0.1229489147663116,2.334137798207253,-8.133491162085532,-4.956662037912011,100,standing
1783068643134597400,3.187894,1.0222999973587692,0.7102414422422647,0.465546550694108,-0.2198157310485839,-0.3043010830879211,0.0935462862253189,2.308932045280188,-8.12553231203556,-4.981459210038185,100,standing
1783068643144560400,3.197857,0.8913451744981109,0.1434083539813757,0.5601543411493302,-0.2260805368423462,-0.245015487074852,0.0869305059313774,2.288004846455157,-8.116249519905448,-5.006186824059486,100,standing
1783068643154522400,3.207819,0.8691802505716681,0.1470785669267177,0.3035106531322002,-0.2041643261909485,-0.2363208085298538,0.1067460253834724,2.268570808797329,-8.107649449342489,-5.028916542261839,100,standing
1783068643164484900,3.2177815,1.0158217412553727,0.1346574767708778,0.2555249131202697,-0.1475332677364349,-0.2191883027553558,0.0803294107317924,2.2495700479902325,-8.10091458812952,-5.048268308463692,100,standing
1783068643174447000,3.2277436,0.6483494880832731,0.1323065297305584,0.0486900888890027,-0.0795435681939125,-0.2425644546747207,0.0444920510053634,2.232772934707254,-8.096617767718433,-5.06259727806747,100,standing
1783068643184408800,3.2377054,0.6432539185099303,0.3893500307202339,0.0782750798135995,-0.0357889719307422,-0.2153814285993576,0.0093789976090192,2.219014020076394,-8.094339301392436,-5.072280467692018,100,standing
1783068643194371800,3.2476684,0.7526897141322493,0.3566103751569986,0.419932215988636,-0.0403565615415573,-0.2115025371313095,-0.0187224112451076,2.208638464273512,-8.092275354599952,-5.080096109879016,100,standing
1783068643204334000,3.2576306,0.7820179538168013,0.2671440392434597,0.3168541188299655,-0.0291642267256975,-0.2385032176971435,-0.0571291483938694,2.2002594891153278,-8.089749050992728,-5.087749839502573,100,standing
1783068643214295800,3.2675924,0.5917547635495662,0.3516927924990654,0.0609749854445457,0.0091349575668573,-0.2926423549652099,-0.1080469265580177,2.193599592834711,-8.087507994067668,-5.094185425508022,100,standing
1783068643224258000,3.2775546,0.332576150227338,0.3910276085436344,0.0227951846539974,0.0294937193393707,-0.3174081444740295,-0.1562342941761016,2.1885180517867204,-8.085691884556413,-5.099250307682157,100,standing
1783068643234220000,3.2875166,0.2126996246114373,0.3559305761992931,0.3734025200039148,0.0170000325888395,-0.2992240786552429,-0.1935939192771911,2.187038626883924,-8.08306679674983,-5.104045725265145,100,standing
1783068643244183000,3.2974796,0.1648335654564201,0.2644564075946807,0.6830892314225435,-0.0229339525103569,-0.2593381702899933,-0.212602362036705,2.1892650707617403,-8.07853207592964,-5.11026679173708,100,standing
1783068643254145000,3.3074416,0.1863825494416058,0.0782300716280937,0.8374503565728664,-0.0724695473909378,-0.2363236546516418,-0.1693422496318817,2.1930051340729,-8.071871448996662,-5.119181335076689,100,standing
1783068643264107000,3.3174036,0.6715570529304444,-0.1771732609391212,0.8995902941435575,-0.1079742014408111,-0.2079567462205886,-0.1280335485935211,2.192956034234166,-8.06396929756999,-5.131641588199138,100,standing
1783068643274069000,3.3273656,0.2718275208845734,-0.4845137014925479,0.8399936113148927,-0.1077374517917633,-0.1107332706451416,-0.1224456951022148,2.1944990258924664,-8.055752088844775,-5.143870370653271,100,standing
1783068643284031000,3.3373276,-0.3387608302116394,-0.6129232237845659,0.5510872375965118,-0.0660614296793937,-0.0971497446298599,-0.1491944640874862,2.2008510252676903,-8.048250919434428,-5.152892466020584,100,standing
1783068643293993000,3.3472896,-0.2365188916161656,-0.5350765985161066,0.0807516990602016,-0.0152214197441935,-0.1617476493120193,-0.1333353370428085,2.2058995408289133,-8.043048090094327,-5.158852835729718,100,standing
1783068643303956000,3.3572526,0.0625306904539465,-0.5419400545448064,-0.0139765029042959,0.0307277366518974,-0.2706569135189056,-0.0924885123968124,2.204030093695223,-8.04097303738594,-5.162886036768556,100,standing
1783068643313918000,3.3672146,0.0139569214209914,-0.5625450356781483,0.0594546440094709,0.055655188858509,-0.3122608363628387,-0.0732602253556251,2.195292514357716,-8.041466958382726,-5.165837872311473,100,standing
1783068643323880000,3.3771766,-0.0365844944231212,-0.5929542024672031,0.0960802010953426,0.059068277478218,-0.3939799964427948,-0.0513323135673999,2.1825375160723923,-8.043231045445799,-5.168496277865767,100,standing
1783068643333842000,3.3871386,0.0011931553073227,-0.4417196849048137,-0.1371498781085014,0.0399004407227039,-0.468423068523407,-0.007254334166646,2.162566595058888,-8.045126649934053,-5.1739381766587496,100,standing
1783068643343804000,3.3971006,0.0049169981360435,-0.0696919603854417,-0.0116799163997173,0.0841064229607582,-0.4717507660388946,-0.0247338991612195,2.1392400800071654,-8.047848768374323,-5.179398195630312,100,standing
1783068643353767000,3.4070636,-0.3623176468878984,-0.0090273560643196,-0.3935644335448742,0.1365046501159668,-0.5467603206634521,-0.036674179136753,2.1157709416143597,-8.052997821700572,-5.181034856921434,100,standing
1783068643363729000,3.4170256,-0.1539154272094368,-0.0363069926559925,-0.5789701007783412,0.1772150695323944,-0.627458393573761,-0.0034450190141797,2.087233413916081,-8.060733384388685,-5.180581267935037,100,standing
1783068643373691100,3.4269877,0.0902357128508389,-0.095671035772562,-0.3348497942477464,0.2034123241901397,-0.6464256644248962,0.0231269374489784,2.053472452481091,-8.070800604894757,-5.178397494155168,100,standing
1783068643383652900,3.4369495,0.0702531013995409,-0.171876908096671,-0.1097615204453468,0.220946654677391,-0.6692637801170349,0.0345048308372497,2.017341254783421,-8.082282368373871,-5.174690456330776,100,standing
1783068643393615000,3.4469116,0.0362670990370214,-0.2336877598434686,-0.176608612793684,0.1911272406578064,-0.7789668440818787,0.0693650767207145,1.97710656728968,-8.094392492884397,-5.17128912345469,100,standing
1783068643403578000,3.4568746,0.3081250150598585,0.0649018034994602,0.2241395947754383,0.1839573085308075,-0.7703619599342346,0.0663017407059669,1.9313513628087935,-8.105229528719187,-5.171607687884569,100,standing
1783068643413539800,3.4668364,0.0919347718536853,-0.1112912142306566,0.0630056144893169,0.2404006123542785,-0.8263144493103027,0.0417663045227527,1.8859750746428965,-8.117130978915094,-5.169688702520728,100,standing
1783068643423502000,3.4767986,-0.0800568486638367,-0.3615606910407543,-0.426282461798191,0.2870781123638153,-0.882482647895813,0.0275633987039327,1.8393460099369283,-8.131420785552264,-5.164029361584782,100,standing
1783068643433464000,3.4867606,0.088763886732608,-0.3955792804986238,-0.2646007845014334,0.2949565351009369,-0.9040632843971252,0.0240693315863609,1.7912829669050871,-8.146932242938876,-5.156470324507356,100,standing
1783068643443425800,3.4967224,0.2318012154445052,-0.1030102926194667,-0.0716793348103761,0.3111821711063385,-0.9019017219543456,0.0402848571538925,1.7428167498998344,-8.163269629755616,-5.147231371518969,100,standing
1783068643453389000,3.5066856,0.1872371204443275,0.2895107693523168,-0.2328010401368141,0.2909581363201141,-0.9356048703193665,0.0605435222387313,1.6916126323632894,-8.179751393479108,-5.138140887090564,100,standing
1783068643463351000,3.5166476,-0.012671703916043,0.7479185542076826,-0.1848030251652002,0.1882820129394531,-1.0378869771957395,0.0752809271216392,1.636688909781724,-8.19403652394116,-5.133168359375,100,standing
1783068643473312800,3.5266094,-0.1900657679989933,1.137813943850994,0.3478413777679204,0.0833031386137008,-0.9999529719352722,0.069760724902153,1.5784033095516263,-8.20175630453825,-5.139087812551856,100,standing
1783068643483275000,3.5365716,-0.2745161754466593,0.9384569081544876,0.2141471930712461,0.0762511268258094,-1.068170428276062,0.0521921776235103,1.52069828568846,-8.206504960370063,-5.148896089860797,100,standing
1783068643493237000,3.5465336,-0.2078917859382927,0.6687807200849056,-0.4156558538436889,0.0797028541564941,-1.1027007102966309,0.0314972847700119,1.461106863556802,-8.211113915470243,-5.158794383540749,100,standing
1783068643503199000,3.5564956,0.0584152179591357,0.4110720331847667,-0.0648737464487552,0.0824622437357902,-1.0515789985656738,0.0149565646424889,1.4038432998508217,-8.215720532482862,-5.1673547066152095,100,standing
1783068643513162000,3.5664586,0.3342453986138105,0.167611651867628,0.210270059376955,0.0865131840109825,-0.9866851568222046,0.0143174063414335,1.3502249607793986,-8.220209660595655,-5.174497564107179,100,standing
1783068643523124000,3.5764206,0.4763531913906335,-0.1525093598037958,0.0283849674850702,0.117069736123085,-0.94130539894104,0.0177871361374855,1.2992466148227453,-8.225550437101722,-5.179060926499963,100,standing
1783068643533086000,3.5863826,0.4390663939170539,-0.3197130153924226,-0.163600078138709,0.1627490669488906,-0.8721854090690613,0.0175905935466289,1.2510901944190262,-8.23282422749698,-5.179360201707482,100,standing
1783068643543048000,3.5963446,0.3747111183844506,-0.4775906242311,-0.1045733041524887,0.22021484375,-0.8498813509941101,0.0162817202508449,1.205312485845387,-8.242990232202411,-5.174043390598893,100,standing
1783068643553010000,3.6063066,0.4546726169150322,-0.5704559549331665,0.0162871179342269,0.2812451720237732,-0.7895764708518982,0.0201230645179748,1.1614135767556726,-8.256067740440368,-5.163222136855125,100,standing
1783068643562973000,3.6162696,0.4524533334303647,-0.5691694222539663,0.3695101887404918,0.3177921175956726,-0.7153022289276123,0.0245896819978952,1.1209859970383345,-8.271869120684265,-5.146840326374769,100,standing
1783068643572935000,3.6262316,0.3501777117609977,-0.2489385204672813,0.44765725826025,0.3271534144878387,-0.6237603425979614,0.0011701085604727,1.085295821106434,-8.288485324442386,-5.12772295345068,100,standing
1783068643582897000,3.6361936,0.2414569325402379,0.0434206240534782,0.6897510273993015,0.3168782591819763,-0.5352194309234619,-0.0228783003985881,1.0567988446142524,-8.304912727630137,-5.107053090387582,100,standing
1783068643592859100,3.6461557,0.2432795448575168,0.2536795775145292,0.8177543069779872,0.2676063179969787,-0.4621113836765289,-0.065885953605175,1.0350744309969246,-8.319445695373416,-5.087812967866659,100,standing
1783068643602820900,3.6561175,0.1470731600992381,0.3413029159098863,1.1266314555794,0.1873140037059784,-0.4097210466861725,-0.1050353422760963,1.019950511623174,-8.330154720914363,-5.073322670221328,100,standing
1783068643612782800,3.6660794,0.1618324839442968,0.1868114423781633,1.153368071335554,0.1224652230739593,-0.3549576699733734,-0.1058912798762321,1.0095306052219122,-8.336822946631909,-5.064445536282658,100,standing
1783068643622746000,3.6760426,0.3961008201546966,0.0042418753534555,0.8706172976374625,0.1112017333507537,-0.2979717552661896,-0.0816324725747108,1.0004667896047237,-8.341600244036316,-5.058374691936374,100,standing
1783068643632708000,3.6860046,0.5494259533207864,-0.0576525630235671,0.429186366546154,0.1505603194236755,-0.332263171672821,0.0461803488433361,0.9863045548699796,-8.348089606055616,-5.050443898937106,100,standing
1783068643642669800,3.6959664,0.5806093924179673,0.1055184760481119,-0.2824859852820635,0.2141057699918747,-0.3042438626289367,0.0109124779701232,0.966643649653718,-8.357434942027925,-5.038777426540851,100,standing
1783068643652632000,3.7059286,0.7750665272437035,0.662698185300827,-0.0871159733951091,0.3053821325302124,-0.1655733287334442,-0.1205696538090705,0.9610288785118608,-8.370082242155075,-5.018817757573723,100,standing
1783068643662594000,3.7158906,0.2410072890765965,0.7038169621527195,0.3865805660068989,0.2745540142059326,-0.1161504536867141,-0.1622576117515564,0.9658198391154408,-8.38351806231141,-4.99541817728579,100,standing
1783068643672556800,3.7258534,0.3675150694005191,0.4382014476507901,0.813522953018546,0.1914775073528289,-0.0952853858470916,-0.1602679640054702,0.9744348880518228,-8.393535013934969,-4.976890002426504,100,standing
1783068643682519000,3.7358156,0.8791797396037727,0.0084989482760429,0.8415876025080681,0.119910679757595,-0.0686890706419944,-0.1312257200479507,0.9824616887714712,-8.39972685431242,-4.96485177410841,100,standing
1783068643692481000,3.7457776,0.8098753172311931,0.0090104049295187,0.5502993020892143,0.0897242799401283,-0.080271691083908,-0.1268578767776489,0.989666432518512,-8.40353033824861,-4.956976510688662,100,standing
1783068643702443000,3.7557396,0.6680515290275215,0.1229144320070743,0.2062158155500888,0.0725407898426055,-0.0863135308027267,-0.1286618709564209,0.9960684085153044,-8.40625304121077,-4.951074593168497,100,standing
1783068643712405000,3.7657016,0.5579680831514299,0.2050444336831569,0.1724450633734464,0.0484623536467552,-0.0558983646333217,-0.1359488070011139,1.0036498035550117,-8.4078780120641,-4.946782448932528,100,standing
1783068643722368000,3.7756646,0.442287109529227,0.1506599325448274,0.354744581285119,0.0146332811564207,-0.0190382283180952,-0.1333412379026413,1.0132380814377218,-8.408112989863753,-4.94442974832654,100,standing
1783068643732330000,3.7856266,0.25262904554829,0.0033633389532566,0.3558721240103245,-0.0090105291455984,-0.0172765478491783,-0.1164533272385597,1.0231812371727078,-8.406861528497934,-4.944509827825427,100,standing
1783068643742292000,3.7955886,0.1328867407713085,-0.1804068360328674,0.1122305409073829,-0.0019509231206029,-0.0812160372734069,-0.0100906454026699,1.028001716131717,-8.405499592494964,-4.945824417555332,100,standing
1783068643752254000,3.8055506,-0.300314487439394,-0.6377934611469507,-0.6058651219666004,0.0228819884359836,-0.319605678319931,0.1723803728818893,1.0058557891666888,-8.407201135715841,-4.947485628765821,100,standing
1783068643762216200,3.8155128,0.1101839105758815,-0.1375952837884426,-0.8548509887069463,0.0681455209851265,-0.208526462316513,0.0833349898457527,0.9824698720779268,-8.410751521673799,-4.946149411725997,100,standing
1783068643772179000,3.8254756,0.1119648026432841,-0.0236199450403451,0.2533060680270195,0.0619922950863838,-0.1285096555948257,0.0859994813799858,0.9675209439449012,-8.414893443784118,-4.942050744235515,100,standing
1783068643782141000,3.8354376,0.1682144400663673,-0.0956552536815404,0.5404793343424796,0.0255876425653696,-0.0488441362977027,0.0593304559588432,0.9569107026033102,-8.417676352500916,-4.9393759720683095,100,standing
1783068643792103200,3.8453998,0.303760463174805,-0.2227045935362577,0.6511988861650229,-0.0117884911596775,-0.022376574575901,0.1031743437051773,0.948556496560201,-8.418717385986447,-4.939214059504867,100,standing
1783068643802065000,3.8553616,0.0701641079418361,-0.1070849947124719,0.3968149597734212,-0.0362229719758033,-0.0233745090663433,0.1276687234640121,0.9377948640491812,-8.418517479500174,-4.941608261165023,100,standing
1783068643812027000,3.8653236,0.0920162395920604,-0.0318576120316982,0.1230669922202825,-0.0352437272667884,-0.0290233399718999,0.1434916257858276,0.9250705531630664,-8.418027650156617,-4.9448389136493205,100,standing
1783068643821989000,3.8752856,0.017591989987716,0.1224935762465,-0.0410521413564681,-0.0194247215986251,-0.0672911629080772,0.1357248872518539,0.9110589789453892,-8.417953415876626,-4.947566292786598,100,standing
1783068643831952000,3.8852486,0.0041472558725625,0.2074164235115051,-0.1731435670316219,0.0056444122456014,-0.0958810001611709,0.1306531578302383,0.8957733662039041,-8.418779929828643,-4.948951025143265,100,standing
1783068643841913900,3.8952105,0.0261196529015898,0.1193552782207727,-0.1141828440189361,0.0357685834169387,-0.1243007406592369,0.1355541497468948,0.8793374874487518,-8.42095025960505,-4.948206928777695,100,standing
1783068643851876000,3.9051726,0.0098510204721242,0.1090396359115838,-0.1043839190602302,0.0682069510221481,-0.1445024162530899,0.1328513175249099,0.8613389624867588,-8.424700552049279,-4.944986797687411,100,standing
1783068643861837800,3.9151344,0.0452132065586745,0.1098386773347854,-0.08838263233006,0.1096255183219909,-0.1616211533546447,0.1357278227806091,0.8425865504175424,-8.430287412270904,-4.9386920814573765,100,standing
1783068643871800000,3.9250966,0.1489521787788718,0.0603624065041542,-0.0803717598319053,0.1308290660381317,-0.1989237815141677,0.1300169378519058,0.8226447824332863,-8.437374740183353,-4.929943542334437,100,standing
1783068643881763000,3.9350596,-0.0160824622076004,0.0257195476680994,0.0532616345882415,0.144495740532875,-0.2115866392850875,0.122345931828022,0.8024280699651688,-8.445078738689421,-4.920074474748969,100,standing
1783068643891725000,3.9450216,0.1369197956796735,-0.1191769990444183,0.1960562405854463,0.1407050043344497,-0.2013302743434906,0.1229358240962028,0.7821542935475707,-8.452962185415625,-4.909789812099933,100,standing
1783068643901686800,3.9549834,0.3772536424741148,-0.3562321894943714,0.2288388585075736,0.1389951556921005,-0.2017443180084228,0.1724438816308975,0.7601418567690997,-8.460863752320408,-4.899627022264897,100,standing
1783068643911649000,3.9649456,0.5919970478728414,-0.5593091224968433,-0.1073582586959004,0.1494792252779007,-0.2329389899969101,0.2112538665533065,0.7330437872894108,-8.469374391034245,-4.889041038581729,100,standing
1783068643921611000,3.9749076,0.2448961132086813,-0.3377776643931865,-0.1831225247323513,0.1656544357538223,-0.2363548874855041,0.2208650112152099,0.7032077442131937,-8.478570089402794,-4.877471304558218,100,standing
1783068643931573800,3.9848704,-0.0227866360213607,-0.105434304895997,-0.0644645811259746,0.1763851195573806,-0.2266692370176315,0.2241090089082718,0.6731117350265383,-8.488404085674881,-4.86459837898165,100,standing
1783068643941536000,3.9948326,-0.1702219804964959,0.0442336940020322,-0.0119335988998413,0.1731183379888534,-0.2100262939929962,0.2260965555906295,0.643525867319107,-8.498309393617511,-4.851288523292541,100,standing
1783068643951498000,4.0047946,-0.0845707458917051,0.0308142404586076,0.0619435382157564,0.1690021604299545,-0.1829672455787658,0.2370879650115966,0.6142878632012755,-8.508084937700628,-4.83792722967714,100,standing
1783068643961460000,4.0147566,-0.169667853745073,0.1089011042237281,0.122163321378827,0.1643614768981933,-0.1513157039880752,0.2291379570960998,0.5864086532812566,-8.517486972296238,-4.824824294736981,100,standing
1783068643971422000,4.0247186,-0.3107493722140789,0.256216402515769,0.1083083990275859,0.1522417068481445,-0.1413709223270416,0.2165918052196502,0.560494642486982,-8.526387487110496,-4.812166473215818,100,standing
1783068643981384000,4.0346806,-0.2905255358854308,0.2409469371914863,0.0657885232061147,0.1172309517860412,-0.121008813381195,0.2005477994680404,0.5365296468686312,-8.534011990639566,-4.8013697693914175,100,standing
1783068643991347200,4.0446438,-0.2263307846767827,0.17396774289608,-0.0045399815171957,0.0884357914328575,-0.1130603402853012,0.1836577653884887,0.514532699920237,-8.539906893897056,-4.793290507832169,100,standing
1783068644001309000,4.0546056,-0.1760383751576766,0.2025947024434805,-0.0600204611986875,0.0570881180465221,-0.0912608280777931,0.1541325896978378,0.495065782906115,-8.544142924031615,-4.787788695545494,100,standing
1783068644011271000,4.0645676,-0.0599571501715108,0.1972118403613567,0.0917547391116619,0.0318570658564567,-0.0242397151887416,0.1387190073728561,0.4799899769904092,-8.546990130156278,-4.784240647675096,100,standing
1783068644021233200,4.0745298,0.0904084756018593,0.2649789701640606,0.3738759827345609,-0.0163753479719162,0.02778853289783,0.0966664776206016,0.469984423543699,-8.548018888682126,-4.783396598066389,100,standing
1783068644031195000,4.0844916,-0.0357288274418562,0.4595943642914294,0.4250426908701658,-0.068088874220848,0.0681569948792457,0.045922864228487,0.4660865393223241,-8.546309746676682,-4.786829202863574,100,standing
1783068644041158000,4.0944546,-0.0916472236165776,0.5395043518304824,0.2865367219775915,-0.1037128865718841,0.1035397127270698,-0.0097985053434968,0.4687339485585689,-8.542274207550287,-4.793771277086437,100,standing
1783068644051120000,4.1044166,-0.0520128401035442,0.5588081872373819,0.1086284247621893,-0.1285077184438705,0.1203375980257988,-0.0537590384483337,0.4768341067753732,-8.536437171959877,-4.803358020599186,100,standing
1783068644061081900,4.1143785,0.0382234938018023,0.4501467369884252,0.0542462617114186,-0.1465321630239486,0.1469209194183349,-0.0836535692214965,0.4892490594513714,-8.52952987678945,-4.814367782652377,100,standing
1783068644071044000,4.1243406,0.1188366246415302,0.2726122415214776,0.1190291150063276,-0.1720164865255355,0.1534645706415176,-0.0993126854300499,0.5042543574141338,-8.521385148778558,-4.8272266797035925,100,standing
1783068644081006000,4.1343026,0.1788184708628803,0.143142981043458,0.0253635738372802,-0.1822315603494644,0.140111431479454,-0.1048129647970199,0.5198394645588472,-8.512374159327148,-4.8414501431062815,100,standing
1783068644090969000,4.1442656,0.2082885301709175,0.1212082126110792,-0.10558715737015,-0.1709685176610946,0.1299080699682235,-0.113539345562458,0.5355598885210231,-8.50330764029622,-4.855647595284879,100,standing
1783068644100930800,4.1542274,0.2625709591742605,0.0609919365793466,-0.1024827616140246,-0.1714494675397873,0.1330786049365997,-0.1194822788238525,0.5517568439537659,-8.494416477832198,-4.869375968647003,100,standing
1783068644110893000,4.1641896,0.2992304550623521,-0.0353606517165899,0.0391717344373464,-0.189381331205368,0.1465709656476974,-0.1151660904288292,0.5685178995426744,-8.485003337320684,-4.883838501502574,100,standing
1783068644120854800,4.1741514,0.3164469262685626,-0.0837502963542938,0.0725482265993952,-0.1980185508728027,0.1379432082176208,-0.0990350246429443,0.584371338767372,-8.47477186616361,-4.8997073940247295,100,standing
1783068644130817000,4.1841136,0.3016591800466179,-0.0818868405699729,0.0354781406164169,-0.1917912811040878,0.1289132237434387,-0.0804416313767433,0.598410933503136,-8.46466489816904,-4.915459089908004,100,standing
1783068644140779000,4.1940756,0.2928297577071935,-0.0456102430522441,0.0646510436087846,-0.1709422171115875,0.0972882583737373,-0.0648129731416702,0.6100833607161418,-8.45530144201815,-4.930117145335674,100,standing
1783068644150742000,4.2040386,0.2009231890346854,8.53401958942e-05,-0.0446633175909519,-0.1482654064893722,0.063773438334465,-0.0657038018107414,0.619389935580641,-8.446978434830903,-4.943206344011426,100,standing
1783068644160704000,4.2140006,0.0653918520387262,0.0752303052902221,-0.1481505800724029,-0.1149549558758735,0.032185286283493,-0.0698715895414352,0.6274301803037524,-8.44012199306488,-4.953893157720565,100,standing
1783068644170665000,4.2239616,0.0482068354167044,-0.0130225631803274,-0.1476525674223899,-0.0955293253064155,0.0223462395370006,-0.0675458461046218,0.6344397668048739,-8.434469081869722,-4.962621238577365,100,standing
1783068644180627200,4.2339238,0.1166324291281402,0.0384229618966579,-0.0669441229820251,-0.0764936581254005,0.0197058282792568,-0.0690123662352562,0.6409826856423169,-8.429799921014904,-4.969707397446036,100,standing
1783068644190589200,4.2438858,0.0530533986650407,0.1132891100496053,-0.0022521628409624,-0.0640114247798919,0.0242057740688323,-0.0747948884963989,0.648148412553221,-8.425956689590215,-4.975292504101992,100,standing
1783068644200552000,4.2538486,-0.0475444990504533,0.0996861166328191,0.0020692074894905,-0.0523650050163269,0.0033158054575324,-0.080331265926361,0.6552228079188614,-8.422679275354742,-4.979913734161854,100,standing
1783068644210514200,4.2638108,-0.0345360374607145,0.0233645089745521,-0.0872539205610752,-0.0344027802348136,-0.0291694328188896,-0.078281432390213,0.6613678865451366,-8.41997995326817,-4.983665780171751,100,standing
1783068644220476200,4.2737728,-0.0239914817664772,-0.0051882162928581,-0.230686239939928,-0.0076186647638678,-0.0652992650866508,-0.0818132236599922,0.665637453623116,-8.418360827633737,-4.985829680207371,100,standing
1783068644230438000,4.2837346,-0.1249321285050362,0.1777466769129037,-0.1901063922703266,0.011311350390315,-0.0716916471719741,-0.0962579473853111,0.669762716859579,-8.417840603151918,-4.986158181509375,100,standing
1783068644240400100,4.2936967,-0.1215905629921704,0.1962245828896761,-0.0023357494711875,-0.0051825558766722,-0.0703675150871276,-0.1019689738750457,0.674651073423028,-8.417464755576848,-4.986133047068119,100,standing
1783068644250362000,4.3036586,-0.028571356902644,0.0757756642132997,0.1427004979729652,-0.0311952456831932,-0.0612733513116836,-0.098026692867279,0.6796445708613842,-8.415977147367595,-4.987966107714176,100,standing
1783068644260325000,4.3136216,-0.0390036843940615,0.0834060129612684,0.1894534813195467,-0.0573247969150543,-0.0486587062478065,-0.088208369910717,0.6846900176826864,-8.41313286385238,-4.992072373989224,100,standing
1783068644270287000,4.3235836,-0.0752692490611225,0.148105571886897,0.0755552994608879,-0.0707455277442932,-0.0556327253580093,-0.0873183384537696,0.6893819018259644,-8.409298400256038,-4.997884275138378,100,standing
1783068644280249000,4.3335456,-0.0563462296653538,0.0556879849523305,-0.0753846190690994,-0.0723522529006004,-0.0800456330180168,-0.0781091526150703,0.6927550315208733,-8.405166999539732,-5.004362531241775,100,standing
1783068644290211300,4.3435079,-0.0651366351686418,-0.0077718030452728,-0.1528980668604374,-0.0609848164021968,-0.1365685611963272,-0.0020476731006056,0.6928663829408586,-8.401412030920385,-5.010646726077795,100,standing
1783068644300173000,4.3534696,-0.4636980732832104,-0.5166191508054733,-0.7327817753523588,-0.0578981935977935,-0.4214063584804535,0.1366187781095504,0.6670555037274957,-8.399237024968862,-5.017790752613545,100,standing
1783068644310136000,4.3634326,-0.1291095603201538,0.1970119338750839,-0.9192086023271084,-0.0183846075087785,-0.2564331293106079,-0.0489721186459064,0.6462570458486676,-8.397452479639648,-5.023499193388223,100,standing
1783068644320098000,4.3733946,0.1769307574201375,0.5426344665497541,0.7891150724709034,-0.0224115550518035,-0.0799372643232345,-0.1127387434244155,0.6471236726153642,-8.395915771591662,-5.025954769846797,100,standing
1783068644330060000,4.3833566,0.2849290675852448,0.1301911450117826,0.8358949438244104,-0.0373614765703678,-0.0852374881505966,-0.0933967381715774,0.6516525482166559,-8.393627952915429,-5.029189513984322,100,standing
1783068644340022000,4.3933186,0.1010861926890909,-0.0805395176142454,0.0782972916454076,-0.0155465342104434,-0.1111890524625778,-0.0857194513082504,0.6539851558826864,-8.391641747534274,-5.032199217194319,100,standing
1783068644349984300,4.4032809,-0.0785654410623013,0.0581985064685344,-0.1622866574525833,0.0009546785149723,-0.1182373762130737,-0.0918199568986892,0.6557176056984811,-8.390768471831082,-5.033430220293998,100,standing
1783068644359947300,4.4132439,-0.1097940344754606,0.0283352831244468,-0.1473696588277816,0.0008749929256737,-0.1314934641122818,-0.0914611890912056,0.657168315963447,-8.39023421882391,-5.034131646561622,100,standing
1783068644369909000,4.4232056,-0.0252373171091079,0.0178454532921314,-0.1570879197657108,0.0024912655353546,-0.1466665565967559,-0.0797512680292129,0.6573064823251217,-8.389770108443498,-5.0348880178868765,100,standing
1783068644379871200,4.4331678,0.0085957597140222,0.0884352393001318,0.02292085686028,-0.0039804438129067,-0.1283972710371017,-0.0737683549523353,0.6566930266018957,-8.389282617187499,-5.0357805828124285,100,standing
1783068644389833200,4.4431298,-0.0588186111282557,0.1826975773185491,0.2537777771919965,-0.0087778614833951,-0.1133930161595344,-0.0787442028522491,0.65706953176409,-8.388373685649038,-5.037243056580424,100,standing
1783068644399795000,4.4530916,-0.0645155075956136,0.1982066966176033,0.1571989789247512,-0.012621278874576,-0.1181351095438003,-0.075093038380146,0.6578286065030843,-8.387274199974536,-5.038975579461456,100,standing
1783068644409757200,4.4630538,-0.1141118246093392,0.1680816074669361,0.0160913031011819,0.0082608330994844,-0.1338339149951934,-0.0772259682416915,0.6580442950803786,-8.386627134242653,-5.040023042687773,100,standing
1783068644419720200,4.4730168,-0.1502849617525935,0.1465618495762348,0.0059638768404722,0.0192105509340763,-0.138852834701538,-0.0769537538290023,0.6577059299714862,-8.386804828897118,-5.039772282797098,100,standing
1783068644429682000,4.4829786,-0.0499923305939883,0.0622562574267387,0.037809213912487,0.0208947360515594,-0.1409338414669037,-0.069976270198822,0.6567728869050741,-8.387344342601299,-5.0389972067713735,100,standing
1783068644439644200,4.4929408,0.0587686345066875,-0.019369886380434,0.1174029751092195,0.0222111344337463,-0.138943001627922,-0.0566862262785434,0.6551524460963905,-8.388018880861997,-5.038085937145352,100,standing
1783068644449606100,4.5029027,0.0630148937743157,-0.0543278025150299,0.1772322976499795,0.0193668790161609,-0.1345826089382171,-0.0476658344268798,0.652701691943407,-8.388674714422226,-5.037312030163407,100,standing
1783068644459568000,4.5128646,-0.0103274058122187,-0.0902279679358005,0.1963315503954887,0.0137731973081827,-0.1197832077741622,-0.0382260382175445,0.6498784512162208,-8.389286124318838,-5.036659703734517,100,standing
1783068644469531100,4.5228277,-0.0392566362418234,-0.0745849931240081,0.1424175893783569,0.0072774803265929,-0.1095872968435287,-0.0361940450966358,0.6472341472525149,-8.389515841421485,-5.036614111027121,100,standing
1783068644479493000,4.5327896,-0.1569187006786465,-0.0304494987994432,0.0692915628910064,0.008187461644411,-0.1048914119601249,-0.0410415604710578,0.6450364910777658,-8.389658464762569,-5.036661457300186,100,standing
1783068644489455000,4.5427516,-0.2220642498061061,0.0230769242048263,0.0387543858081102,0.0059703802689909,-0.0976806357502937,-0.0459486991167068,0.6437430172011256,-8.389763678702712,-5.036649766862392,100,standing
1783068644499417000,4.5527136,-0.1992370625786483,-0.0026689269483089,0.0568611203849315,0.009477955289185,-0.0888811498880386,-0.0473269559442997,0.6430621222648769,-8.389905717521906,-5.036501298302412,100,standing
1783068644509379000,4.5626756,-0.1969745244741439,0.0448240611106157,0.1214051964879035,0.0086198840290308,-0.0975169837474823,-0.0450728572905063,0.6422960332632064,-8.390113222792744,-5.036252876499295,100,standing
1783068644519341000,4.5726376,-0.1516241744671017,-0.0282277310967445,0.0719341863542795,0.0138877872377634,-0.1046054512262344,-0.0359545610845088,0.6406399366192519,-8.390383856427668,-5.036012053480744,100,standing
1783068644529304000,4.5826006,-0.1155740791816264,-0.0801718533456325,0.1260223348945379,0.0172995626926422,-0.0996160209178924,-0.0327374599874019,0.6384078667182475,-8.39096253309846,-5.035332839044928,100,standing
1783068644539266000,4.5925626,-0.1440513280600309,-0.0291769946455955,0.1406055715203285,0.0239532981067895,-0.1018351763486862,-0.0336576737463474,0.6359102777488529,-8.391828794538974,-5.034204711797833,100,standing
1783068644549228300,4.6025249,-0.1608518754091113,0.000658171647787,0.1508259367614984,0.0299693793058395,-0.0834037065505981,-0.0314669571816921,0.6340059784974903,-8.392933540910482,-5.032603121820092,100,standing
1783068644559190000,4.6124866,-0.180620186522603,0.0404079982340335,0.195959794473648,0.0213037766516208,-0.0533535853028297,-0.04142302647233,0.6335732861686497,-8.394076865726708,-5.030750771951675,100,standing
1783068644569152000,4.6224486,-0.1616213984768837,0.1109556986659765,0.2739262467294931,0.016200628131628,-0.025869496166706,-0.0457557253539562,0.6353741981107741,-8.394743220680951,-5.029409294214845,100,standing
1783068644579115300,4.6324119,-0.1704852345425635,0.1548743353694677,0.2750830155491828,0.016550550237298,-0.020062668249011,-0.0500043667852878,0.6382523108303546,-8.395266952294111,-5.028171276852488,100,standing
1783068644589077000,4.6423736,-0.1506511647164821,0.0635223318397998,0.2543552848190069,0.0048685944639146,-0.0126257920637726,-0.0491428337991237,0.6417619263865053,-8.395494331309198,-5.027345931944251,100,standing
1783068644599039000,4.6523356,-0.067417147321254,-0.1070581067055463,0.2265162607789039,-0.0130048114806413,-0.007770522031933,-0.0415115095674991,0.6448685871649533,-8.394901626113057,-5.027938052618503,100,standing
1783068644609001200,4.6622978,-0.1187372193876653,-0.0958154126793146,0.2442389644742011,-0.0190302152186632,-0.0016817371360957,-0.0408678241074085,0.648005277755484,-8.393724399027228,-5.029499895107746,100,standing
1783068644618963000,4.6722596,-0.1662150098774582,0.0015361235260963,0.1639578055351972,-0.0097818942740559,-0.0154430940747261,-0.0504558682441711,0.6513401943318545,-8.392614391958713,-5.030920867821574,100,standing
1783068644628926000,4.6822226,-0.2084687821086496,0.0793172823429107,0.0557061051309108,0.0031152623705565,-0.0342255681753158,-0.054915864020586,0.6545384058512747,-8.39213508400917,-5.031306652268767,100,standing
1783068644638888200,4.6921848,-0.196037755080685,0.0546001897156238,0.0504915853530168,0.0164466295391321,-0.0442124120891094,-0.0614324957132339,0.65737034134157,-8.392259002649784,-5.030730313685536,100,standing
1783068644648850200,4.7021468,-0.1624822530899196,0.0464449403107166,0.1465776316672563,0.0157046727836132,-0.0531230829656124,-0.0676163509488105,0.6604761253371835,-8.392631343093514,-5.029701555159687,100,standing
1783068644658812200,4.7121088,-0.1183164366923272,0.0575724835246801,0.1378466282010078,0.013848315924406,-0.0249020364135503,-0.0756225734949112,0.6643440528117119,-8.392985563358664,-5.028602069485188,100,standing
1783068644668774100,4.7220707,-0.0511639316566288,0.0974210943102836,0.343612361896038,-0.0035684911999851,-0.0006779242539778,-0.0866232886910438,0.6708131026953459,-8.39273129633665,-5.02816718519926,100,standing
1783068644678736100,4.7320327,-0.0009852116450667,0.0498749147593975,0.2954161940038204,-0.0072071682661771,0.0137404296547174,-0.0887658074498176,0.6782449331965297,-8.391872049158811,-5.028603823050856,100,standing
1783068644688699000,4.7419956,-0.0147786130674183,0.0009188684105873,0.1388777248144149,-0.0082585848867893,0.0076641612686216,-0.0870768278837204,0.6860529035337269,-8.390800036013125,-5.029333890891075,100,standing
1783068644698661000,4.7519576,-0.0520659950628876,-0.0638514176636934,0.0205313313752412,-0.0069636986590921,0.029029568657279,-0.0865674018859863,0.6940113882575184,-8.389775953662395,-5.029949392440915,100,standing
1783068644708623000,4.7619196,-0.0559320959065109,-0.0402069227039814,0.0783317784368991,-0.0034363414160907,0.0539378486573696,-0.08836130797863,0.703414080440253,-8.388879297083616,-5.030139946576953,100,standing
1783068644718585000,4.7718816,-0.0306035933826118,0.0238508311867713,0.051358431315422,-0.0084725115448236,0.0450646691024303,-0.0803865045309066,0.7131005580004304,-8.38799433094263,-5.030250421214103,100,standing
1783068644728547000,4.7818436,0.0121218880135566,0.0235281751036644,0.0371972194939851,-0.0078426729887723,0.0363004729151725,-0.07221619784832,0.7214016456168144,-8.387072539922595,-5.030604056957364,100,standing
1783068644738510000,4.7918066,-0.1188609918978065,-0.1801671820580959,0.0108446346193552,-0.022713990882039,-0.1882671266794204,0.2517785131931305,0.7132214079011231,-8.386884323874115,-5.032083481860161,100,standing
1783068644748472300,4.8017689,0.0537263294905424,-0.4769377132803201,-0.95493925639987,-0.0188625287264585,-0.1474267393350601,0.0847751423716545,0.6887754603654146,-8.386696107825637,-5.0358022101223465,100,standing
1783068644758434000,4.8117306,0.6437385602217167,0.2680640766978264,0.3207546333998441,-0.0138792619109153,0.0111377155408263,0.0646192282438278,0.6810029997330158,-8.38650204655826,-5.037181681782007,100,standing
1783068644768396000,4.8216926,0.0723451783079654,0.1995376529604196,0.8784732718348502,-0.0540120378136634,0.0276692882180213,0.0491590425372123,0.6762918263673782,-8.385163491430879,-5.040044085475802,100,standing
1783068644778358000,4.8316546,0.4128641042333096,0.3919418007791042,0.3276221810817718,-0.0518816597759723,0.1384433358907699,-0.0601472742855548,0.6812859083276241,-8.382440203946828,-5.043899591860175,100,standing
1783068644788321000,4.8416176,0.2724278979305178,0.2763227864772081,0.5432563978403806,-0.064754843711853,0.1819356828927993,-0.0570753179490566,0.6943808060918003,-8.379200199112296,-5.047497908613085,100,standing
1783068644798283000,4.8515796,0.105941669896245,0.0270031577378511,0.1783604248970746,-0.0766910165548324,0.1624769270420074,-0.0552680492401123,0.7079374030835927,-8.375136602935195,-5.052356454560161,100,standing
1783068644808245200,4.8615418,0.2433952801916748,-0.1236141047090291,-0.1280763448148965,-0.0733157247304916,0.154809683561325,-0.047450341284275,0.7201211773522198,-8.371013385525345,-5.057465175876021,100,standing
1783068644818207000,4.8715036,0.1738631865430623,0.0128290864348411,-0.1049322005927562,-0.0749029889702797,0.1118292659521102,-0.0405880138278007,0.730845911918953,-8.366946866738795,-5.062652807646989,100,standing
1783068644828169200,4.8814658,0.2732108650017529,-0.0723217243671417,-0.2666097862362862,-0.0630607083439827,0.076871819794178,-0.0167817492038011,0.7378904236029833,-8.363198327860236,-5.067821150195599,100,standing
1783068644838131200,4.8914278,0.2547603584885597,-0.041740708142519,-0.2610673496782779,-0.0416030175983905,0.0412991531193256,-0.004515609703958,0.7416763718824834,-8.36041074296832,-5.071867210716009,100,standing
1783068644848094000,4.9013906,0.1930637807711958,0.1383300278037786,-0.2764057885855436,-0.01715599745512,0.0071877893060445,0.0013625193387269,0.7430688491541891,-8.358971065554023,-5.074036371448636,100,standing
1783068644858056200,4.9113528,0.2090393485382199,0.1868348232537507,-0.2064706670939922,0.007540263235569,-0.0029521724209189,0.0036392314359545,0.7431047241851687,-8.35884422430396,-5.074240369588137,100,standing
1783068644868018200,4.9213148,0.23800028928034,0.2479518475174903,-0.1035012910068035,0.026628203690052,-0.0029194154776632,-0.00653644092381,0.7430237679034472,-8.359657294252514,-5.0729123358547685,100,standing
1783068644877980000,4.9312766,0.275940143835172,0.2593716516762971,-0.0586100098788738,0.0307934582233428,-0.0033146487548947,-0.0095376688987016,0.7436904151186347,-8.361050209915637,-5.070517549672722,100,standing
1783068644887942100,4.9412387,0.298290872657299,0.211269591808319,-0.0072749594390392,0.0266266763210296,0.0006910118972882,-0.0041988301090896,0.744234312736988,-8.362628419017792,-5.067834009677172,100,standing
1783068644897905200,4.9512018,0.3009813538502902,0.1124304473936557,0.0563987635701894,0.0119393253698945,0.000147798215039,0.002635536249727,0.7443870190806686,-8.363746609392761,-5.065965293195843,100,standing
1783068644907867100,4.9611637,0.3369263813260942,-0.0133218383878469,0.0757902772605419,-0.0111332368105649,0.0149326026439666,0.0191119816154241,0.7437562468964606,-8.363839548373221,-5.065904502919316,100,standing
1783068644917829000,4.9711256,0.3815122497666627,-0.1133358718007803,0.0782353323251009,-0.028383482247591,0.0198598485440015,0.0422673039138317,0.7422660083387047,-8.363035830774903,-5.067452316883206,100,standing
1783068644927791000,4.9810876,0.3896189107894897,-0.135289344933629,0.0273293209522962,-0.0291528701782226,0.0131010115146636,0.0543527267873287,0.7390976074356586,-8.361881984564661,-5.069817292448878,100,standing
1783068644937753000,4.9910496,0.3218387023095041,-0.0885585734188556,-0.0103998134613037,-0.0256647188216447,-0.0022954533342272,0.0700824558734893,0.7341537212926894,-8.36087836048007,-5.072190451321005,100,standing
1783068644947715000,5.0010116,0.2758985697157681,-0.0577688828796148,-0.043316579157114,-0.010299077257514,-0.0199708528816699,0.0713671669363975,0.7275712010972202,-8.360543429437278,-5.073690919011831,100,standing
1783068644957678000,5.0109746,0.1767304125424474,0.0700748222231864,-0.0517599978536367,0.0050387559458613,-0.0190267469733953,0.0650732964277267,0.7207958617433905,-8.36089648065865,-5.074076703459024,100,standing
1783068644967640000,5.0209366,0.1540220293890684,0.1723141304701566,0.0826467190265655,0.0088707786053419,0.0096866572275757,0.0559780709445476,0.7156715775322169,-8.36168090903461,-5.073509717226028,100,standing
1783068644977602000,5.0308986,0.1180807282403111,0.2510451373577118,0.1497398950904607,0.0055417278781533,0.0134895667433738,0.0395964197814464,0.7122583350226283,-8.362301671281456,-5.072966696390509,100,standing
1783068644987564000,5.0408606,0.0597564034350216,0.2508814712285995,0.0569511367559432,0.0103295585140585,0.0110980495810508,0.0268023274838924,0.7101289948437363,-8.363034661731124,-5.072054842242598,100,standing
1783068644997526300,5.0508229,-0.0077903616152703,0.2022767225354909,-0.0092605802983045,0.0166676882654428,0.0069890394806861,0.0148049322888255,0.7089919536378234,-8.363810322278738,-5.070934898301958,100,standing
1783068645007489300,5.0607859,-0.0052705608140677,0.1370475867778062,-0.079648706254363,0.02728171646595,-0.0004744695033878,0.0114059392362833,0.7079686750046909,-8.365020867112278,-5.0690819639116524,100,standing
1783068645017451000,5.0707476,0.029097791929543,0.1006546694040298,-0.0637584786832332,0.039833765476942,0.0082350159063935,0.0091502973809838,0.7072687100417911,-8.366784954175353,-5.066266906490922,100,standing
1783068645027413200,5.0807098,0.1086203875862062,0.0774006350666284,-0.0215536601603031,0.0527026951313018,0.0060019548982381,0.0135626224800944,0.7067549153007566,-8.36926917220652,-5.062233705452084,100,standing
1783068645037375200,5.0906718,0.1769414980098605,0.1040308678388595,-0.0467564904779195,0.0713391155004501,0.0031828680075705,0.0168769918382167,0.7057706535037607,-8.372555938792228,-5.056933260956407,100,standing
1783068645047337000,5.1006336,0.1712383179321885,0.1032850179076194,-0.0212099612891674,0.0815443471074104,0.0170890968292951,0.0153797622770071,0.7048897059507667,-8.376448854577541,-5.050606396022439,100,standing
1783068645057299200,5.1105958,0.19468787484169,0.0227834942162036,0.0634527737349271,0.0764446929097175,0.0243772268295288,0.0259503219276666,0.7041852840084583,-8.380493746054173,-5.043991361796856,100,standing
1783068645067262200,5.1205588,0.1717755666140467,-0.0185948103547096,0.0896884542316198,0.0673228353261947,0.0384296625852584,0.0285359844565391,0.70345463164635,-8.38430424425304,-5.03775509775579,100,standing
1783068645077224000,5.1305206,0.1074446218051016,0.0791173758566379,0.0924023893654346,0.0617976002395153,0.0360915996134281,0.0276780184358358,0.7029925670925528,-8.387745324617624,-5.032088742557168,100,standing
1783068645087186200,5.1404828,0.0833205266349017,0.0977963573634624,0.0335129780232906,0.0523031651973724,0.0300808474421501,0.0259634759277105,0.7024266037728637,-8.390712357729672,-5.027219090694189,100,standing
1783068645097148200,5.1504448,0.0808503371290862,0.1290969200342893,0.0151905548691749,0.0502939037978649,0.0194099098443985,0.0232036616653203,0.7014549822617322,-8.393432138082385,-5.022812964689732,100,standing
1783068645107110100,5.1604067,0.0994713779035955,0.167259185168147,0.0080213938921689,0.0464831888675689,0.0125131215900182,0.0166695974767208,0.7004912517961114,-8.395830431395769,-5.01893583099544,100,standing
1783068645117073200,5.1703698,0.1147706538442522,0.1254693771868944,0.0418184495538473,0.0425471328198909,0.0372828505933284,0.0148859079927206,0.7003055199656635,-8.398184301045536,-5.015024210509657,100,standing
1783068645127035100,5.1803317,0.0936500513389706,0.1126397062301635,0.1466822610855102,0.0387401431798934,0.0399808995425701,0.0094434712082147,0.7013743913061916,-8.400168752861022,-5.01155039691925,100,standing
1783068645136996900,5.1902935,0.0805973122160881,0.0889092865526676,0.1161596970498561,0.0309880003333091,0.0514314770698547,0.0110320933163166,0.7026058327972888,-8.402026363426446,-5.0082618767678735,100,standing
1783068645146959000,5.2002556,0.0767740276008844,0.0179839849799871,0.1489461143642663,0.020931638777256,0.0598915442824363,0.0126457028090953,0.7044839746940881,-8.403376024469733,-5.005733819594979,100,standing
1783068645156921000,5.2102176,0.1048797397531569,0.0178197343289852,0.1608960798770189,-0.0004959248472005,0.0628062486648559,0.0189715679734945,0.7061560726247728,-8.403961130881308,-5.004516260498762,100,standing
1783068645166883600,5.2201802,0.1061787665877491,-0.0209855048835277,0.1563742185384035,-0.0143124042078852,0.0684223249554634,0.0223180968314409,0.7077000871963799,-8.403760639873147,-5.00463199583292,100,standing
1783068645176846800,5.2301434,0.0690155954938381,0.0253793559283018,0.1012766006946563,-0.0147941838949918,0.0557988919317722,0.0196345075964927,0.7089503064531832,-8.40313929310441,-5.005498841795325,100,standing
1783068645186808600,5.2401052,0.0098657796498388,0.0673977119684219,0.0459545264452695,-0.0157321486622095,0.0332080945372581,0.0172552391886711,0.7097413837656378,-8.402511516594886,-5.006441091081499,100,standing
1783068645196770600,5.2500672,0.0587692190285772,-0.0125239660084247,0.0108808749765157,-0.0087418518960475,0.0258859768509864,0.0247102510184049,0.7093205280050635,-8.402046821692586,-5.0072798799932,100,standing
1783068645206732800,5.2600294,0.104968514015153,-0.0191360776245594,0.1026765306204557,-0.0132282124832272,0.0551384054124355,0.0258982870727777,0.7092095419112593,-8.401569851830601,-5.008095872551203,100,standing
1783068645216694500,5.2699911,0.0887169788509607,0.1033265189617872,0.1852232964038848,-0.0210824441164731,0.0689670145511627,0.0212636459618806,0.7103476790957153,-8.40088128504455,-5.009090144285559,100,standing
1783068645226657500,5.2799541,0.0861155641809105,0.0709440062731504,0.1655915442168712,-0.0279067941009998,0.0738858729600906,0.0272083543241024,0.7120512681432067,-8.399772447019815,-5.010708100876212,100,standing
1783068645236619800,5.2899164,0.0759068893775343,0.0281494051635265,0.162091427141428,-0.0355271250009536,0.0827424824237823,0.026595689356327,0.7135809619285166,-8.398427462151647,-5.0127434060961,100,standing
1783068645246581500,5.2998781,0.044507396376878,0.0724894821494817,0.1671668307095766,-0.0380262359976768,0.0897148996591568,0.0248041804879903,0.7156515576574951,-8.396828794783353,-5.015125332796574,100,standing
1783068645256543700,5.3098403,0.0206049811333417,0.0808469761282205,0.1899403880536556,-0.0490911975502967,0.1038648560643196,0.0188988093286752,0.7186048545051366,-8.394861294102668,-5.017997088840604,100,standing
1783068645266505700,5.3198023,0.130343412964046,0.0387941332966089,0.1535819574713706,-0.0455068498849868,0.1051391810178756,0.0311157945543527,0.7218427404478192,-8.392613222914934,-5.021293207776546,100,standing
1783068645276467500,5.3297641,0.2335575575925409,-0.0237836111694574,0.023489596658945,-0.03784666582942,0.0980998501181602,0.0464230738580226,0.7236740475282073,-8.390787761053442,-5.0240790391027925,100,standing
1783068645286430700,5.3397273,0.2073519069079309,0.0036801498174667,0.0347439811229705,-0.0322588235139846,0.0986335501074791,0.0531560778617858,0.724291887165606,-8.389370879992843,-5.026355167341232,100,standing
1783068645296392700,5.3496893,0.1653590506352484,0.0350672217279672,0.1101741928994655,-0.0333742462098598,0.1134607568383216,0.053647868335247,0.7249846186701208,-8.388137538805603,-5.028313315671682,100,standing
1783068645306354400,5.359651,0.1576619933266192,0.0547697010636329,0.128530518323183,-0.0307467728853225,0.1287169307470321,0.0595560893416404,0.7262474051475525,-8.386890753614901,-5.030209504681825,100,standing
1783068645316316700,5.3696133,0.1769648058202117,-0.0101806177526712,0.1123100358843803,-0.0272375028580427,0.1384052187204361,0.0648472011089325,0.7274449443690478,-8.385835691604017,-5.031795897090435,100,standing
1783068645326278700,5.3795753,0.1865207158032804,0.0343231253623962,0.0623071108311414,-0.0247192177921533,0.1405775547027588,0.0681639015674591,0.7289621439989655,-8.385000409823656,-5.032969617044925,100,standing
1783068645336241700,5.3895383,0.1708797137528658,0.0615875643849372,0.0092494743824005,-0.0127094648778438,0.1393239945173263,0.0705536976456642,0.7302380822189152,-8.384580723106861,-5.033481658220291,100,standing
1783068645346203600,5.3995002,0.1076157405883073,0.0671031129360198,0.0564227289676666,-0.0083264354616403,0.1380792409181594,0.0686601847410202,0.7312525930237025,-8.384559680318832,-5.033369430017471,100,standing
1783068645356165600,5.4094622,0.0446199168406426,0.0669043754935264,0.1980073746532201,-0.0197747386991977,0.1556215435266494,0.0576194338500499,0.7333459120411425,-8.384360942876338,-5.033396318024397,100,standing
1783068645366127600,5.4194242,0.0729518389642238,0.0056382981479167,0.266302327722311,-0.0379838347434997,0.1661402285099029,0.0566748119890689,0.7367373811103403,-8.383398819845914,-5.0345045715272425,100,standing
1783068645376089600,5.4293862,0.1029493562124669,-0.0502215362399816,0.1657341675579547,-0.0417980886995792,0.1707058250904083,0.053540464490652,0.7407073807198554,-8.38170779801905,-5.036736860623956,100,standing
1783068645386051600,5.4393482,0.0593533755920827,0.0405640655785799,0.0522843139886856,-0.0269174110144376,0.1708552241325378,0.0412603616714477,0.7453975112974643,-8.380316635921597,-5.038358908867836,100,standing
1783068645396014600,5.4493112,0.0002185381215065,0.1182680675059556,-0.0074725278377532,-0.0176187958568334,0.1546914130449295,0.0214208830147981,0.7509622327525168,-8.379311258271336,-5.039205296564102,100,standing
1783068645405976600,5.4592732,0.005980097322911,0.085439564615488,-0.0520306314885616,-0.0122725004330277,0.15481898188591,0.0174402557313442,0.7570221903786063,-8.378655424711107,-5.0393894209593535,100,standing
1783068645415938600,5.4692352,0.0418197647280991,0.0096025256037712,0.0098345807939767,-0.0273732729256153,0.1457879394292831,0.003709404496476,0.7635298187069595,-8.377935293743015,-5.039602771449089,100,standing
1783068645425900800,5.4791974,-0.035339901189506,0.0177554369211196,0.0950847603172063,-0.0066954246722161,0.1425537914037704,0.0181735660880804,0.770210173253715,-8.377260170960426,-5.039709738954901,100,standing
1783068645435862500,5.4891591,0.1332748633060604,0.0616056845635175,-0.1808984189420938,0.0232979208230972,0.1125046461820602,0.0271259155124425,0.7747260432429611,-8.377864566594361,-5.0380117028653615,100,standing
1783068645445825500,5.4991221,0.0037719928193837,0.0106517423957586,-0.1688701274961233,0.0437323562800884,0.0885085016489029,0.0262910146266222,0.7774858633451164,-8.3797326985538,-5.034478268042206,100,standing
1783068645455787800,5.5090844,-0.0043446050755679,0.0764461108207702,-0.0844552297532558,0.0593361929059028,0.0646684020757675,0.0250505302101373,0.779167971213162,-8.38253022031784,-5.029558931818604,100,standing
1783068645465749800,5.5190464,0.040296573748812,0.1207692366719245,-0.1429834065675735,0.0703656747937202,0.0243939477950334,0.0298024099320173,0.7792687281738966,-8.385852642738818,-5.024003051257133,100,standing
1783068645475711500,5.5290081,0.0509947856348007,0.0482832616537809,-0.2437415363460779,0.0763076394796371,-0.0050817797891795,0.0349512957036495,0.7769501490332186,-8.389682430160045,-5.01796552465856,100,standing
1783068645485673700,5.5389703,0.0439022700905799,0.0576408725857734,-0.2636445066899061,0.0872668176889419,-0.0394298993051052,0.0388248637318611,0.7726700605612248,-8.394101415646075,-5.011230663445591,100,standing
