time,seconds_elapsed,acc_x,acc_y,acc_z,gyr_x,gyr_y,gyr_z,grav_x,grav_y,grav_z,fs_hz,activity
1783066164372590600,0.0,-0.181940621471405,-0.0049438861429691,-0.1821305910855531,0.0071393367834389,-0.0399062186479568,-0.0125960828736424,-0.8433760202948003,-9.663291330379248,-1.4421854515962302,50,standing
1783066164392516600,0.019926,-0.0516624557632952,0.029026772519946,-0.2625052735269069,0.0483280159533023,-0.0322150886058807,0.0049144038930535,-0.8427213557783514,-9.664042441007494,-1.437527835048735,50,standing
1783066164412443600,0.039853,0.0407337230570614,0.0780851101994514,-0.3904010010778904,0.1188969910144805,-0.0552496910095214,-0.0034150779247283,-0.8456342475503683,-9.666413846313953,-1.4197650916039943,50,standing
1783066164432370700,0.0597801,-0.3028212826285511,0.1166968726664781,-0.1777665506571531,0.1208553612232208,0.0015364523278549,-0.0618292205035686,-0.8399612434152514,-9.670458737790584,-1.3953738699302076,50,standing
1783066164452297700,0.0797071,-0.1497638604879379,0.0627332272887229,-0.1410340260654687,0.1034333035349845,0.0260059367865324,-0.0483850128948688,-0.8273699112590401,-9.674555067193507,-1.37434613334015,50,standing
1783066164472224800,0.0996342,0.0864222189772874,0.0971808558136224,-0.2030181885525584,0.105532981455326,-0.0023563210852444,-0.0084116104990243,-0.821890895326063,-9.677726682966949,-1.355158471658826,50,standing
1783066164492151800,0.1195612,-0.0166298669572919,0.2321469601422548,-0.2628724994041025,0.1928358227014541,-0.0179422367364168,-0.0285496488213539,-0.8192458607099949,-9.681912444218993,-1.3265781277321278,50,standing
1783066164512078600,0.139488,-0.1437086521022021,0.2151730289876461,-0.0585796147406101,0.1734351813793182,0.0591394193470478,-0.0417957417666912,-0.8111289705540985,-9.687681675270198,-1.288906860985607,50,standing
1783066164532005600,0.159415,-0.0276570185367017,0.1026490580916404,0.1726116521120071,0.1019112318754196,0.098989650607109,0.0018273433670401,-0.805225664794445,-9.69142670701742,-1.2642182638004422,50,standing
1783066164551932700,0.1793421,0.1942464146845042,0.0351613297522068,0.007416998258233,0.0502916760742664,-0.0025891917757689,0.0276959836483001,-0.8076111716914921,-9.693071551615,-1.2500076598793268,50,standing
1783066164571858700,0.1992681,-0.0172454415723681,-0.0163712890863418,0.1848404345661401,-0.0132690342143177,0.0267852563410997,0.0266352333128452,-0.8123454336717725,-9.69316390607357,-1.24622010416463,50,standing
1783066164591785700,0.2191951,-0.2086401200875639,-0.1477671337127685,0.1107826801866292,-0.0792852267622947,0.0271796230226755,-0.0038004224188625,-0.8144323229484259,-9.69165350151062,-1.2565581044360994,50,standing
1783066164611712800,0.2391222,-0.1725603603161871,0.0312450330913066,0.0602075082033872,-0.0406203083693981,0.0047512324526906,-0.0062721534632146,-0.8123545668262988,-9.690053080576655,-1.2701768799439073,50,standing
1783066164631639800,0.2590492,-0.0754322576031088,0.125731242993474,-0.1154169158585369,0.0087905712425708,-0.015193399041891,-0.0164315290749073,-0.8111706177387386,-9.689968909424543,-1.2715743256516754,50,standing
1783066164651566800,0.2789762,-0.219482635815069,0.1601847167372703,0.1113186867594718,-0.0246553421020507,-0.0067326761782169,-0.042213812470436,-0.8056843683473766,-9.690304424989224,-1.2725063458047807,50,standing
1783066164671493600,0.298903,-0.1012923097204416,0.1114829374104738,0.0259638778179883,-0.0688024535775184,-0.0184628218412399,-0.0407297946512699,-0.7971320824488997,-9.68993559167683,-1.2806750392131507,50,standing
1783066164691420700,0.3188301,0.0468001834891736,0.1475444308727979,0.0610590104661881,-0.0795291289687156,-0.0003735667560249,0.0247746482491493,-0.7951380590874702,-9.688139940431714,-1.2954196038804948,50,standing
1783066164711347500,0.3387569,0.0094582217622548,0.1308037239521741,-0.1476110663682222,-0.0683564469218254,-0.0201267804950475,0.0403429195284843,-0.8034351281158626,-9.685613636824488,-1.3091115907549855,50,standing
1783066164731274500,0.3586839,-0.2402755407359451,0.1720247921347618,-0.0612463497318327,-0.0515148863196373,-0.0396542847156524,0.013530122116208,-0.8097317440420388,-9.683440968960523,-1.321255179143697,50,standing
1783066164751200800,0.3786102,-0.2246794007405638,0.0863432354569435,-0.1205922726698219,-0.0421282276511192,-0.0200802832841873,0.0098828729242086,-0.8127581061258912,-9.682155020803211,-1.3287977034777405,50,standing
1783066164771127800,0.3985372,-0.1320280050501227,0.0947083282202482,-0.1092734446674585,-0.045496679842472,0.0318274870514869,0.0255784336477518,-0.8156270126257091,-9.680642862674594,-1.3380210205055771,50,standing
1783066164791054800,0.4184642,0.0351679786887019,0.1964852796524763,-0.285720729419589,-0.0094863260164856,0.0032332320697605,0.0663424506783485,-0.8237579313069582,-9.679169867512584,-1.3436832840509711,50,standing
1783066164810981600,0.438391,-0.1231759324874728,0.2063444103658199,-0.1754272940546274,0.0232119709253311,0.0461051426827907,0.0811299309134483,-0.8388444412797689,-9.677955815547705,-1.3430946705080569,50,standing
1783066164830908400,0.4583178,-0.2668179490942508,0.1342705232799053,-0.3111480161428451,0.0625055059790611,0.0088288616389036,0.0395041480660438,-0.850825459517911,-9.678007253473996,-1.335165192683041,50,standing
1783066164850835500,0.4782449,-0.3385583664420992,0.0435147320777177,-0.063411126550287,0.0604951232671737,0.0853243693709373,0.0284522715955972,-0.8561482619758695,-9.679127781936526,-1.3235798226989806,50,standing
1783066164870762500,0.4981719,-0.1397850489176809,0.0062701663106679,-0.1850325961373746,0.0822445824742317,0.074738822877407,0.0256096366792917,-0.8597937058061361,-9.680490302461385,-1.3111935115955768,50,standing
1783066164890689500,0.5180989,-0.0992388843219727,0.0388549235731363,-0.0598113484926521,0.0854345560073852,0.1092342883348465,0.0435255840420722,-0.8633797475993633,-9.68225146691501,-1.295755557836592,50,standing
1783066164910615800,0.5380252,-0.0025517303094267,0.0345265389800071,-0.10988602360785,0.1215035244822502,0.075006254017353,0.0479941442608833,-0.8701345556218176,-9.683907417428491,-1.27875064702183,50,standing
1783066164930542600,0.557952,-0.161682481014356,0.0603203209280967,-0.1841704263500869,0.1610579341650009,0.0016160190571099,-0.0229691993445158,-0.8727624199073761,-9.687254974290727,-1.2513031065173446,50,standing
1783066164950469600,0.577879,-0.1162806930810213,-0.0336982714623212,0.077310034173727,0.1439316868782043,0.0198574047535657,-0.0258149672299623,-0.8665390884131192,-9.691548872092364,-1.2220377760011705,50,standing
1783066164970396400,0.5978058,0.1610201446481049,-0.1456418121218681,-0.0252618670284748,0.0991854071617126,0.0319227762520313,0.0029485849663615,-0.864466519922763,-9.694676648724078,-1.1984744565188885,50,standing
1783066164990323500,0.6177329,0.0831831639908254,-0.0385106401801109,-0.0310102014221251,0.0984356179833412,0.0094868037849664,0.0107427556067705,-0.8650394975051283,-9.69676339187026,-1.1810545351624488,50,standing
1783066165010250500,0.6376599,0.1589635043792426,0.0979606080144643,-0.0762004654966294,0.1013774946331977,0.0115330182015895,0.0496185943484306,-0.8697420491728931,-9.698708096197247,-1.1614520090699194,50,standing
1783066165030177500,0.6575869,0.1487189545448869,0.2002349875748157,-0.1207166297018527,0.0375819653272628,0.0178444292396307,0.1053884029388427,-0.8846364706397056,-9.699080436640978,-1.1470133685465902,50,standing
1783066165050103600,0.677513,0.0058609279226511,0.3059370034962892,0.0500509289134293,-0.070927083492279,0.0857748389244079,0.1529440432786941,-0.9087740098133684,-9.696294605314732,-1.1516828216623514,50,standing
1783066165070030600,0.69744,-0.0561938886478543,0.4202373364150524,-0.2563116795837879,-0.0583416335284709,0.0496907755732536,0.1636708974838256,-0.9382978451352566,-9.691483990162611,-1.1683875074215233,50,standing
1783066165089957600,0.717367,-0.3130065034911036,0.3534755842626094,-0.4686725006949156,0.0812823101878166,0.0598603263497352,0.1106111258268356,-0.9645990651488304,-9.689065238583089,-1.167016072937846,50,standing
1783066165109884700,0.7372941,-0.4175767389036715,0.1904062519997358,-0.3197979171968996,0.1701166480779647,0.1364820897579193,0.0767633691430091,-0.979888988739252,-9.690300333335996,-1.143807923568785,50,standing
1783066165129811500,0.7572209,-0.3382129140052944,0.1232838498413562,-0.2386789191942661,0.1875409036874771,0.1603885442018509,0.0499222539365291,-0.9883244433250278,-9.693356213775276,-1.1101545141614972,50,standing
1783066165149738200,0.7771476,-0.1406863816715776,0.0878437031477689,0.0899643485635519,0.0634934529662132,0.2252436876296997,0.0774039030075073,-0.9952128876645118,-9.69532605254352,-1.0865508626688272,50,standing
1783066165169665300,0.7970747,0.0339842487968504,-0.0490875637739896,0.3388333109259605,-0.1437444537878036,0.2234529554843902,0.1277158409357071,-1.0102197565298527,-9.692320440986752,-1.0994416161630305,50,standing
1783066165189592300,0.8170017,-0.0113431587260216,-0.1921259153991937,0.1193745674431323,-0.1909763067960739,0.1158002391457557,0.1050788983702659,-1.0302840549152343,-9.685601946386694,-1.1393047669306398,50,standing
1783066165209518300,0.8369277,-0.2888372540049255,-0.0576595772862434,0.0272563287813216,-0.0859031453728675,0.1339229941368103,0.0306740831583738,-1.0403932148668915,-9.681054366084933,-1.168392621988058,50,standing
1783066165229445400,0.8568548,-0.2663779502417892,-0.1004465796113014,0.0344810193378478,-0.045234277844429,0.140969306230545,-0.0114793209359049,-1.0384621006738397,-9.67956734239757,-1.1823510777790098,50,standing
1783066165249372400,0.8767818,-0.1880564009379595,-0.0776747758328914,0.0526198295533657,-0.087534561753273,0.0611164271831512,-0.0223464667797088,-1.0326869513384995,-9.678397714096308,-1.1968988777652383,50,standing
1783066165269299200,0.8967086,-0.1671650040786713,-0.0210603236854076,0.1351415339607745,-0.1625625044107437,0.0464736297726631,-0.0077733532525599,-1.028439449961856,-9.675755090633034,-1.2216602479256689,50,standing
1783066165289226200,0.9166356,-0.1428488204024732,0.0889881970077753,0.0745038907118141,-0.228037491440773,0.0315077006816864,0.0057408437132835,-1.0279157183486969,-9.670881347116827,-1.26008218690902,50,standing
1783066165309153300,0.9365627,-0.2770974241115153,0.1973591398775577,0.2063262901872396,-0.2890219688415527,0.1005464345216751,0.0233004316687583,-1.0287899438999593,-9.66388286653161,-1.311998252107203,50,standing
1783066165329080300,0.9564897,-0.1420265442341566,0.2386959433943033,-0.1306505792170763,-0.223558247089386,0.0607155412435531,0.0307802818715572,-1.032179878599197,-9.656138536015153,-1.3652769839607175,50,standing
1783066165349007400,0.9764168,-0.2063293589271604,0.3043903585761785,-0.1930950526922941,-0.1186445355415344,0.0423404201865196,0.0026217396371066,-1.0337176095604896,-9.651204002222418,-1.3985998462393878,50,standing
1783066165368933400,0.9963428,-0.1879174308586865,0.1285556527644396,-0.1856044046759605,-0.0499558001756668,0.0333955064415931,-0.0280267875641584,-1.030581649622321,-9.649248191979527,-1.414320708592981,50,standing
1783066165388860400,1.0162698,-0.2380766424521803,-0.0194739312767982,-0.0069721771001815,-0.045835506170988,0.0531836226582527,-0.049717154353857,-1.0221714025430382,-9.648760700723528,-1.4237132447078824,50,standing
1783066165408787500,1.0361969,-0.0203799402058124,-0.0841360808014869,0.0305922682709991,-0.078739508986473,0.0827581360936164,-0.0016747142653912,-1.0137655393779277,-9.64769453279674,-1.436886322274804,50,standing
1783066165428714200,1.0561236,0.307747413919121,-0.0804641142904758,-0.0197403271280229,-0.1348169595003128,0.0598392859101295,0.0942097827792167,-1.021069724911451,-9.643584759390354,-1.4591279646992683,50,standing
1783066165448641300,1.0760507,0.2176371540788561,0.056492871594429,-0.1103026415847241,-0.1299203634262085,-0.063569039106369,0.0975373238325119,-1.0409431038346142,-9.637488780602812,-1.4851336358323692,50,standing
1783066165468568300,1.0959777,-0.1619846788313239,0.0836503431111574,0.0517699347257614,-0.1286492347717285,-0.0562299080193042,0.030208621174097,-1.0559155589736997,-9.63232511422932,-1.5078937491729856,50,standing
1783066165488495400,1.1159048,-0.269875144707784,-0.0337356808632612,0.078012191093713,-0.1344054341316223,-0.019445402547717,-0.0158881843090057,-1.057559745984152,-9.628214171779154,-1.5327885364547371,50,standing
1783066165508421400,1.1358308,-0.0598926701005548,-0.1196481236875057,0.0503477929681539,-0.102303571999073,0.0123998466879129,-0.0009905345505103,-1.0556559581894427,-9.624602995544672,-1.556599912413955,50,standing
1783066165528348400,1.1557578,0.0533081771437078,-0.0374462258189916,-0.2820719976536929,0.0222761668264865,-0.0407479330897331,-0.0097673404961824,-1.056328742884472,-9.623156303867695,-1.565054290895909,50,standing
1783066165548275500,1.1756849,-0.2010369516074657,0.059340662240982,-0.2657398715339601,0.1016067489981651,-0.0084813218563795,-0.052283339202404,-1.0506814577125012,-9.626120998892189,-1.550561362902075,50,standing
1783066165568202500,1.1956119,-0.1474306683000177,0.0420434904813766,-0.0542488920599222,0.0639819949865341,0.0469556003808975,-0.0140666970983147,-1.0430860341474413,-9.62962403857708,-1.5338551427729428,50,standing
1783066165588129300,1.2155387,-0.1448099644076079,0.0731868167638778,-0.046758390174061,0.0333720371127128,0.0408811680972576,-0.0041275299154222,-1.0412179752532391,-9.630990066233275,-1.5265313757561143,50,standing
1783066165608056300,1.2354657,-0.2090971431400626,0.1647761361807584,-0.1069160678863525,0.061584535986185,0.0209862310439348,-0.0174641385674476,-1.0385813431393354,-9.632646601268648,-1.51784888760671,50,standing
1783066165627983400,1.2553928,-0.2675172564700245,0.1348965462237596,-0.0552760431505739,0.0747537538409233,0.0404651015996933,-0.0173782091587781,-1.0341806970275935,-9.635089902767538,-1.505294672590494,50,standing
1783066165647910400,1.2753198,-0.189660840459913,0.220697345367074,-0.0367855699531734,0.0929794386029243,0.0400086529552936,0.0162133425474166,-1.0321299750428643,-9.637689856132864,-1.4899666089467702,50,standing
1783066165667836400,1.2952458,-0.2025993786185979,0.1702384932398796,-0.1151350301772356,0.1388071924448013,0.0016873787390068,0.0062342472374439,-1.0353528095468878,-9.640802435195445,-1.4674318287946282,50,standing
1783066165687763500,1.3151729,-0.3679343177258968,0.1301677641361951,0.0313325652442872,0.1324527263641357,0.0099811553955078,-0.0281144883483648,-1.032075322246179,-9.64517524345219,-1.440769008927047,50,standing
1783066165707690500,1.3350999,-0.0935411841370165,0.0773866065412759,0.0686101564981043,0.1122298315167427,-0.0080472258850932,-0.0064370231702923,-1.0284412765927613,-9.649104984116551,-1.4168446741126477,50,standing
1783066165727617300,1.3550267,-0.0211132959816604,0.067518707999587,0.1397983467906713,0.0527132488787174,-0.0047589470632374,0.0121739525347948,-1.0300906512349843,-9.651208678397536,-1.4012434926159678,50,standing
1783066165747544300,1.3749537,-0.0999216058891266,0.0152536832332611,0.0810195562161505,0.0465087294578552,0.005543915554881,0.0079951081424951,-1.0323859956305474,-9.652214056047796,-1.3925932993009686,50,standing
1783066165767471400,1.3948808,0.0162547500345855,0.0886456671804189,-0.108399584442377,0.0619441792368888,-0.0577194727957248,-0.0045115733519196,-1.033790528666228,-9.653780574712156,-1.3806442105710506,50,standing
1783066165787398400,1.4148078,-0.0782413967397064,0.1102566104859113,-0.0120223000966012,0.0022286134772002,-0.0461184158921241,-0.006300653796643,-1.034762953894958,-9.654890581780672,-1.3721253885507585,50,standing
1783066165807325400,1.4347348,-0.1532224765092134,0.1230284137755632,0.0425160764291882,-0.045961856842041,-0.0105886636301875,0.002615628298372,-1.0340020525250584,-9.654343469291923,-1.3765351678170263,50,standing
1783066165827251500,1.4546609,-0.0078747519630938,0.1456371359467506,-0.1854568128988146,-0.047083806246519,0.0216851327568292,0.0432437323033809,-1.0385408649984746,-9.65256126205027,-1.385588242844492,50,standing
1783066165847178500,1.4745879,-0.085423271067813,0.2175257295936346,-0.2393962006181478,-0.0100016118958592,0.0024187774397432,0.0431167297065258,-1.0474829539321362,-9.65068027060926,-1.3919528094403444,50,standing
1783066165867105500,1.4945149,-0.1583547978963702,0.2255161438256502,-0.2243061835139989,0.0155482999980449,-0.0070600574836134,0.0329220183193683,-1.053859430161491,-9.650141341426968,-1.3908822575993836,50,standing
1783066165887032300,1.5144417,-0.0568105592414736,0.1075765776216983,-0.1653518902420997,0.0164342578500509,0.0490477345883846,0.064337782561779,-1.0617303096670656,-9.649816931778192,-1.3871385410264134,50,standing
1783066165906959400,1.5343688,-0.1387915078356862,-0.0125105220049619,-0.1117564936548471,-0.0144859543070197,0.0906629934906959,0.070508487522602,-1.07417098130621,-9.648242814329263,-1.3885102677710353,50,standing
1783066165926886400,1.5542958,-0.1607313908345997,0.0633382074445486,-0.1536145445667207,0.0113142915070056,0.0725710913538932,0.0592313669621944,-1.084552820719406,-9.646579265031216,-1.391991826276481,50,standing
1783066165946813400,1.5742228,-0.19418672038652,0.0468815781623125,-0.3001191109977662,0.0626680999994278,0.0603543259203434,0.0394608117640018,-1.092546888213232,-9.646432550036907,-1.3867451577946543,50,standing
1783066165966739500,1.5941489,-0.2988116085957735,0.0180149646401405,-0.2673363469451665,0.0903078690171241,0.0734535232186317,0.0062649389728903,-1.095062962687388,-9.648242229807376,-1.372093678238243,50,standing
1783066165986666500,1.6140759,-0.273851354862377,0.0156534962058067,-0.0492832324765622,0.0579407662153244,0.0919932201504707,-0.0061330618336796,-1.0930881554830818,-9.650219082838296,-1.3597042983949184,50,standing
1783066166006593500,1.6340029,-0.1667925175044685,0.0565665213525295,-0.0629284575998783,0.0788063257932663,0.0596297457814216,-0.0243401881307363,-1.0883674105715009,-9.65222750005126,-1.3492011706896123,50,standing
1783066166026520600,1.65393,-0.1337491297543049,0.1050175407886505,-0.0987448902599513,0.1164701506495475,0.0279693715274333,-0.0349162854254245,-1.0816071957215667,-9.65548796315193,-1.3311920512683688,50,standing
1783066166046447400,1.6738568,-0.11652078544721,0.1327279700130224,0.0333120486237108,0.1078180074691772,0.0668347999453544,-0.0360604003071785,-1.072798889235407,-9.65940542885661,-1.3097203703030944,50,standing
1783066166066374400,1.6937838,0.0504256074447184,0.1025906059026718,0.0631190117359161,0.0340934507548809,0.0378123298287391,0.003608887316659,-1.0673626895308497,-9.66174000928402,-1.2968810547351837,50,standing
1783066166086301400,1.7137108,0.1030707906350493,0.1012970589607954,0.0749633249171078,-0.000666624167934,-0.0270824376493692,0.0385437682271003,-1.0727222438026218,-9.661343703442812,-1.2954074750512838,50,standing
1783066166106227500,1.7336369,-0.1305387894056737,0.1156149226486682,0.0365751420728862,-0.0022113691084086,-0.0162792168557643,0.0103271231055259,-1.078533195103705,-9.660849782446029,-1.2942794939346611,50,standing
1783066166126154500,1.7535639,-0.2506049923747778,0.0091185414791107,0.0955360112160444,-0.0173213873058557,0.013612356968224,-0.0090143298730254,-1.078476058088988,-9.660594346380233,-1.2962281437844037,50,standing
1783066166146082000,1.7734914,-0.0969075918301939,0.0288210208147764,0.0222160695917904,-0.0257954150438308,-0.027535106986761,-0.0072952755726873,-1.076550496853888,-9.66024421776831,-1.3004201886467637,50,standing
1783066166166009000,1.7934184,-0.0615840572535991,0.0089046064674854,-0.0800787682346999,-0.044209461659193,-0.0414558909833431,-0.0055260374210774,-1.07626006253995,-9.65948200122416,-1.3063136305995284,50,standing
1783066166185936100,1.8133455,-0.0651616965446621,0.0338484935879707,-0.0207815067440271,-0.0403143987059593,-0.0134005052968859,0.0155569277703762,-1.078069523114711,-9.658239892208575,-1.3139863571844994,50,standing
1783066166205863200,1.8332726,-0.0590402910549193,0.1104927573293447,-0.1414591196097433,-0.0006288087461143,-0.0354247242212295,0.0223646145313978,-1.082694552566856,-9.65722340864241,-1.3176575930431484,50,standing
1783066166225790200,1.8531996,-0.1813655980624258,0.0856803876340389,-0.2318776416815817,0.0504487231373786,-0.0577502064406871,-0.0243088491261005,-1.0844191113371402,-9.657849431586264,-1.3116343872308731,50,standing
1783066166245716200,1.8731256,-0.1847646659161895,0.0367161579787731,-0.1154243685126304,0.0404264070093631,0.0011844022665172,-0.0440362803637981,-1.0781764175552877,-9.66006009337306,-1.300446638262272,50,standing
1783066166265643300,1.8930527,-9.43272199481e-05,0.0541729042142629,0.0242317933283746,-0.0239873956888914,0.0706236809492111,0.0097010191529989,-1.0726579463947563,-9.660608959427476,-1.300940559259057,50,standing
1783066166285570000,1.9129794,0.2423935558032244,0.1152414131611585,-0.2618162683494389,-0.029316684231162,0.0380008183419704,0.075032390654087,-1.080214791515097,-9.65882909027338,-1.3078823412209748,50,standing
1783066166305497000,1.9329064,-0.1059656352937221,0.1445779822826385,-0.2194565515257418,0.0193321518599987,0.0444303043186664,0.0423334129154682,-1.0918836750641463,-9.657191259938475,-1.310288671710342,50,standing
1783066166325424000,1.9528334,-0.265391204226762,0.0546826073020696,-0.216618551620841,0.0835693106055259,0.0650163665413856,-0.0008821339579299,-1.0934676563199608,-9.658125325918196,-1.302053196676075,50,standing
1783066166345351200,1.9727606,-0.1603848424192518,-0.1139829375326633,-0.2794236751019954,0.1306127160787582,0.0519647523760795,-0.0032130065374076,-1.090885019415617,-9.661093528074025,-1.282044427870214,50,standing
1783066166365278200,1.9926876,-0.0770299751233309,-0.1239022740006446,-0.227536251476407,0.1407862603664398,0.0731342136859893,0.0137857580557465,-1.09059224701412,-9.664492522862552,-1.2564195727482437,50,standing
1783066166385204200,2.0126136,-0.2275103863827884,-0.0364928706169128,-0.1484976399444043,0.137188971042633,0.1183124408125877,-0.0005257033044472,-1.0903479168642312,-9.667654786285755,-1.2320587462127208,50,standing
1783066166405131300,2.0325407,-0.3766509273406118,0.1202151099205017,-0.1819954934637993,0.170598492026329,0.0969991385936737,-0.0566322021186351,-1.0829144789278506,-9.671732410988213,-1.206342194219306,50,standing
1783066166425058300,2.0524677,-0.295219210126996,0.2457248191177845,-0.2292716969668865,0.265810489654541,0.0716481804847717,-0.1019102856516838,-1.064986827244982,-9.67872972252965,-1.1655002615474164,50,standing
1783066166444985000,2.0723944,-0.1480586640052497,0.2281710422486066,-0.0037993922829627,0.2646966874599457,0.1197664141654968,-0.0846604257822036,-1.0444031811606138,-9.686913613507151,-1.1150409710288047,50,standing
1783066166464912100,2.0923215,-0.0145212773054838,0.2790145097792148,-0.0398351667821407,0.2689948379993438,0.0329554378986358,-0.0886569172143936,-1.0265076051164417,-9.694362175947427,-1.0658371604640036,50,standing
1783066166484839200,2.1122486,-0.0169778766773641,0.224278126463294,0.1282258362881839,0.2214010953903198,0.0091314353048801,-0.0970777422189712,-1.008189638941735,-9.701427292028068,-1.0179715397004037,50,standing
1783066166504766200,2.1321756,0.0182804837085306,0.0475105237156152,0.2221721671599894,0.1157524734735488,0.0668384805321693,-0.0593598559498786,-0.9913735286973416,-9.706467624282835,-0.9859228620760142,50,standing
1783066166524692200,2.1521016,0.0999490053527057,-0.0966185457557439,0.0529144285857677,0.0683413222432136,0.0079874945804476,-0.0327023491263389,-0.9826610838010906,-9.708834353414176,-0.9712403297942132,50,standing
1783066166544619300,2.1720287,-0.1364325236193835,-0.0696136344522237,-0.1224368045579642,0.133779838681221,-0.0592333897948265,-0.0892138928174972,-0.9729806706555189,-9.711747025990483,-0.9516620613601058,50,standing
1783066166564546300,2.1919557,-0.236083057482168,0.0172556707054376,-0.0502460861593484,0.2147585302591323,-0.0635278820991516,-0.1367356926202774,-0.9512913283515722,-9.717214059224723,-0.9171614605389536,50,standing
1783066166584473300,2.2118827,0.0770016258116811,0.0169318455785512,-0.1224994214653968,0.2477184534072876,-0.1108401790261268,-0.0908724963665008,-0.9297864757690578,-9.723773563870788,-0.8684009367622435,50,standing
1783066166604400000,2.2318094,0.0393520594403147,0.0196750068068504,0.1491968011897057,0.1443070620298385,-0.1072718799114227,-0.0349443182349205,-0.9207178378462793,-9.728163907784223,-0.8279530449092387,50,standing
1783066166624327200,2.2517366,-0.268802839301154,0.0856827257215976,0.03446516418159,0.0571327246725559,-0.1179384440183639,-0.0690907016396522,-0.9137830701470374,-9.73057447605729,-0.8070442585237324,50,standing
1783066166644254200,2.2716636,-0.3509681314863264,0.1123182191908359,0.177193646140024,-0.0125432219356298,-0.0517646707594394,-0.0777623653411865,-0.8997032529987394,-9.732371880868076,-0.8011824538182467,50,standing
1783066166664180200,2.2915896,-0.0133884738832712,0.1029383964270353,0.0553787728726863,-0.0688347220420837,-0.0274822358042001,-0.0181493703275918,-0.8905725826904177,-9.732567111179232,-0.808953745406866,50,standing
1783066166684107300,2.3115167,0.0320231047917157,0.2350496958464384,-0.1621691685527563,-0.0177153088152408,-0.0710663869976997,0.013130054809153,-0.8915414277225733,-9.731650580856204,-0.8188551078267395,50,standing
1783066166704034300,2.3314437,-0.2160913859415799,0.3018359979182481,-0.2973287496268749,0.100613422691822,-0.0505609884858131,-0.0062917303293943,-0.8940702155478298,-9.732297062066197,-0.8083433584235609,50,standing
1783066166723961300,2.3513707,-0.3536071016877889,0.2367676056802272,-0.1700122832685709,0.1227310970425605,-0.0316595770418643,-0.0191093422472476,-0.8918269666656852,-9.73441536939442,-0.7849753423176705,50,standing
1783066166743888100,2.3712975,-0.1136341240949928,0.064269935336709,-0.1972398243468254,0.0807762593030929,-0.0782769918441772,0.0064081978052854,-0.8911824582170694,-9.736245507431027,-0.7626854768373071,50,standing
1783066166763815200,2.3912246,-0.0637090135183185,-0.0316980375558137,-0.0140689304281026,0.051729317754507,-0.0313931368291378,0.0281445737928152,-0.8962165068615228,-9.736795542529224,-0.7496812530312686,50,standing
1783066166783742200,2.4111516,-0.1630656059358269,-0.1433423030078411,-0.2011007375586777,0.0686398968100547,-0.0611202642321586,-0.0038752607069909,-0.9011568858731538,-9.737229842293262,-0.738024790572375,50,standing
1783066166803668200,2.4310776,-0.3991318584136664,-0.0363613531917333,-0.0292652574509382,0.0604843832552433,-0.0190059263259172,-0.0748488679528236,-0.8934374706022441,-9.739014387622476,-0.7237110185377299,50,standing
1783066166823595300,2.4510047,-0.076646017307043,0.0559177020549774,0.0563683684319257,0.0176726225763559,-0.0428460389375686,-0.0521875172853469,-0.8802866048671305,-9.740762692594528,-0.7162703471429646,50,standing
1783066166843522300,2.4709317,0.2059433552842587,0.1675602139413356,-0.0806447315543889,0.0088970111683011,-0.1047151237726211,0.0009046134073287,-0.8766192414660007,-9.74137410249114,-0.7124347145028412,50,standing
1783066166863449300,2.4908587,0.0039830052215605,0.1730629030108451,-0.005714285993576,-0.0163158942013978,-0.0534471310675144,0.0242887493222951,-0.881308495260775,-9.74104092501402,-0.7111994005542248,50,standing
1783066166883376400,2.5107858,-0.2684360518153756,0.1296615681797266,-0.0387386767823249,-0.036367017775774,-0.0050666639581322,-0.0007320495788007,-0.8840728454075754,-9.740437113901972,-0.716033761908114,50,standing
1783066166903303200,2.5307126,-0.1936466221604496,0.1292629242509603,-0.1512239231031387,-0.0192954000085592,-0.0505023300647735,-0.0023682778701186,-0.8834448497023433,-9.740036716407538,-0.7222106969773769,50,standing
1783066166923229200,2.5506386,-0.2456431321837008,0.047473698836565,-0.2003892282884568,0.0314585156738758,-0.0596427880227565,-0.0368617549538612,-0.8806788190551101,-9.740548173061011,-0.7186847878735512,50,standing
1783066166943156200,2.5705656,-0.3274204479645937,-0.0738981799036264,-0.0768652860809117,0.0329601615667343,-0.022280728444457,-0.0590549446642398,-0.8719248731046915,-9.7418808829695,-0.7112759729217738,50,standing
1783066166963083300,2.5904927,-0.1253875441223383,-0.0335410350739955,-0.1597877533089369,0.0378288328647613,-0.0229200515896081,-0.0308234207332134,-0.862818898846209,-9.743180859652162,-0.7045190460074693,50,standing
1783066166983010300,2.6104197,-0.0455616546701639,0.2056798089772462,-0.134006319385767,0.0532433986663818,-0.0458422973752021,4.02738805860281e-07,-0.8604943283561617,-9.744029585435984,-0.6955842635974288,50,standing
1783066167002937300,2.6303467,-0.1710689527146518,0.2440110009372234,-0.1471809313226491,0.0676392689347267,-0.042924229055643,-0.0081717120483517,-0.8608318166822194,-9.7449525454998,-0.6821105956487358,50,standing
1783066167022864400,2.6502738,-0.2414212036397308,0.1789689121842384,0.0275339036136865,0.0271304212510585,-0.0247722025960683,-0.0058476976118981,-0.8596122848246246,-9.745749833357332,-0.6721724814150482,50,standing
1783066167042791400,2.6702008,-0.0808604201316833,0.1161298864334821,-0.0280454333323985,-0.0090197827666997,-0.0220726057887077,0.0160202663391828,-0.8609587309975176,-9.745759770229458,-0.6703136287406086,50,standing
1783066167062717200,2.6901266,-0.1439450912065804,0.1003016181826591,0.0189360980730503,0.0048407148569822,-0.0529954135417938,0.0063918242231011,-0.8646123581342399,-9.745343590644,-0.6716555448688566,50,standing
1783066167082644200,2.7100536,-0.1421576232679188,0.0195820678263902,-0.1385574068188667,0.0417360737919807,-0.0659806728363037,-0.0021667263936251,-0.8652027252428233,-9.745727037003636,-0.6652956544481218,50,standing
1783066167102571300,2.7299807,-0.1068355499960482,-0.0312158069968223,-0.0193599495083093,0.0063866069540381,-0.049277190119028,-0.0003381026326678,-0.8658088013771921,-9.746105222666262,-0.6589470160737634,50,standing
1783066167122498300,2.7499077,-0.1118943677555769,-0.0547357987940311,0.0552845917832106,-0.0550674386322498,-0.0280456747859716,0.0133982831612229,-0.8676336056515574,-9.745630590891835,-0.6635612318709492,50,standing
1783066167142425300,2.7698347,-0.0193587073992937,0.0459264693945646,-0.1105113889645785,-0.0624170415103435,-0.0546920821070671,0.0256356373429298,-0.8727806131511926,-9.744387897354365,-0.6749357355833053,50,standing
1783066167162351900,2.7897613,-0.1412003225430846,0.0986836615920066,-0.175184206013754,-0.0304239522665739,-0.047585841268301,0.0176814123988151,-0.8779816889256239,-9.74327730576396,-0.6841844793133437,50,standing
1783066167182279000,2.8096884,-0.1271777885399758,0.1566290700823068,-0.3207926273226738,0.0370678566396236,-0.0585594326257705,0.0124868508428335,-0.8812303154580294,-9.74316215495169,-0.6816297533292323,50,standing
1783066167202204700,2.8296141,-0.1704797546498477,0.1392453890830278,-0.0907049377977848,0.0123242745175957,0.0185844488441944,0.0109798684716224,-0.8846149894602596,-9.743286073592303,-0.6754397395826875,50,standing
1783066167222131700,2.8495411,-0.1572081120792776,0.0696446141123771,-0.2134574572414159,-0.0024179613683372,-0.0113460281863808,-0.0037623101379722,-0.8848680143732577,-9.743266784369943,-0.6753897629611194,50,standing
1783066167242058800,2.8694682,-0.069940528319031,0.014313772034645,-0.1722883384417742,0.0226855669170618,0.0213707145303487,0.0140875941142439,-0.8854955716870725,-9.743300686639548,-0.6740621676191687,50,standing
1783066167261985800,2.8893952,0.0418606081951409,0.0499941572248935,-0.3053185793370008,0.0734085515141487,-0.0015891571529209,0.0258154198527336,-0.8900063271097839,-9.74351812878251,-0.6649315703760832,50,standing
1783066167281912800,2.9093222,-0.0627935791738331,0.1358352883785963,-0.0688537559956312,0.0681368559598922,0.0245649591088295,0.0252084732055664,-0.8945879558116197,-9.744065825793149,-0.6506038428813219,50,standing
1783066167301840000,2.9292494,-0.1093211562667041,0.0720598585605621,-0.102572997180745,0.0435691624879837,-0.0107328547164797,0.023415645584464,-0.899235927747935,-9.744334705862402,-0.6400781380180269,50,standing
1783066167321765600,2.949175,-0.2007578424051403,0.0743704735904932,-0.0099818803101778,0.0405565947294235,0.0013860592152923,0.0074357995763421,-0.9025202831808478,-9.744550978961586,-0.6321130774229765,50,standing
1783066167341692700,2.9691021,-0.2221440370440483,-0.0280576352268457,-0.0323380159597843,-0.0284252166748046,0.0598221234977245,0.0197334233671426,-0.9043279171247036,-9.744473822072148,-0.6307059140387922,50,standing
1783066167361619700,2.9890291,-0.2204359910171479,0.0567179125219583,0.0461333170782774,-0.0546558275818824,0.0386195443570613,0.0224579907953739,-0.9079814711961894,-9.743359723350403,-0.6425888056647032,50,standing
1783066167381546800,3.0089562,-0.2527943191125988,0.1427414145052433,-0.2072211932003498,0.0344901829957962,-0.0358072482049465,-0.0157146919518709,-0.909590440762788,-9.743041158920526,-0.6451146708805113,50,standing
1783066167401473800,3.0288832,-0.34537571830675,0.1024164183795452,-0.0791809426121413,0.0853322073817253,-0.0230083242058753,-0.0582056269049644,-0.9023021834507584,-9.744612938281891,-0.6314482568386942,50,standing
1783066167421400800,3.0488102,-0.1735341007191687,-0.0592968230992555,0.0596499473858624,0.0279180314391851,0.0094769420102238,-0.0463923625648021,-0.8912869415048509,-9.746454766756296,-0.6185459590371698,50,standing
1783066167441326800,3.0687362,-0.0208339675836265,-0.0081961659371852,0.0237450327247381,-0.0479546301066875,-0.0005531874485313,-0.0096853161230683,-0.8855212175849825,-9.746828860765696,-0.6209487823951989,50,standing
1783066167461253600,3.088663,-0.0815370772842317,0.0879109231650829,-0.0584491932939738,-0.0740744248032569,0.0122155975550413,0.0089317895472049,-0.8858702502183615,-9.745970198109744,-0.6337738502420485,50,standing
1783066167481180700,3.1085901,-0.2349205165088176,0.1674392179101705,-0.0971720879852771,-0.071475476026535,0.0003775676013901,-0.0083303302526474,-0.8863140484631061,-9.744994046553968,-0.6480232518035918,50,standing
1783066167501107700,3.1285171,-0.2894632038835436,0.1261941843301057,-0.0520622687358409,-0.0614719204604625,-0.006009710021317,-0.0295615345239639,-0.8824986548934132,-9.74445161024034,-0.6612601883869618,50,standing
1783066167521034800,3.1484442,-0.0808742294613271,0.1907388449549674,-0.1324632546622306,0.0118388161063194,-0.0458164364099502,-0.0276908632367849,-0.8763573756594211,-9.7446521012485,-0.6664517656806856,50,standing
1783066167540961800,3.1683712,0.0903974062185734,0.2813146034151315,-0.1659714834451675,0.0917015373706817,-0.0378339812159538,0.0259038377553224,-0.8764434465076774,-9.745444128409028,-0.6546413547690957,50,standing
1783066167560887800,3.1882972,-0.0378570716422051,0.2893488567888737,-0.101267832866311,0.0660993158817291,-0.0017831501318141,0.0544322840869426,-0.8860054209053516,-9.745697226387264,-0.6377922190379351,50,standing
1783066167580814800,3.2082242,-0.1991119018290191,0.2542442256599664,0.0444032784152775,-0.0223025344312191,-0.0119583737105131,0.0439119450747966,-0.8950381107319146,-9.74515829720497,-0.6333771060094237,50,standing
1783066167600742000,3.2281514,-0.1693756658654659,-0.0310492182582616,0.0867524738449603,-0.095775306224823,-0.0452728234231472,0.0327717773616313,-0.9039750120338051,-9.74357775001526,-0.6449006628036499,50,standing
1783066167620668700,3.2480781,-0.2841800027836114,-0.1557587169885635,0.1121593023020774,-0.1193171963095665,-0.0018755701603367,-0.0079170940443873,-0.9060375705868006,-9.742019414657356,-0.6652195204719901,50,standing
1783066167640595700,3.2680051,-0.1433804430611431,-0.2292459780037403,0.0710929862897843,-0.1374145597219467,0.0449239946901798,0.0008578412816859,-0.9046814798027276,-9.740360541534423,-0.6908920141279697,50,standing
1783066167660522800,3.2879322,0.029951047758013,0.0759533588677644,-0.1606447354644536,-0.0932674407958984,-0.0404792129993438,0.0201346855610609,-0.9069768241982906,-9.73850234644711,-0.713687491042912,50,standing
1783066167680448800,3.3078582,-0.0831043266009539,0.2492354575872421,-0.1975139651130884,-0.0412667877972126,-0.0602220147848129,0.0179687812924385,-0.9118362469282,-9.73715736157894,-0.7257499770194291,50,standing
1783066167700375800,3.3277852,-0.2560950411584228,0.2601473122239113,-0.2262275069653987,-0.0071533294394612,-0.0728628560900688,-0.0170039981603622,-0.9128737732823936,-9.736846395933629,-0.7286103348866104,50,standing
1783066167720302800,3.3477122,-0.2274314028624445,0.0782476072847843,-0.0595616845805197,-0.0504417531192302,0.0154579365625977,0.0025816555134952,-0.9108622142642736,-9.736757548606397,-0.7323205875813961,50,standing
1783066167740230000,3.3676394,-0.0570714021347463,-0.0279962604284286,-0.1497901639729738,-0.0866689309477806,0.0446911454200744,0.0543537773191928,-0.916171864979714,-9.73510919687748,-0.747436981235817,50,standing
1783066167760157000,3.3875664,-0.0252842980559915,0.0701432112842798,-0.3505553129017353,-0.0042717158794403,-0.0187723655253648,0.0595361590385437,-0.9283561507049948,-9.733140527153015,-0.7579604941420257,50,standing
1783066167780083700,3.4074931,-0.3061133829765021,0.1210714344888925,-0.2871696861188859,0.0689964890480041,-0.0005537873366847,0.0004798889858648,-0.9345316244695336,-9.733191380557418,-0.7496690511368215,50,standing
1783066167800009700,3.4274191,-0.3031461306687444,0.0046755905956029,0.0378952116955071,0.0497825816273689,0.0622374936938285,-0.0203635264188051,-0.9316634486220776,-9.734411277741192,-0.7373014447338879,50,standing
1783066167819936800,3.4473462,-0.0397678736995905,0.0058837973415851,0.0299614230215549,0.0147181097418069,0.0479449145495891,0.0030151011887937,-0.9288364085026084,-9.735021518594026,-0.7328093209464103,50,standing
1783066167839863800,3.4672732,0.0987245050590485,0.0980874492645263,-0.0196585671287029,-0.0015773568302392,0.033858697861433,0.0337970405817031,-0.9317571182549,-9.734747962349651,-0.732718793118745,50,standing
1783066167859790800,3.4872002,-0.0121264911234378,0.1175415067970752,0.0114706575632095,0.002927950117737,0.0250160824507474,0.0398806519806385,-0.938820261574164,-9.734002112418413,-0.7336217333078384,50,standing
1783066167879718000,3.5071274,-0.0353141822263598,0.0853074626684188,-0.0378027841717004,-0.0048519442789256,0.0104788932949304,0.0293771084398031,-0.94556038348414,-9.733341602683067,-0.7337287738788872,50,standing
1783066167899645000,3.5270544,-0.0837757961217314,0.0565752891808748,0.0013964958596974,-0.0220704972743988,0.0188877787441015,0.0058490908704698,-0.9485738860864192,-9.73288976726234,-0.7358177089821547,50,standing
1783066167919570700,3.5469801,-0.0129640379261225,0.0197545017838478,0.0723380909800529,-0.0441822633147239,0.0227607246488332,0.0130219403654336,-0.9492055350534616,-9.732282449018957,-0.743014050227031,50,standing
1783066167939497700,3.5669071,0.0490400713704526,0.0202770643532276,-0.0386198727082461,-0.0561974234879016,-0.0052307015284895,0.0271974243223667,-0.9530009818136692,-9.731158413425089,-0.7528138519685715,50,standing
1783066167959424800,3.5868342,-0.0895063756629824,0.1021358478724956,-0.0658375499796122,-0.0532044470310211,-0.0078672040253877,0.0189754664897918,-0.9579564122639596,-9.729818689253923,-0.763752886873111,50,standing
1783066167979351800,3.6067612,-0.1323209966473281,0.0831061532318592,-0.1937601655375212,-0.0279553569853305,-0.0183244608342647,0.0114356819540262,-0.9610807548295706,-9.72889514466822,-0.7715522355124353,50,standing
1783066167999278800,3.6266882,-0.2233698525119572,0.0557213027000427,-0.1334253046274185,-0.0332368239760398,0.0226963032037019,0.0009234856115654,-0.9617601153958588,-9.728445647335052,-0.776370814775303,50,standing
1783066168019204900,3.6466143,-0.160050495898351,0.0638514176636934,-0.0814320825397968,-0.0094753764569759,0.0189068727195262,0.007729428820312,-0.9625306613769382,-9.727896781280636,-0.7822762394268066,50,standing
1783066168039131600,3.666541,-0.1705727666955441,0.0826186619758606,-0.2324843023378401,0.0670626536011695,-0.0048906370066106,-0.027554266154766,-0.9609870121315122,-9.728559044581653,-0.7759235824644565,50,standing
1783066168059058700,3.6864681,-0.2167401321738958,-0.0064198039144277,-0.0666927785694599,0.0482749678194522,0.0129258697852492,-0.0562006197869777,-0.9525283228006214,-9.730349435129762,-0.7637956300362945,50,standing
1783066168078985700,3.7063951,-0.0875322260458022,-0.0362526321202516,0.0738210230141878,-0.0208165273070335,0.0095840012654662,-0.0360206142067909,-0.9427227489054204,-9.731491590902207,-0.7614059584207833,50,standing
1783066168098912800,3.7263222,0.0785140031360089,0.0811211168944835,0.0996305139880627,-0.046433962881565,-0.0062710614874958,0.0245956126600503,-0.9419228306993842,-9.730952077198028,-0.7692586446825415,50,standing
1783066168118839800,3.7462492,-0.0145156512822955,0.1656862367630004,-0.0962584072064608,-0.0282815583050251,-0.0397752821445465,0.0252357982099056,-0.9485517473198471,-9.72977309654653,-0.7759794773701578,50,standing
1783066168138765800,3.7661752,-0.3048945817712694,0.1445844120234251,0.0351456207264214,-0.0416960529983043,0.0121445385739207,-0.0148291513323783,-0.9496667958896606,-9.729171039000152,-0.7821367578908801,50,standing
1783066168158693000,3.7861024,-0.1220082769475877,0.0939087022751569,-0.1045271269232034,-0.021142803132534,-0.001114199636504,-0.0058973720297217,-0.9465537784356624,-9.728924370762703,-0.7889590051263571,50,standing
1783066168178620200,3.8060296,0.0411182653952389,0.0924941593021154,-0.1758422315310686,0.0041895285248756,-0.0127314897254109,0.0289066303521394,-0.9492688826132564,-9.728556706494093,-0.7902179191462695,50,standing
1783066168198547200,3.8259566,-0.1743974395502358,0.039189270094037,-0.1262959642041474,0.004087833687663,0.0126429870724678,-0.0044581010006368,-0.9523738628912716,-9.72837433566451,-0.7887379827868193,50,standing
1783066168218474200,3.8458836,-0.2227919064935296,0.0032920272827148,-0.0563712910413742,0.0018103728070855,0.0368631295859813,-0.0214197449386119,-0.9488702386844904,-9.72868880844116,-0.7890813163317739,50,standing
1783066168238400000,3.8658094,0.021916136797145,0.0315554142147302,-0.1436410667587071,0.0312252920120954,0.0139253940433263,0.0062710745260119,-0.947873774993047,-9.72897113251388,-0.7868053342238068,50,standing
1783066168258327000,3.8857364,-0.0533552311558276,0.1553460445344448,-0.1055536204267293,0.0470741428434848,-0.0272775366902351,-0.0017099764663726,-0.949217079360783,-9.729460377335547,-0.7791038199357688,50,standing
1783066168278254000,3.9056634,-0.2666465380501002,0.0666191288113594,-0.0499193384230136,0.0489651411771774,-0.0336756817996501,-0.0418565087020397,-0.9454181985344736,-9.730664492428302,-0.7685985733386129,50,standing
1783066168298181000,3.9255904,-0.1610713633786887,-0.0490355413258075,0.1076929705429822,0.0072608739137649,0.0145892677828669,-0.0197318047285079,-0.9395129200134426,-9.731726568701864,-0.762357560057193,50,standing
1783066168318108200,3.9455176,-0.0139545102681964,0.0189928697615861,-0.0039906040061265,-0.0066221468150615,-0.002276387065649,-0.0043146181851625,-0.9377407957743852,-9.731821261247992,-0.7633512472696602,50,standing
1783066168338035200,3.9654446,-0.1185530949924141,0.1188613572239875,0.0214770147275179,-0.0162937939167022,-0.021345654502511,-0.0114082023501396,-0.9366913597866892,-9.73173182939887,-0.7657744558285922,50,standing
1783066168357961000,3.9853704,-0.2182066975951194,0.0524514872491359,-0.030938086033985,-0.0295429844409227,-0.0320800393819808,-0.0304955728352069,-0.9331047334715724,-9.731758717405796,-0.7697725855540484,50,standing
1783066168377888000,4.0052974,-0.1627163541067391,0.0136702134341001,0.0283867210507392,-0.0332949571311473,-0.0057735708542168,-0.022773990407586,-0.9278427212901412,-9.731734752008318,-0.77642524837628,50,standing
1783066168397815000,4.0252244,-0.01868022361584,0.1538110900521278,-0.1386621093023568,-0.0004589052405208,-0.0149668511003255,-0.0030189780518412,-0.9247852334156632,-9.731816000550984,-0.7790653145562857,50,standing
1783066168417742000,4.0451514,-0.0976099679458886,0.1859749915540218,-0.0385568174093961,-0.0158851146697998,-0.0155667476356029,0.0120754204690456,-0.9272577610090376,-9.73150737299323,-0.7799608751565218,50,standing
1783066168437669000,4.0650784,-0.2255583024669438,0.1829249563336372,-0.1302986239742487,0.0137775521725416,-0.0519153401255607,-0.0160360112786293,-0.927998204112798,-9.731449505326152,-0.7797970628969371,50,standing
1783066168457595100,4.0850045,-0.2014084152683615,0.1168248829603195,-0.0630476270001381,0.0366167053580284,-0.0161704868078231,-0.0213003791868686,-0.9250631735742092,-9.73223744083345,-0.7734264318864792,50,standing
1783066168477522200,4.1049316,-0.1618414709683507,0.0209901810586452,-0.0182516229402273,0.0064009027555584,0.0088952155783772,-0.0130368433892726,-0.9218342015903442,-9.732918993356824,-0.7686919507104903,50,standing
1783066168497449200,4.1248586,-0.0861349264685064,0.0314554609715938,0.004873158994317,-0.0492975153028965,0.0141913183033466,0.0191870275884866,-0.9215246972497552,-9.732610365799069,-0.7729629060279577,50,standing
1783066168517376000,4.1447854,-0.0647284927591681,0.0971317559748888,-0.0935896263886243,-0.033750019967556,-0.0042165257036685,0.0221230927854776,-0.9264710676107556,-9.731400405487417,-0.7822393414825201,50,standing
1783066168537303000,4.1647124,-0.189599173400551,0.1689613129109144,-0.111363110423088,0.0269854236394166,-0.0031498097814619,0.0019913166761398,-0.9287924962956458,-9.731103468367456,-0.7831708501789718,50,standing
1783066168557229000,4.1846384,-0.1900555388659238,0.0483271007955074,-0.1475409237414598,0.0675996541976928,-0.0186232589185237,-0.0120506882667541,-0.9280368556227534,-9.73197499050498,-0.7731793983228504,50,standing
1783066168577156000,4.2045654,-0.1632872858624905,-0.0077805708736181,-0.0350653950970619,0.0155532341450452,-0.0218633823096752,-0.0059359204024076,-0.9265233092546462,-9.732878076824544,-0.7635503500383347,50,standing
1783066168597083100,4.2244925,-0.1667274894442409,0.0202145205110311,0.0441624553967267,-0.0309500116854906,0.0003837456461042,-0.0001362112234346,-0.9259261470790952,-9.732741883224248,-0.7660141828685998,50,standing
1783066168617010200,4.2444196,-0.1051210742283612,0.1133545765012502,-0.0890461377400904,-0.0166170671582222,0.0137555012479424,0.0074407737702131,-0.9270794087674468,-9.732209968304634,-0.771370522269979,50,standing
1783066168636937200,4.2643466,-0.0759054280728101,0.1823556320130825,-0.1121264229457825,0.0150236841291189,0.0248440317809581,0.0221919491887092,-0.929808687600866,-9.731927644231916,-0.7716332648593932,50,standing
1783066168656863000,4.2842724,-0.1097950573887675,0.1216062720179557,-0.1009346553891897,0.0084675513207912,0.0012338520027697,0.01142752263695,-0.9340767203088848,-9.731782098281382,-0.7683101848512888,50,standing
1783066168676790000,4.3041994,-0.1653738828781992,0.055644145810604,0.0463327121078968,-0.0207908116281032,-0.0050823194906115,0.0022732215002179,-0.935659897847101,-9.731510880124569,-0.7698308916125446,50,standing
1783066168696717000,4.3241264,-0.1109761569321155,0.0084667995721101,-0.1116775101345032,-0.0072535816580057,-0.0160042531788349,-0.0053567900322377,-0.9352899685561656,-9.731319156944751,-0.7726808742161839,50,standing
1783066168716644000,4.3440534,-0.1289331077747046,-0.0192231713861227,-0.0732750795692205,-0.0095637226477265,0.020478967577219,0.004534245468676,-0.9349904010877012,-9.731163089600203,-0.7750204230796546,50,standing
1783066168736571100,4.3639805,-0.1139639405712485,0.1069201595395803,-0.1654945135831833,0.0114409327507019,-0.0148301431909203,0.00479884352535,-0.9363421810228376,-9.731012282952666,-0.7752768820587546,50,standing
1783066168756497200,4.3839066,-0.2232617890276014,0.1372229433447122,-0.1499221928548067,0.0251611974090337,0.0034939805045723,-0.0060647497884929,-0.937327173472196,-9.731237323880196,-0.7712465305641293,50,standing
1783066168776424000,4.4038334,-0.2596691002529114,0.0786187786847353,-0.1051408749073743,0.0242722705006599,0.0335214585065841,-0.0128035424277186,-0.934439270010963,-9.731890234830974,-0.7664984592542052,50,standing
1783066168796351000,4.4237604,-0.1007006274376064,0.0511269606471061,-0.0939268955189734,0.0167324822396039,0.0021334427874535,0.0023450572043657,-0.933594708945602,-9.732232180136442,-0.7631975180126727,50,standing
1783066168816278000,4.4436874,-0.1453119225803762,0.1024573349118232,-0.0655816755224019,0.0227129906415939,0.0101513005793094,-0.0034903164487332,-0.9334256359890104,-9.732536131519078,-0.759519852413237,50,standing
1783066168836205000,4.4636144,-0.0916851079415529,0.0970095908999443,-0.0502630372941493,0.0247559379786252,0.0132196005433797,0.0119907101616263,-0.9339310282278804,-9.732773447406291,-0.7558349533554166,50,standing
1783066168856131000,4.4835404,-0.078624916164577,0.1233960780441761,-0.0792237588405609,0.0237180683761835,-0.0135162845253944,0.0126542234793305,-0.936965427487716,-9.732823716288804,-0.7514142873689532,50,standing
1783066168876058000,4.5034674,-0.183341135919094,0.1368470957696437,0.0109953682016581,0.0078344037756323,0.0149125503376126,0.0053405039943754,-0.9383424149293452,-9.732958156323432,-0.74796063978374,50,standing
1783066168895985200,4.5233946,-0.1428409293569624,0.069503159815073,-0.093598905673623,0.0095184352248907,0.0015172123676165,0.0021043284796178,-0.9394880778331308,-9.732949973016977,-0.7466165316984057,50,standing
1783066168915912200,4.5433216,-0.157872275076434,0.0490074842751026,-0.0409803182292729,-0.0134752597659826,0.0473363175988197,0.009431704878807,-0.940318098916486,-9.732806180632114,-0.7474601429156958,50,standing
1783066168935839000,4.5632484,-0.0577155452571809,0.0838379746377468,-0.1494674348246306,-0.0089203789830207,-0.0102440100163221,0.0159704405814409,-0.94246205214262,-9.732319858419894,-0.7510516646016389,50,standing
1783066168955765000,4.5831744,-0.1270338500246405,0.1103986493051052,-0.0856670166958123,0.0226939301937818,-0.0256805643439292,-0.0014158093836158,-0.9449703086365012,-9.732247962227463,-0.7488615341462195,50,standing
1783066168975692000,4.6031014,-0.303732040797919,-0.0140805478006601,-0.0064893620193004,0.0170459002256393,0.023821722716093,-0.0501820519566535,-0.9403549968607724,-9.733013685902952,-0.744691408854723,50,standing
1783066168995619000,4.6230284,-0.0918114377349615,0.0148772511363029,-0.0501613304853439,-0.0009109606035053,0.0055340807884931,-0.0304405391216278,-0.9312606399748474,-9.73398925293684,-0.7433668822526931,50,standing
1783066169015546000,4.6429554,0.1067396153409034,0.109453477409482,-0.0494528899550437,-0.0198528449982404,0.0044045369140803,0.0177596528083086,-0.9306441885769366,-9.733844876030089,-0.7460203193709254,50,standing
1783066169035473200,4.6628826,-0.0943359147112816,0.1887421181797981,-0.1230769290924072,0.0006201678188517,0.0061997752636671,0.0056822160258889,-0.9333752940412612,-9.733377258518338,-0.7487120426729321,50,standing
1783066169055399000,4.6828084,-0.149646079327166,0.142146955743432,-0.0892776084084063,0.0157776251435279,0.0179753508418798,-0.0065657817758619,-0.9332811860170216,-9.733469612976908,-0.7476453632894903,50,standing
1783066169075326000,4.7027354,-0.0663139353197068,0.0886819075375795,-0.1075526122242212,0.0194494761526584,-0.0166955161839723,0.0031699570827186,-0.9332654769912362,-9.733723295477033,-0.7443343390453606,50,standing
1783066169095253000,4.7226624,-0.0743459236711263,0.0442892235815525,-0.01551671808362,0.0182019770145416,-0.0325959436595439,0.0055707697756588,-0.934510654746741,-9.733922032919526,-0.740152742511779,50,standing
1783066169115180000,4.7425894,-0.1255443421192467,-0.0252162743210792,0.0082627283673733,-0.0049196640029549,0.0019264180446043,0.003042709082365,-0.9353861954722552,-9.733999774330854,-0.7380451027080416,50,standing
1783066169135107000,4.7625164,-0.0798372876290231,0.050282326516509,-0.0325852687191218,-0.0016311940271407,-0.0212373714894056,0.0059456750750541,-0.936351606438309,-9.733779409578442,-0.7396946234807371,50,standing
1783066169155033300,4.7824427,-0.1119205981753766,0.1118938562989234,-0.0715301355980336,-0.02330232411623,-0.0035296706482768,-0.0004596924991346,-0.9376376276608556,-9.733590024486183,-0.7405530669409781,50,standing
1783066169174960400,4.8023698,-0.1935464497216045,0.0983925696909427,0.0276181478310376,-0.0478808656334877,-0.0097381537780165,-0.004747234750539,-0.9365168800026178,-9.73310837844908,-0.7482724822118878,50,standing
1783066169194887200,4.8222966,0.0080617989677935,0.076743047940731,-0.116561336653307,-0.0305253490805625,-0.0160851441323757,0.0190053526312112,-0.9376105935234575,-9.732409874790909,-0.7559751655437051,50,standing
1783066169214814200,4.8422236,-0.063409738310799,0.127924369123578,-0.1488918268937617,-4.39109280705e-05,-0.0091759618371725,0.0140717308968305,-0.9417061922740192,-9.731816585072874,-0.7585105292402208,50,standing
1783066169234740200,4.8621496,-0.210699463770166,0.072800447794795,-0.1498971314787864,0.013438950292766,-0.0008557627443224,-0.0101678762584924,-0.9424080569330602,-9.731908355009557,-0.7564581267550587,50,standing
1783066169254667300,4.8820767,-0.219320430990681,-0.0152542677551507,-0.0572545036166906,-0.0112523566931486,0.0037989378906786,-0.0264256596565246,-0.9385754930328576,-9.73228887875974,-0.7563250018946825,50,standing
1783066169274594300,4.9020037,-0.0525982753086835,0.0250438403636217,-0.0426344421118497,0.0051665632054209,-0.0042713638395071,-0.0083229374140501,-0.9350102017667145,-9.732483524549007,-0.758226086275652,50,standing
1783066169294521300,4.9219307,0.0291062674969434,0.0878705911546945,-0.1713544185925275,0.036207377910614,-0.0200327262282371,-0.0021611559204757,-0.9345637731734664,-9.732913148137929,-0.753256261973828,50,standing
1783066169314448400,4.9418578,-0.1537049262639135,0.0975777461767196,0.0386089129228144,-0.0140403062105178,0.0113214943557977,-0.0094054639339447,-0.933562048785016,-9.733191380557418,-0.7508841260150074,50,standing
1783066169334374100,4.9617835,-0.110214232648909,0.0228320095330476,-0.079292074836418,-0.0208741668611764,-0.0344735458493232,-0.0150126023218035,-0.9321611690111458,-9.732965170586109,-0.7555361896045506,50,standing
1783066169354301200,4.9817106,-0.1853532063938677,0.0465963314801454,-0.0170071758370846,-0.0208948999643325,-0.0229002945125103,-0.0398439653217792,-0.9273517959680408,-9.733236973264813,-0.7579659009695052,50,standing
1783066169374228200,5.0016376,-0.2001181562621146,-0.017198972082138,0.0144657477259635,-0.0358336791396141,-0.0342093147337436,-0.0664754807949066,-0.9170764856692404,-9.733785839319228,-0.7634020276088267,50,standing
1783066169394155300,5.0215647,-0.0725189274396747,0.0413818117022514,0.0336450069051235,-0.0370106063783168,-0.0054845307022333,-0.0447297766804695,-0.9058115798112004,-9.73430781736672,-0.7701610003497451,50,standing
1783066169414082300,5.0414917,0.0329017142571508,0.1387087979882955,-0.0278010301172733,-0.0204358864575624,0.0099582225084304,-0.0101061416789889,-0.9009493075370788,-9.734220139083266,-0.7769500029027462,50,standing
1783066169434008300,5.0614177,-0.0187893100135028,0.25035832413733,-0.2672784792780876,0.0344271324574947,-0.0246978346258401,-0.0074861948378384,-0.9005842005517333,-9.734389650431275,-0.7752467791814357,50,standing
1783066169453935000,5.0813444,-0.1717727170698344,0.1507037716865539,-0.1097731378179043,0.0209167264401912,0.010755063034594,-0.00156961963512,-0.8996325258500874,-9.734991707977652,-0.7687492338556796,50,standing
1783066169473862100,5.1012715,-0.1223393355328589,0.0205845228672027,-0.1076408019643276,0.009493020363152,-0.0073545300401747,-0.0034792027436196,-0.8989370178665965,-9.735206812033056,-0.7668416466686874,50,standing
1783066169493789200,5.1211986,-0.0369957055725157,-0.0015659341424703,-0.174905242941901,0.0261456556618213,-0.0308229066431522,0.0051874453201889,-0.8989875059448182,-9.735501995587349,-0.7630232574243098,50,standing
1783066169513715200,5.1411246,-0.0089041680760681,0.0480640659451484,-0.0757188925247639,0.0407692976295948,-0.0068649444729089,0.0231900550425052,-0.9022389089561998,-9.735751586434244,-0.7559670553024858,50,standing
1783066169533642200,5.1610516,-0.1582288334291428,0.0698836835652589,-0.0964700771957635,0.0162983871996402,0.0171006750315427,0.0001082682283595,-0.9059938045103102,-9.73587433603108,-0.749880282734707,50,standing
1783066169553569300,5.1809787,-0.334109716470167,0.0982698200941085,0.06159406719096,-0.016558401286602,0.0235955659300088,-0.0339000560343265,-0.9015977615084498,-9.736127434009314,-0.7518726986609399,50,standing
1783066169573496300,5.2009057,-0.0344875952091068,0.0145241999149322,-0.1237982291042804,-0.0008097987156361,0.0022434785496443,-0.0048150680959224,-0.8971561257991939,-9.736329678583145,-0.7545742857698351,50,standing
1783066169593423400,5.2208328,0.0440272116445004,0.1397580147802829,-0.0869816064257174,0.0002348839771002,0.0190313681960105,0.0259959623217582,-0.8989072072502226,-9.7361677660197,-0.7545802040539682,50,standing
1783066169613349000,5.2407584,-0.071287997405231,0.151399352735281,-0.0194599027514457,-0.0035536151845008,0.029261851683259,0.0338277369737625,-0.9047983111154289,-9.735538235944508,-0.7556627385936677,50,standing
1783066169633276200,5.2606856,-0.1667272702485323,0.1390501587718725,-0.075547043089196,0.005494475364685,0.0069641508162021,0.0119468187913298,-0.9100648533415048,-9.735009828156231,-0.7561381740856915,50,standing
1783066169653203200,5.2806126,-0.2228236168060451,0.0608855535954236,-0.0735281775474548,0.0211387202143669,-0.0080869710072875,-0.009313728660345,-0.9094839116483926,-9.735255911871793,-0.7536687882974743,50,standing
1783066169673130200,5.3005396,-0.0768879363041371,-0.0006920739173889,-0.044491468155384,0.0221930295228958,-0.0105522591620683,0.0164907034486532,-0.909822642083466,-9.735628252315522,-0.7484380480371415,50,standing
1783066169693056300,5.3204657,-0.1158464663822203,0.0418470911264419,0.0635060382921248,-0.0353817753493785,0.022294782102108,0.0088688833639025,-0.9132111154779792,-9.735220840558409,-0.7495947437915951,50,standing
1783066169712983300,5.3403927,-0.238080003453046,0.1476864696919917,0.0942546661686152,-0.0600022450089454,0.006352009717375,-0.0172860454767942,-0.9117355630327016,-9.734519998812674,-0.7604411319766193,50,standing
1783066169732910000,5.3603194,-0.0068331339556723,0.1013654480218887,-0.0884504368692636,-0.0055785672739148,-0.0356820151209831,0.0044559747911989,-0.910894582163915,-9.73398691484928,-0.7682247715901583,50,standing
1783066169752837000,5.3802464,-0.0041954058632254,0.1560018780946731,-0.2238935841251164,0.0640021488070488,-0.0714745596051216,0.0083256214857101,-0.9142804252099244,-9.73430606380105,-0.7601229328729212,50,standing
1783066169772763100,5.4001725,-0.2475675243750214,0.0517845477730035,0.0840693722408264,0.0029796517919749,0.0297492854297161,0.0047977571375668,-0.9155654965844005,-9.734835056111216,-0.7517525063473731,50,standing
1783066169792690200,5.4200996,-0.1196862637408077,-0.0014379238486289,-0.0130828420002013,-0.0675990581512451,-0.0096234418451786,0.0264795888215303,-0.918200302067399,-9.7339857458055,-0.7594965446028858,50,standing
1783066169812617200,5.4400266,-0.0578046848453581,0.0523462733089923,-0.0825748228341341,-0.059757649898529,-0.0214518718421459,0.0421632081270217,-0.9254642286557704,-9.73225380744636,-0.7727539394523948,50,standing
1783066169832544300,5.4599537,-0.0937242125537246,0.131749480369687,-0.1960064831595867,-0.008543275296688,-0.0048332400619983,0.0483201518654823,-0.9348843103647232,-9.730851539433004,-0.7790320698738098,50,standing
1783066169852471300,5.4798807,-0.2528772481556982,0.1177531037211418,-0.1212893880885094,0.0096778832376003,0.0083032855764031,0.0144750531762838,-0.941081338373944,-9.730322547122835,-0.7781821019809693,50,standing
1783066169872397300,5.4998067,-0.2278586152985691,0.0711538496315479,-0.0780127025503665,0.0102178575471043,0.0293967556208372,0.0024529153015464,-0.9412603482026606,-9.730411978971958,-0.7768672930553555,50,standing
1783066169892324000,5.5197334,0.006493015281111,0.044139001455903,-0.1667283662270754,0.0085916947573423,0.0200529843568801,0.0294370558112859,-0.9436730353675782,-9.730329561385512,-0.7749410011678933,50,standing
1783066169912251100,5.5396605,-0.0491097756057977,0.1213905834406614,-0.0517565637875348,-0.0221287813037633,0.030921246856451,0.0317126289010047,-0.9495715188216416,-9.729622289898993,-0.7766372106265276,50,standing
1783066169932178200,5.5595876,-0.1227683015346527,0.0827431651383638,-0.0101150782357901,-0.0519572533667087,0.0315249115228652,0.0395576953887939,-0.9567170797273516,-9.728232881367203,-0.7852087126821279,50,standing
1783066169952104400,5.5795138,-0.1514343509834259,0.0540758735805749,-0.0991536171913146,-0.0207782555371522,0.0123435659334063,0.0191334560513496,-0.9624678983390332,-9.726949855819344,-0.7940330935202539,50,standing
1783066169972031200,5.5994406,-0.1149422110188752,0.1016892731487751,-0.1670681195754557,0.0560205020010471,-0.0111441286280751,0.0068544610403478,-0.964992594511062,-9.726979666435716,-0.7906125444870442,50,standing
1783066169991958000,5.6193674,-0.0012959580946713,0.0924012203216552,-0.09234810189493,0.0689544528722763,-0.0049466155469417,0.0297760963439941,-0.9688044809494168,-9.727717333060502,-0.776747173807025,50,standing
1783066170011885000,5.6392944,-0.0960496598266065,0.0592570756107568,0.0157383249450474,-0.013998189009726,0.0085172578692436,0.0361008420586586,-0.9756548583008348,-9.727491707611083,-0.7709596764467657,50,standing
1783066170031811300,5.6592207,-0.2157312473922967,0.0258095640391111,0.1311012455940246,-0.0899384543299675,0.0354603379964828,0.0196074973791837,-0.9809208890702577,-9.726067227765917,-0.7821746787484735,50,standing
1783066170051738400,5.6791478,-0.1278018387224525,-0.006036942076683,0.0132090987283736,-0.0805859267711639,0.016837190836668,0.0111850574612617,-0.983107585459575,-9.724297295483948,-0.8012007931925356,50,standing
1783066170071665400,5.6990748,-0.0043464317064732,0.0515489854514598,-0.2261403401385992,0.0049860049039125,-0.0343748331069946,0.0227826088666915,-0.9864042158521712,-9.72337491994202,-0.8083044146526605,50,standing
1783066170091592200,5.7190016,-0.0100721889421343,0.1013525885403156,-0.1862340078163891,0.0426518507301807,-0.0478991195559501,0.0331287756562233,-0.9933978010665624,-9.723200732418894,-0.8018233090050518,50,standing
1783066170111519200,5.7389286,-0.2353180644590407,0.0785825383275747,-0.0408189901877194,-0.0036820934619754,-0.0367011353373527,0.0029593519866466,-0.9979954310551286,-9.723176182499529,-0.796403695109114,50,standing
1783066170131445200,5.7588546,-0.2594089880120009,0.0442903926253318,0.0323169731717556,-0.026264214888215,-0.0020638932473957,-0.0127025283873081,-0.9970981899544596,-9.72300082593262,-0.7996586052518337,50,standing
1783066170151375600,5.778785,-0.0327842253573238,0.0246942962735891,-0.1967757870316505,0.0013090565335005,-0.0030539012514054,0.0088444426655769,-0.9965730701018124,-9.722857033547758,-0.802055218064785,50,standing
1783066170171302700,5.7987121,-0.0503432629235088,0.1239648178428411,-0.146294723072648,0.0004862893838435,0.0106841064989566,0.0149200148880481,-0.9992147437170148,-9.722618548616769,-0.8016594236802309,50,standing
1783066170191229700,5.8186391,-0.1089916320513933,0.1207575462341308,-0.0944359410196542,-0.0283822249621152,0.0152891473844647,0.0168280731886625,-1.0022173595990984,-9.722104753875731,-0.8041379426229744,50,standing
1783066170211155700,5.8385651,-0.1875257281273603,0.0365934083819389,-0.0320703779995441,-0.0550952553749084,0.0107366908341646,0.0094936797395348,-1.0050858277074992,-9.72098948611021,-0.8139810720495879,50,standing
1783066170231082800,5.8584922,-0.1353214936375618,0.014694295784831,-0.1940320412814617,0.0095093846321105,-0.0200054813176393,-0.0012934324331581,-1.005964364107698,-9.720488550850748,-0.8188643140465021,50,standing
1783066170251009800,5.8784192,-0.0653583881605416,0.0441740727692842,-0.1421515588533133,0.0461354181170463,0.0175710618495941,0.0030221061315387,-1.0064958406358957,-9.720938048183918,-0.8128354091458022,50,standing
1783066170270936800,5.8983462,-0.1342385207064449,0.0940408042222261,-0.1295680446773767,0.0397355034947395,-0.0006836452521383,0.0016366522759199,-1.0071969015773383,-9.721574592521788,-0.8043206057135015,50,standing
1783066170290862600,5.918272,-0.1756072537314146,0.1323755033135414,-0.0220780493605881,0.0168051868677139,-0.0212413892149925,-0.0124972714111208,-1.0056320634134113,-9.72220178450942,-0.7986839150007814,50,standing
1783066170310789600,5.938199,-0.1361692695733159,0.0669739335983991,-0.0004121609974652,-0.0079246200621128,0.0110363457351922,-0.0029717297293245,-1.004668113752082,-9.722341485241056,-0.79820380333364,50,standing
1783066170330716700,5.9581261,-0.0441778721615672,0.0583598345100879,-0.0636613019190728,-0.0240135677158832,0.0264240559190511,0.027470801025629,-1.0065772353090343,-9.721804894146322,-0.8022918763648718,50,standing
1783066170350643700,5.9780531,0.0488506862781941,0.122376087346673,-0.1033889897387474,-0.0195446386933326,-0.0042161322198808,0.0454154834151268,-1.0140133766591548,-9.720580320787429,-0.8077541603587567,50,standing
1783066170370569700,5.9979791,-0.0976253116454929,0.1479600259363651,-0.1259509501587599,0.0085255391895771,-0.0398730710148811,0.0346274003386497,-1.0233096858579664,-9.719528765907883,-0.8086853767942637,50,standing
1783066170390496800,6.0179062,-0.2817400622855872,0.1104775597602129,-0.1202613602150231,0.0458912067115306,-0.0810540914535522,-0.0111457016319036,-1.0266915103159844,-9.71975672944486,-0.8016558434836566,50,standing
1783066170410423600,6.037833,-0.3186666481446474,-0.0422878206312656,0.0948421837329864,-3.35969962179e-05,-0.0168051123619079,-0.0195051450282335,-1.024181134930253,-9.720518361467123,-0.7955950821399689,50,standing
1783066170430350600,6.05776,-0.2268904278535395,-0.0676297671586275,0.0497521651625633,-0.0552346855401992,-0.0310878902673721,-0.0158067867159843,-1.0212370443023742,-9.7203155323714,-0.8018309808548539,50,standing
1783066170450276600,6.077686,-0.2123446006286889,0.0073737436383962,-0.0416267263740301,-0.051246453076601,-0.0423153415322303,-0.0165523011237382,-1.018275198822096,-9.719752053269744,-0.8123549321524799,50,standing
1783066170470203600,6.097613,-0.0815784322079271,0.1148556287139654,-0.1139314265411347,-0.0235284976661205,-0.0290818717330694,0.0039204289205372,-1.0169109977968036,-9.719344641512633,-0.8189096144929527,50,standing
1783066170490130700,6.1175401,0.0055876639392226,0.1340671096622943,-0.1877624594926834,0.0086362175643444,-0.0717854052782058,0.0100523177534341,-1.0199808336962013,-9.71910381849408,-0.8179518753767013,50,standing
1783066170510057700,6.1374671,-0.1182403757814317,0.1568780764073133,0.0841571966547519,-0.0159180592745542,-0.0275074373930692,0.0097482036799192,-1.0228956251643595,-9.718869425216315,-0.8170823990657925,50,standing
1783066170529983500,6.1573929,-0.0013664660476148,0.1075444289177656,-0.0240079945098608,-0.0421875528991222,-0.0158882066607475,0.0226859562098979,-1.0266436525862663,-9.718018361344932,-0.822491856893897,50,standing
1783066170549910500,6.1773199,-0.1138810845933854,0.1226233401060104,-0.0134222300224006,-0.0385426767170429,-0.0001340603921562,-0.0001823892816901,-1.0297988286815585,-9.716935826805232,-0.8312818240057677,50,standing
1783066170569837600,6.197247,-0.1198535100664943,0.0800613787084817,-0.2100081935703754,0.0154563430696725,-0.0494890846312046,-0.0344405025243759,-1.0262208971295506,-9.717171973648666,-0.832965612374246,50,standing
1783066170589764600,6.217174,-0.0590079962205141,0.0213730428963899,-0.0522153404057025,0.0199014227837324,-0.031140249222517,-0.0225365068763494,-1.0206274610366672,-9.71818904173672,-0.8279535563658923,50,standing
1783066170609690600,6.2371,0.0420822881218045,0.0370300462335348,-0.0178938224785029,-0.0212489776313304,0.0320557728409767,0.0211142897605896,-1.0204129415031522,-9.71828198071718,-0.8271097990181296,50,standing
1783066170629617700,6.2570271,0.0536032876327633,0.1052466733694076,-0.0666067807864397,-0.0726484060287475,0.0419939085841178,0.0668791458010673,-1.0292403180159628,-9.716319156211616,-0.8391497078366578,50,standing
1783066170649544700,6.2769541,-0.125702820616588,0.2314361815243959,-0.3218120334982872,-0.0077448557130992,-0.0429288111627101,0.0273923687636852,-1.0395254921216517,-9.714569682195782,-0.846708160392195,50,standing
1783066170669471700,6.2968811,-0.3307783800903707,0.0850987883538007,-0.0432675523836165,0.0286167338490486,-0.001432511024177,-0.0097313346341252,-1.041697575463727,-9.714578450024128,-0.84393387337327,50,standing
1783066170689397500,6.3168069,-0.1581917893543839,-0.0584562806218862,-0.0884071091841906,0.0308064147830009,0.0430290661752224,-0.0049673318862915,-1.0392082428660243,-9.715421915110944,-0.8372510346084833,50,standing
1783066170709324500,6.3367339,-0.0977900006879121,-0.018215455648303,0.0563058245897293,-0.0287294276058673,0.0628315061330795,0.0095924139022827,-1.0387078921284525,-9.715410809195042,-0.8380127396959811,50,standing
1783066170729251600,6.356661,0.0014683189868927,0.1051934818774461,-0.0067179831434041,-0.0596220530569553,0.0212187729775905,0.0322769023478031,-1.04204865392372,-9.714173376354577,-0.848161354875192,50,standing
1783066170749178600,6.376588,-0.0663019526209682,0.1676040530830621,-0.1108650977730751,-0.0367359444499015,-0.0419268235564231,0.0383202023804187,-1.04954573168084,-9.712537884107231,-0.8575897660210728,50,standing
1783066170769104600,6.396514,-0.1868546969980001,0.1560340267986059,0.0375251362740993,-0.0158087071031332,-0.0026103968266397,0.0165476892143487,-1.0551377064689993,-9.711592127689718,-0.8614300017710774,50,standing
1783066170789031700,6.4164411,-0.1768864068217575,0.0632388387233018,0.0741203712869435,-0.0195139274001121,0.0277680829167366,0.0106986667960882,-1.0573246951192616,-9.71097311900854,-0.8657028567846864,50,standing
1783066170808958500,6.4363679,-0.045215106254816,0.1271837798893451,-0.0957768342345952,0.0052668983116745,-0.0045930324122309,0.0054685147479176,-1.0588114265456796,-9.710724112683534,-0.8666926715396344,50,standing
1783066170828885500,6.4562949,-0.1006865258470177,0.0666243895083665,-0.0785609110176563,0.0186464972794055,-0.0226911380887031,-0.0009452078375034,-1.0603516417250036,-9.71076795182526,-0.8643054110769182,50,standing
1783066170848811500,6.4762209,-0.2259922369047999,0.0110690910249948,-0.0634006782215088,0.0018763202242553,0.001707267598249,-0.0265884548425674,-1.057748619619757,-9.711326170229912,-0.8612098562143743,50,standing
1783066170868738600,6.496148,-0.217489489236474,-0.0636491730898618,0.0599327829152345,-0.0568219944834709,0.0602983124554157,-0.011149937286973,-1.0527838368192317,-9.711277654913069,-0.8678262056142091,50,standing
1783066170888665600,6.516075,0.0019600480265915,0.0275000013440847,-0.0848947171490639,-0.0455968454480171,0.0254785940051078,0.0206482540816068,-1.0533139251079409,-9.710099258783458,-0.8802679001666605,50,standing
1783066170908592600,6.536002,-0.0438508321642875,0.1926701052784919,-0.1497568462252616,0.0263599324971437,-0.0145756257697939,0.0102507527917623,-1.0570327264353632,-9.709472066795826,-0.8827424735866487,50,standing
1783066170928518700,6.5559281,-0.1846326370343566,0.1502823314040899,-0.1661620375812053,0.0739804580807685,-0.0444267578423023,-0.0299060642719268,-1.0561623002763838,-9.710628835615514,-0.870976486338675,50,standing
1783066170948445400,6.5758548,-0.3003772504772991,-0.014479776251316,0.1142927341341972,0.0172733515501022,0.0319444648921489,-0.0396414808928966,-1.049054587163031,-9.71226374334097,-0.861283579037711,50,standing
1783066170968372500,6.5957819,-0.0440623560231179,-0.0132440969765186,0.0259714766025543,-0.0380590371787548,0.0368223302066326,0.005257046315819,-1.044251789991185,-9.712452543911338,-0.8649894478183239,50,standing
1783066170988298800,6.6157082,0.0814687612883746,0.1079191074490547,-0.1175035859394818,-0.0199341848492622,-0.0120566030964255,0.0366564989089965,-1.049773768283054,-9.711212772983313,-0.8721990869361906,50,standing
1783066171008225800,6.6356352,-0.2232606199838221,0.2247977664232253,-0.1128243420820683,0.0284014325588941,-0.0142851034179329,-0.0145808458328247,-1.0529983563527463,-9.711073072251676,-0.8698455826126038,50,standing
1783066171028152800,6.6555622,-0.3188376207973807,0.0566390020668506,0.0280863498646765,0.0255950670689344,0.0246941279619932,-0.0361296646296978,-1.0472039908602833,-9.712304075351357,-0.8630644711051135,50,standing
1783066171048079600,6.675489,-0.0918642639007419,-0.010166004705429,0.0825596252650022,-0.0160863902419805,0.0382769629359245,-0.003687729127705,-1.0423886995330451,-9.712836574792862,-0.8629196558069437,50,standing
1783066171068005600,6.695415,0.0532263440791517,0.0465109912842512,-0.0969622446268796,-0.0329732820391655,0.0125660710036754,0.0337916016578674,-1.0451738732721656,-9.712052730938792,-0.8683501564230769,50,standing
1783066171087932700,6.7153421,-0.0930043007813394,0.1458294436484575,-0.1421160491485148,-0.0044990256428718,-0.0229962933808565,0.0249636229127645,-1.0518732978455725,-9.710965520223974,-0.8724268312774598,50,standing
1783066171107859700,6.7352691,-0.2968308831073343,0.0930342575281858,-0.0808363816689699,0.0292423833161592,-0.0161474030464887,-0.0232776161283254,-1.0529003028057515,-9.7111397077471,-0.8692129837974906,50,standing
1783066171127786800,6.7551962,-0.3109069739285856,0.0456529131501913,0.0222474145781248,0.0335339568555355,0.0142526403069496,-0.0466031432151794,-1.0452587020114064,-9.71254256028235,-0.8627615426357835,50,standing
1783066171147712800,6.7751222,0.0163661014545708,-0.0009445873737335,-0.0884649768512696,0.0309611875563859,0.0090559544041752,0.0101663600653409,-1.0412340496052055,-9.71352806418836,-0.8564964908916503,50,standing
1783066171167636500,6.7950459,0.0175984927937388,0.0970931775301694,-0.0629846447665244,0.0096383653581142,0.0008584386087022,0.0363145507872104,-1.0468062237143516,-9.713255676987767,-0.8527974902432411,50,standing
1783066171187563500,6.8149729,-0.2483314214196056,0.101392920550704,-0.0337076238125562,-0.0201769433915615,-0.0078354300931096,-0.0099847437813878,-1.0505232714761048,-9.71276584764421,-0.8537927848909049,50,standing
1783066171207490600,6.8349,-0.2867450309660285,0.08319792316854,0.0680138711053878,-0.0259161237627267,-0.002331533934921,-0.0302160698920488,-1.0460770326569675,-9.712826053398848,-0.8585494048334658,50,standing
1783066171227416300,6.8548257,-0.0507420529827475,0.0286456642478704,-0.0371329951513558,0.00843564607203,-0.0067694559693336,-0.0148869315162301,-1.042061367274821,-9.71304291101992,-0.8609919756799935,50,standing
1783066171247343400,6.8747528,0.0493198381599038,0.1460351953536272,-0.0789145467609167,0.0363747961819171,-0.0047501977533102,0.0098621379584074,-1.0414170780219136,-9.71356430454552,-0.8558719292525202,50,standing
1783066171267270400,6.8946798,-0.0184727914102375,0.1735100622564554,-0.0277507612347602,0.0024484172463417,0.0280885882675647,0.0262518543750047,-1.04515122304894,-9.713505852356551,-0.8519686382036655,50,standing
1783066171287196400,6.9146058,-0.2080313405394554,0.1058440547406673,-0.0694131434440612,-0.0202410481870174,-0.0377033650875091,-0.0210243929177522,-1.0466801131166517,-9.713176766532658,-0.8538508717536926,50,standing
1783066171307123500,6.9345329,-0.253155480575189,-0.0210422035068273,0.0406377153366804,-0.0300768110901117,-0.0173253826797008,-0.0381248779594898,-1.041359648746252,-9.713332833877203,-0.8585571497485041,50,standing
1783066171327050500,6.9544599,-0.0837546802684664,-0.0485357751101255,-0.0974474708605557,-0.0135811632499098,-0.0381647124886512,-0.0347978360950946,-1.0349364107657224,-9.713673025617004,-0.8624774649973959,50,standing
1783066171346977500,6.9743869,-0.1452422914102673,0.000824175864458,0.038399069564417,-0.0053175259381532,0.0034731109626591,-0.0337417982518672,-1.0285147802203891,-9.714249364200231,-0.8636502351038158,50,standing
1783066171366903300,6.9943127,-0.0505574171308428,0.0949713630706071,-0.1344726217232644,-0.0040670922026038,-0.0416972637176513,-0.029320403933525,-1.0226432578384876,-9.71487188001275,-0.8636099030934273,50,standing
1783066171386830300,7.0142397,-0.0722821960743516,0.1719388674169778,-0.0433376219451427,-0.0269942805171012,-0.0112028075382113,0.0059144706465303,-1.0212693391367793,-9.71477777198851,-0.8663095174409449,50,standing
1783066171406757400,7.0341668,-0.134098893040046,0.1328799457043409,-0.2655032132338732,0.0060465997084975,-0.0271895602345466,0.0018621736671775,-1.0234975365802643,-9.714324183002114,-0.868749750199914,50,standing
1783066171426684400,7.0540938,-0.2519113987982272,0.1337929688960313,-0.1909148591089993,0.0561579465866088,-0.0111199505627155,-0.0352055206894874,-1.0204569998405872,-9.715239544281363,-0.862084885483235,50,standing
1783066171446610400,7.0740198,-0.1542653366256505,0.048463878917694,-0.1004313820421695,0.072686918079853,0.0329060703516006,-0.03341930732131,-1.0132072479080407,-9.71714800825119,-0.8490191407483071,50,standing
1783066171466537500,7.0939469,0.0278356630392372,0.0975455974727868,-0.0970598597824573,0.041384432464838,0.0186185222119092,-0.0016797524876892,-1.0093089252952483,-9.718495331206917,-0.838175602107495,50,standing
1783066171486464500,7.1138739,-0.0640555619336664,0.1247094987303018,-0.0363063350688666,0.0334292612969875,-0.0340853966772556,-0.0115554891526699,-1.0092947506394236,-9.719023154473303,-0.832040241157636,50,standing
1783066171506390300,7.1337997,-0.2304373797453939,0.0826192464977502,-0.0198707485746592,0.0453902408480644,-0.0077166738919913,-0.0388419851660728,-1.0042220504850148,-9.720327222809194,-0.822888308865577,50,standing
1783066171526317300,7.1537267,-0.1216108020626008,-0.0031201778471469,0.0319997239161282,0.0281182508915662,0.0167360473424196,-0.017918836325407,-0.998127313806489,-9.721527830770611,-0.8161004753563552,50,standing
1783066171546244400,7.1736538,-0.0498415239464491,0.0693430008172988,-0.0296148015409708,0.0086743403226137,-0.003155062906444,-0.0039136898703873,-0.9962747447423635,-9.7220159065485,-0.8125453401580452,50,standing
1783066171566171400,7.1935808,-0.0996857513066381,0.1406909117162227,-0.0309959537010639,0.0024569968227297,-0.0125409699976444,-0.0079058799892663,-0.9947636825922876,-9.722285371139645,-0.8111644802588969,50,standing
1783066171586097400,7.2135068,-0.0506154309283942,0.1151817919284105,-0.0210959795206785,-0.0021928697824478,0.008587990887463,0.012738867662847,-0.995800112967938,-9.722215228512882,-0.8107395328450947,50,standing
1783066171606024200,7.2334336,-0.0900327376246452,0.0754313808202743,-0.0765483290862292,0.0007566164713352,-0.0247925352305173,0.0038937900681048,-0.9988800318699328,-9.721967975753545,-0.8099052009128034,50,standing
1783066171625951200,7.2533606,-0.2688677942961454,0.0167582425773143,0.0572170942157506,-0.0049842847511172,-0.0089321285486221,-0.0216409116983413,-0.9972158980499952,-9.722103584831952,-0.8103428616777062,50,standing
1783066171645877200,7.2732866,-0.0973060165632516,-0.0046253217130899,-0.1110082325708121,0.0279950145632028,-0.0491203293204307,-0.024863401427865,-0.9929532721694558,-9.722716163772343,-0.8082155673254281,50,standing
1783066171665804300,7.2932137,-0.077323916568607,0.0287754281073808,0.0124882371079176,0.0243980400264263,-0.0058322618715465,-0.0221893545240163,-0.9891434315577148,-9.723647307142617,-0.8016769593369215,50,standing
1783066171685731300,7.3131407,-0.0846092512711882,0.0384586177319288,0.0494628998924046,-0.0518431551754474,0.0289107728749513,-0.0199795328080654,-0.9851501241378484,-9.723901574164628,-0.8034868583030998,50,standing
1783066171705658400,7.3330678,-0.1577666227448731,0.0629272885560989,0.1081727168839424,-0.1076337695121765,0.0073853754438459,-0.0324503704905509,-0.980227280782908,-9.722933605915308,-0.8210462611954659,50,standing
1783066171725584400,7.3529938,0.0303410699889063,0.0618500147134065,-0.0827290635477751,-0.0602350905537605,-0.0119301844388246,0.0019233782077208,-0.977546882592514,-9.721704940903184,-0.8385895897358655,50,standing
1783066171745511200,7.3729206,-0.0217645994972437,0.1801274345695972,-0.289610649530217,0.0288753248751163,-0.0252732057124376,-0.0051275938749313,-0.978413290163502,-9.721469378581643,-0.8403031156554818,50,standing
1783066171765438200,7.3928476,-0.2800808969017118,0.1564659884750843,-0.1008242538172751,0.0123274428769946,0.0356671288609504,-0.0392168797552585,-0.972834905509278,-9.72249989067316,-0.8348596824925393,50,standing
1783066171785364500,7.4127739,-0.0944040845766663,0.0710299309909343,-0.0463572620272636,0.0032456174958497,0.0466511882841587,-0.0089204208925366,-0.9663767423458396,-9.723104286307096,-0.8353072801295668,50,standing
1783066171805291500,7.4327009,0.0921975875083357,0.0250280582726001,-0.2490740564804524,-0.0318881906569004,-0.0441994853317737,0.0253056678920984,-0.9687748895287512,-9.72259166060984,-0.8384919745802879,50,standing
1783066171825218600,7.452628,-0.1806673866651952,0.0327057532936334,0.0552221940714865,-0.0318689234554767,0.0274716988205909,-0.0063674347475171,-0.971392086289823,-9.721739427694676,-0.8453086688578129,50,standing
1783066171845145300,7.4725547,-0.1650204663306474,0.0399415497660636,-0.1295030896823853,0.0180598217993974,0.007693335879594,-0.0311937946826219,-0.9665389471702276,-9.7219422567904,-0.8485282884914428,50,standing
1783066171865071400,7.4924808,-0.0694170159015804,0.0567757801890373,-0.0810953979313373,0.0601540170609951,0.0258298106491565,-0.0570884495973587,-0.9587430325970052,-9.723514620673656,-0.8393257219906896,50,standing
1783066171884998400,7.5124078,-0.1882305153958499,0.1790098287165165,0.3083849811702966,0.0135206319391727,0.1011760309338569,-0.0700937062501907,-0.9452742600191384,-9.725440035778284,-0.8322664511289447,50,standing
1783066171904925400,7.5323348,0.1484881414636969,0.1512391937375068,0.0073749857474118,-0.0585646405816078,0.0948456302285194,0.0110557172447443,-0.9367791842006148,-9.72565104818046,-0.8393595511950552,50,standing
1783066171924851500,7.5522609,0.1392131673138588,0.216325706154108,0.0316858356613665,-0.0983566790819168,0.0567668676376342,0.0524690896272659,-0.943066447776556,-9.723550276508927,-0.8564884537156671,50,standing
1783066171944778500,7.5721879,-0.1968191877819597,0.1778536444187164,-0.1617483127921819,-0.0492777787148952,0.0388816818594932,0.0045652939006686,-0.9489561634022742,-9.721590374612807,-0.8720978185188025,50,standing
1783066171964705500,7.5921149,-0.2010458655662834,0.1072311251848936,-0.0333434666752815,-0.0358651205897331,0.0262997280806303,-0.0022218462545424,-0.947273178751394,-9.720998253938555,-0.8804933794856071,50,standing
1783066171984632600,7.612042,-0.106025548787415,-0.1166191312551498,-0.0898135419160127,-0.0527663007378578,-0.0259321685880422,0.0117242038249969,-0.9487699201151728,-9.720108027100563,-0.8886663837429135,50,standing
1783066172004558300,7.6319677,-0.1757634672064334,-0.125007604894042,-0.0881213510453701,-0.0711652413010597,-0.0717989280819892,0.0096957525238394,-0.9516061664544044,-9.71875252083838,-0.900384805522114,50,standing
1783066172024485400,7.6518948,-0.0913196356300264,-0.063850248619914,-0.187162082446739,-0.067956194281578,-0.0910745859146118,0.0153400162234902,-0.955095981331542,-9.717360189697146,-0.9116264766350388,50,standing
1783066172044412400,7.6718218,-0.054894496487081,-0.0171200616270303,-0.1294516517560929,-0.0694871097803115,-0.1129259839653968,0.0108985928818583,-0.9597983138035984,-9.715758015197515,-0.9236978035051376,50,standing
1783066172064338400,7.6917478,-0.0757988989584148,0.0824707779377698,-0.1399479113291949,-0.0372491851449012,-0.116912730038166,-0.0088040754199028,-0.9614890433695168,-9.714791800513863,-0.932055955071002,50,standing
1783066172084265500,7.7116749,-0.0953754868920892,0.168285021084547,-0.0292617503196001,0.0074034947901964,-0.0057697771117091,0.0185193661600351,-0.9631612143654376,-9.714415952938795,-0.9342547802895308,50,standing
