time,seconds_elapsed,acc_x,acc_y,acc_z,gyr_x,gyr_y,gyr_z,grav_x,grav_y,grav_z,fs_hz,activity
1783066202906557000,0.0,-0.1281408614184707,-0.0538227756023406,0.1417435625743121,0.0092294299975037,0.0571290887892246,0.00817605946213,-0.7228483372937887,-9.767193603402376,-0.4998265675671398,50,standing
1783066202926482700,0.0199257,-0.0040533670440316,-0.1282370883345603,0.0749305186260491,-0.0353318825364112,0.064089760184288,0.0081800501793622,-0.7245320525970309,-9.766846981921791,-0.5040914950026198,50,standing
1783066202946408700,0.0398517,-0.1077732692375779,-0.0331277780979871,0.0460690927356481,-0.0292565058916807,0.0228603929281234,-0.0044968258589506,-0.7239124593939632,-9.766489254525304,-0.5118913916312158,50,standing
1783066202966335700,0.0597787,0.0429923156388104,0.0155804309695959,-0.060144343306683,-0.0242950860410928,0.0195136442780494,0.0190310329198837,-0.7251900781143457,-9.766115745037794,-0.5171575319984928,50,standing
1783066202986261800,0.0797048,-0.0584796614974737,-0.0057125324279069,-0.094510723288916,-0.0306567698717117,0.0434098429977893,0.0002507875906303,-0.7277162355910987,-9.765622408562898,-0.5228938471607864,50,standing
1783066203006187800,0.0996308,-0.2437881519667804,0.0118798228859901,0.0209451728731393,-0.0101508162915706,0.0667973160743713,-0.0228300057351589,-0.7245167088974267,-9.765558111155032,-0.5285157421631739,50,standing
1783066203026114800,0.1195578,-0.0511482226308435,0.0467938998788595,-0.1814127616723999,0.0605777725577354,0.0161212626844644,-0.0210800636559724,-0.7191860884591936,-9.766204592365026,-0.5238290456516668,50,standing
1783066203046040800,0.1394838,-0.0131591951720416,0.179995332622528,-0.0718050070166587,0.0804202482104301,0.0133752161636948,-0.0223405696451663,-0.7154263705994933,-9.76727660551071,-0.5087888955712319,50,standing
1783066203065966800,0.1594098,-0.224675309087336,0.0859065976053476,0.154544153567031,0.022275224328041,0.0665928646922111,-0.0322797819972038,-0.7093625405158848,-9.768206579837203,-0.4993093387600034,50,standing
1783066203085892600,0.1793356,-0.0653705900549888,0.1043207906961441,0.1802151128530502,-0.0151397343724966,0.030774351209402,-0.0095667550340294,-0.7045148812890052,-9.768515791916847,-0.5001400539631023,50,standing
1783066203105819600,0.1992626,0.0364248468820005,0.0942354500114917,0.155769274915196,-0.0205250028520822,0.024889126420021,0.0045997006818652,-0.7042573993965983,-9.76830594855845,-0.5045745658118278,50,standing
1783066203125745700,0.2191887,-0.0943983854882419,0.0564092849642038,0.1569856284350156,-0.008272660896182,0.0052299997769296,-0.0074838274158537,-0.7036190284278243,-9.768189044180511,-0.5077359524521976,50,standing
1783066203145672000,0.239115,-0.1042187916263937,-0.0143815765738487,0.1126834723066538,-0.0299064423888921,-4.8526446335e-05,-0.0107032572850584,-0.7017293422237039,-9.768177938264609,-0.5105698972364887,50,standing
1783066203165599000,0.259042,-0.1562814256884157,-0.0435708461791276,0.1510796557942405,-0.0682401582598686,0.0075531057082116,-0.0332200527191162,-0.6981492187146097,-9.767866972619297,-0.5212834162894636,50,standing
1783066203185524500,0.2789675,-0.2017285871334374,0.0066851768523454,0.0198533225158229,-0.0460302531719207,-0.0233647990971803,-0.0615648701786994,-0.6881661693606526,-9.767994398391249,-0.5320627305876463,50,standing
1783066203205450500,0.2988935,-0.1172878242969512,-0.0249842191308736,0.0473660737436264,-0.0427104979753494,0.0110955806449055,-0.0368374809622764,-0.6783353879589588,-9.768199565574529,-0.5408711101390421,50,standing
1783066203225376500,0.3188195,-0.0022534049499779,0.0561930118650197,-0.1193967427423223,-0.0120949707925319,-0.0143081406131386,-0.0425049923360347,-0.6708164636962115,-9.768421099370718,-0.5461909534549341,50,standing
1783066203245303300,0.3387463,-0.1331032330662012,0.1540595118552446,-0.0171400084365159,0.0181576292961835,0.0256036985665559,-0.043559942394495,-0.6620709933131933,-9.769024910482765,-0.5460961147783324,50,standing
1783066203265229600,0.3586726,-0.0018218085996806,0.1658756218552589,-0.1592203286845236,0.0368034541606903,0.0068367007188498,-0.0196985471993684,-0.6556858223207295,-9.769767837804554,-0.5404855814201757,50,standing
1783066203285155600,0.3785986,0.0163007811333984,0.1444903039991855,-0.0032702903749421,-0.0238335952162742,0.0635586306452751,0.0076242131181061,-0.6543553774345666,-9.76992741228044,-0.539166315515153,50,standing
1783066203305081600,0.3985246,-0.046990226168558,0.06081774905622,0.0224182045677676,-0.0849242806434631,0.0683642104268074,0.0069333259016275,-0.6543612226534634,-9.769304896467924,-0.550339414903894,50,standing
1783066203325008400,0.4184514,-0.0063712885975837,-0.0096153850853443,0.0460463329145684,-0.113086462020874,0.0659711435437202,0.0280169378966093,-0.6572714840769768,-9.767854697659612,-0.5721718189403414,50,standing
1783066203344934400,0.4383774,-0.0756940503444522,-0.0543061752051115,-0.1920025812804698,0.0003150594420731,0.0326242446899414,-0.0160736236721277,-0.6591762217197566,-9.767008309963344,-0.5843174531556665,50,standing
1783066203364860400,0.4583034,-0.2611111157547682,0.0257727391600608,-0.1545985141027718,0.0839864909648895,0.0714582279324531,-0.0482334196567535,-0.651827977848798,-9.76807973858714,-0.5745854559533298,50,standing
1783066203384787500,0.4782305,-0.2229926166974008,-0.0161439100712537,-0.0625829320978373,0.0817274302244186,0.0916161313652992,-0.0532817430794239,-0.6410148343462496,-9.76970529396236,-0.5588619997838512,50,standing
1783066203404713500,0.4981565,-0.1596739176709204,0.0377086761474609,-0.0141301956286653,0.0275722034275531,0.0910425931215286,-0.0617661364376544,-0.6290658186815679,-9.771035665783286,-0.5491060006514191,50,standing
1783066203424639500,0.5180825,-0.163760894723609,0.1285626670271158,0.1493845423141494,0.0184456426650285,0.0746313035488128,-0.052139114588499,-0.6167488464873284,-9.77195745680332,-0.5466725994920357,50,standing
1783066203444565500,0.5380085,-0.0038514877963811,0.2032055278182029,0.0289590045133605,0.0493443235754966,0.0239967312663793,-0.0200291853398084,-0.6089144265346229,-9.772828978940844,-0.5398214914882555,50,standing
1783066203464492500,0.5579355,-0.0561313082730397,0.2205447851538658,0.218601286403276,0.004835698287934,0.0458330698311328,-0.0110635170713067,-0.6063142539735883,-9.773259187051654,-0.5349349615557119,50,standing
1783066203484418300,0.5778613,-0.1375315343698486,0.2038929255604744,0.240617924432829,-0.0212813895195722,0.0007478839252144,-0.0203659385442733,-0.6025759442280978,-9.773366154557468,-0.5371994358889758,50,standing
1783066203504344600,0.5977876,-0.0735010338122025,0.0327788185298442,0.2981424040973186,-0.0413933619856834,-0.0009056254057213,-0.0039841621182858,-0.6001675313794985,-9.773139360064269,-0.5439970966724679,50,standing
1783066203524270600,0.6177136,-0.0475328816778957,0.0227460848152637,0.1735626692265272,-0.0296513270586729,-0.0157355945557355,0.0116285495460033,-0.6008468554131686,-9.772683432990313,-0.5513977283177897,50,standing
1783066203544197600,0.6376406,-0.0635249256556853,0.0644423692941665,0.1150251765945926,-0.0139876464381814,-0.025476137176156,0.0071221878752112,-0.6035595484379679,-9.77233096629083,-0.5546603833755478,50,standing
1783066203564123400,0.6575664,-0.2740154959155246,0.0390939930260181,0.0688859046995639,-0.0231576841324567,0.000719215197023,-0.0233526099473238,-0.60166383435186,-9.772271929579972,-0.5577521388458088,50,standing
1783066203584049400,0.6774924,-0.1470432033523917,0.0525432571858167,-0.0188232853483408,-0.0232371184974908,0.0409495383501052,0.0195020530372858,-0.6000972060896456,-9.772103002753854,-0.5623691676545888,50,standing
1783066203603976400,0.6974194,0.0188669052943587,0.0128892921894788,-0.1216927812576293,-0.0236674919724464,0.0486782975494861,0.0504006072878837,-0.6070922891413792,-9.771355983778834,-0.5678375891283154,50,standing
1783066203623902500,0.7173455,-0.0760701171152293,0.1134720654010772,-0.148749130487442,0.0168680772185325,-0.0037735844962298,0.02460010163486,-0.6149563370473683,-9.77078373684883,-0.5692121288845315,50,standing
1783066203643828500,0.7372715,-0.1917982908800244,0.0728361036300659,-0.1505331643600016,0.0691024661064148,0.0199690926820039,-0.0058747078292071,-0.6168435390334576,-9.771149647551775,-0.5608441500443965,50,standing
1783066203663754500,0.7571975,-0.2302191338848322,-0.0197445649117231,-0.080347721369192,0.0951651558279991,0.0610359013080596,-0.036649364978075,-0.611492241133377,-9.7723894184798,-0.5448377487476915,50,standing
1783066203683681500,0.7771245,-0.1126789787946268,-0.0213140061855316,0.0370897770641371,0.0932047367095947,0.073766142129898,-0.0124787241220474,-0.6049827496415003,-9.773812144759296,-0.5262548845591023,50,standing
1783066203703607600,0.7970506,0.0475204240551218,0.0007195464462041,0.1081593459457159,0.0768260136246681,0.0279041212052106,0.0090831611305475,-0.6055190484752878,-9.774598911222816,-0.5108339550001546,50,standing
1783066203723533300,0.8169763,-0.1762807325461879,0.0903974792838096,0.1279348174523562,0.0266629066318273,0.0452893152832984,-0.0247984919697046,-0.603480930243805,-9.775243638867138,-0.5008317260216921,50,standing
1783066203743460400,0.8369034,-0.2639846253644675,0.0692366178333759,0.3285386383395642,0.0186785925179719,0.0085756666958332,-0.0332350470125675,-0.597030183201842,-9.775780229961873,-0.4980784087255597,50,standing
1783066203763386400,0.8568294,-0.0526503708221018,0.023821605092287,0.0730874480426311,0.0372207686305046,0.0152847794815897,-0.005082560237497,-0.5931856000702828,-9.77630279253125,-0.4923719772448763,50,standing
1783066203783312600,0.8767556,-0.0615838745905086,0.1607324137479066,0.1711052661370486,0.0390816591680049,0.0308473519980907,0.0179032478481531,-0.5942778522863984,-9.776595637997984,-0.4851943407004699,50,standing
1783066203803238400,0.8966814,-0.033596637718752,0.2350175471425056,0.0980452906232327,0.0453225150704383,0.0236352477222681,0.0437835566699504,-0.6001187238017097,-9.77666051992774,-0.4766283185375854,50,standing
1783066203823165400,0.9166084,-0.0187999775379896,0.2308183418869972,0.0651858811378479,0.037897765636444,-0.0075779408216476,0.0588166341185569,-0.6110247697521001,-9.776350723326203,-0.4690574814245104,50,standing
1783066203843091500,0.9365345,-0.1949221950542181,0.1349859780728816,0.0387444854686036,0.0178878009319305,-0.0252620968967676,0.0156936924904584,-0.618807021126151,-9.77613620379269,-0.4632665134655311,50,standing
1783066203863017500,0.9564605,-0.2936148436702788,-0.0181306999742984,0.1420341430187225,-0.0211251117289066,0.015936205163598,-0.0059588723815977,-0.619473814471811,-9.77609937891364,-0.4631564406871795,50,standing
1783066203882943500,0.9763865,-0.1185237958326935,-0.1378869602113962,0.0817757083456963,-0.0346636287868022,0.0177461691200733,0.0107347657904028,-0.6194889389757067,-9.775755095520616,-0.4703847479728981,50,standing
1783066203902870500,0.9963135,0.0794614400539547,0.0171656543344259,-0.0819931870212778,0.0001820151228457,-0.0101137394085526,0.0446709990501403,-0.6239926070705056,-9.775332486194372,-0.4731625055905431,50,standing
1783066203922796500,1.0162395,-0.0352617213867604,0.0623211393564939,-0.0504945079624652,0.0558457151055336,-0.0005622183671221,0.0007914835005067,-0.6289796747680753,-9.77529799940288,-0.4672513818506151,50,standing
1783066203942722600,1.0361656,-0.1900143300727009,0.135015204167366,-0.0957417629212141,0.0526723861694335,0.0145276905968785,-0.0246931612491607,-0.6264084360405803,-9.776016376805304,-0.4555230597319081,50,standing
1783066203962649600,1.0560926,-0.1495846314635127,0.055496846294403,0.0399047614196315,0.0158469937741756,0.0455330125987529,-0.0227277278900146,-0.6208991710998117,-9.776703190025689,-0.4482656724821776,50,standing
1783066203982575400,1.0760184,0.0155669869661331,0.006124620360136,0.0288221533259376,0.0027499245479702,0.0145955067127943,0.0026431051082909,-0.6190555890597402,-9.77686276450157,-0.4473590424986556,50,standing
1783066204002501400,1.0959444,0.0967505746375769,0.1708896506249904,-0.0029378070175647,0.0310582611709833,0.0174333713948726,0.0313154943287372,-0.6227268249183893,-9.776725986379384,-0.4452264509167521,50,standing
1783066204022427600,1.1158706,0.0074590838342905,0.3244756997495889,-0.1012391912937164,0.102883405983448,-0.0322140306234359,0.0063655446283519,-0.6271084740687162,-9.777083129253985,-0.431021801812388,50,standing
1783066204042354700,1.1357977,-0.2236392440378665,0.155175948664546,0.0736538497537374,0.0434407740831375,0.0565372221171855,-0.0011105787707492,-0.6272000978749245,-9.777771696040034,-0.414976931668818,50,standing
1783066204062280400,1.1557234,-0.2092194543454796,-0.0522311224967241,0.1751432529488578,-0.0372337736189365,0.0604560002684593,0.0244783964008092,-0.6287510536439717,-9.777612121564148,-0.4163590336769819,50,standing
1783066204082206500,1.1756495,0.0093690091088414,-0.0779939247846603,-0.0093722239792346,-0.0220612231642007,0.0078229010105133,0.0424881353974342,-0.6354526701744645,-9.776839383625983,-0.4242778439775109,50,standing
1783066204102133500,1.1955765,-0.0907825330786406,0.0724205085664987,-0.1228652956357225,0.0836529657244682,-0.0115670589730143,0.0097700236365199,-0.6410949869103729,-9.776717803072929,-0.4185234451692551,50,standing
1783066204122059500,1.2155025,-0.2038527396805584,0.1775923631340265,-0.0327624153843149,0.1123430505394935,0.0314801670610904,-4.09928616136e-05,-0.6414500108931214,-9.7775922478199,-0.3969966730158776,50,standing
1783066204141985500,1.2354285,-0.1506427622143179,0.036596915513277,0.1450514450132846,0.0032546566799283,0.0756260380148887,0.0149543341249227,-0.6424366107776761,-9.778004920274018,-0.3850704537048935,50,standing
1783066204161911600,1.2553546,-0.0993244437135756,0.0471814378917217,0.2503402039587497,-0.0989051833748817,0.0442920066416263,0.0320718735456466,-0.6470679238401353,-9.77721698476672,-0.3971345836492255,50,standing
1783066204181838600,1.2752816,-0.062225862288475,0.0558610034316778,0.0231558711925521,-0.0586173869669437,-0.017045147716999,0.0132433213293552,-0.652293768729642,-9.776168937018513,-0.414009328745678,50,standing
1783066204201766000,1.295209,-0.1308596188578754,0.0877414118170738,-0.037734358577989,0.0286060515791177,-0.0014580603456124,-0.0033040018752217,-0.652792512032017,-9.77602689819932,-0.4165652603061869,50,standing
1783066204221692000,1.315135,-0.0826562905725091,0.0705278266876936,-0.0716612146317958,0.0883065015077591,0.0047643221914768,-0.0006928361835889,-0.6520644169531762,-9.776621356961131,-0.4035880706375465,50,standing
1783066204241619000,1.335062,-0.1317492611739784,-0.0350093540608882,0.0129026996603235,0.0428944490849971,0.0476306565105915,-0.0054811630398035,-0.6514542491655796,-9.777178406322,-0.390887469420582,50,standing
1783066204261544700,1.3549877,-0.1038420672684907,0.0349970791012048,0.07458148599267,-0.0168091729283332,0.0292653106153011,0.0238185711205005,-0.6524262360028922,-9.777153271880746,-0.3898678075166419,50,standing
1783066204281470700,1.3749137,0.0585035538297146,0.0252794026851654,-0.0409486444493755,-0.0172942746430635,-0.0100819543004035,0.0290454905480146,-0.6585502718411386,-9.776562320250273,-0.3943471083551645,50,standing
1783066204301396700,1.3948397,-0.083681761162728,0.0818295574247837,-0.0265168355256319,-0.0033390296157449,0.0233391039073467,0.0102844517678022,-0.6624112581182271,-9.77625135460496,-0.395610552419722,50,standing
1783066204321323800,1.4147668,-0.1507970759931951,0.0133808750987052,0.0196282085230574,-0.0029044644907116,0.0537774972617626,-0.0064790491014719,-0.6627827217791229,-9.776188226240873,-0.396565332393907,50,standing
1783066204341249800,1.4346928,-0.0557390575524419,0.0525350738793611,-0.0161755107859149,-0.0128047810867428,0.0525489971041679,0.0086547471582889,-0.6622223114173859,-9.77613737283647,-0.3987690895158797,50,standing
1783066204361175800,1.4546188,0.0909305632472038,0.1202992810726165,-0.072360302811861,-0.0055297166109085,0.005090826191008,0.0246857572346925,-0.66553903474994,-9.775815301275252,-0.4010930024188012,50,standing
1783066204381101800,1.4745448,0.0017899521566927,0.1216711539477109,-0.0299327449163421,0.0124930096790194,-0.009397349320352,-0.0028640297241508,-0.6681261286336928,-9.775689629068973,-0.3998261973533779,50,standing
1783066204401028900,1.4944719,-0.1503712517965585,0.1005003556251525,0.0492495128700509,0.0132642611861228,-0.0019713907968252,-0.0333609506487846,-0.6641060793373733,-9.776067230209708,-0.3973062504217028,50,standing
1783066204420954600,1.5143976,-0.0284735956165939,0.0644201574623584,0.0959650502830743,0.0165521055459976,0.0348402485251426,-0.0101266773417592,-0.6594104688670486,-9.776499191886186,-0.3944916679250076,50,standing
1783066204440881000,1.534324,0.0716409755613654,0.0931616833001375,0.0263601836591958,0.0120892878621816,-0.0071533862501382,0.0209264047443866,-0.660614583959803,-9.77651029780209,-0.3922245632432401,50,standing
1783066204460807700,1.5542507,-0.0480756833177059,0.024466917258501,-0.0354325844416394,0.0056653842329978,-0.0381444953382015,0.0045485352165997,-0.6646483695205301,-9.776350723326203,-0.3893884630344807,50,standing
1783066204480734000,1.574177,-0.3352240343876183,-0.0971323404967784,0.0626916897019371,-0.0426607578992843,0.0171697828918695,-0.036917608231306,-0.6618114655941725,-9.776406837427617,-0.3927919513350352,50,standing
1783066204500659700,1.5941027,-0.3029107144776731,-0.1950976246863603,0.0572322917848825,-0.0510069653391838,0.0186397060751914,-0.0426241680979728,-0.6526750231321901,-9.77660265226066,-0.4030446479432285,50,standing
1783066204520585700,1.6140287,-0.0429572443254291,-0.104897129279375,-0.1060468473037704,-0.0064991191029548,-0.0256713312119245,-0.0354285985231399,-0.6453758060347289,-9.776870363286138,-0.4082574141554534,50,standing
1783066204540512800,1.6339558,-0.131417106610164,0.038055297628045,-0.088660243695043,0.008876608684659,-0.0270321760326623,-0.0782138481736183,-0.6354754665281623,-9.77751742901802,-0.4082865306520834,50,standing
1783066204560438800,1.6538818,-0.1634304937254637,0.1509697291463613,0.0801408736854791,0.0203720964491367,-0.0131551949307322,-0.0665397271513938,-0.620221710229665,-9.778653155049682,-0.4045551621040329,50,standing
1783066204580364800,1.6738078,0.1428464092496782,0.0949485667169094,-0.0392108974039554,-0.0193546768277883,0.0004419641336426,0.0032908502034842,-0.6143544256314635,-9.77904536923766,-0.4040158675955608,50,standing
1783066204600291800,1.6937348,0.1099944524183869,0.1710264287471771,-0.0292500964144244,-0.0413137450814247,-0.0067501831799745,0.0244678556919097,-0.6181639739822596,-9.778509947186707,-0.4111333714505657,50,standing
1783066204620217900,1.7136609,-0.0900024886168539,0.2040530845582485,-0.0729436556577682,-0.0317571498453617,-0.0169810932129621,0.0032316346187144,-0.6209257668457925,-9.778016610711813,-0.4186160188235342,50,standing
1783066204640144000,1.733587,-0.1835759675882756,0.1352794080615043,-0.0183352461030706,0.0292074475437402,0.0008404684485867,-0.0192746371030807,-0.6193793411213905,-9.778075647422671,-0.4195044190306216,50,standing
1783066204660069600,1.7535126,-0.1174252600062638,0.0543622893065214,-0.0977876260677352,0.0568535923957824,0.0140298977494239,-0.0170452129095792,-0.615649360812828,-9.778712776282427,-0.4100825106907635,50,standing
1783066204679996700,1.7734397,-0.1341860963994637,0.0233522340148687,0.0502483877142891,0.0505659021437168,-0.0053230579942464,-0.0277151986956596,-0.6114581927333027,-9.779425892987849,-0.3992032431494444,50,standing
1783066204699922700,1.7933657,-0.0991966160828247,0.023028993409872,0.0717991252651438,0.0135653847828507,-0.0190530940890312,-0.0150930760428309,-0.60679378111884,-9.780000478005409,-0.3921734541105106,50,standing
1783066204719849000,1.813292,-0.0220198528999462,0.0567939003676176,0.1193417976846918,-0.0301634669303894,-0.0203324612230062,0.0157517902553081,-0.606907141832821,-9.779947286513448,-0.3933282867014407,50,standing
1783066204739775700,1.8332187,-0.0551721443846821,0.0854571002721786,0.1044131086220964,-0.0698265060782432,-0.0028080153279006,0.0128355268388986,-0.6110146502168848,-9.779281516081094,-0.4033890409341081,50,standing
1783066204759701800,1.8531448,-0.2637857417915016,0.0907750804245471,0.1040822692325338,-0.0485905557870864,-0.0173631627112627,-0.013462328352034,-0.61099565325547,-9.778763629686832,-0.4157777631903067,50,standing
1783066204779627800,1.8730708,-0.093088727661781,0.0554974308162927,-0.0240787947237491,-0.0124919069930911,-0.0259971618652343,0.0164313577115535,-0.6112553636375815,-9.778500010314584,-0.4215420988706871,50,standing
1783066204799553800,1.8929968,0.0616781652778387,0.1689648200422525,-0.065236186552979,0.0181004367768764,-0.0483123995363712,0.0345808789134025,-0.6169833128303289,-9.7782439897269,-0.4191408464152366,50,standing
1783066204819480600,1.9129236,-0.2031239139493554,0.1152098489791154,0.0968821651279926,-0.0168465040624141,0.0068641784600913,0.0137242684140801,-0.622426599862799,-9.77790847416222,-0.4189023249516263,50,standing
1783066204839406800,1.9328498,-0.3038562516994774,0.0431979212135076,0.0511678771793842,-0.0304524041712284,0.0145155191421508,-0.0107039399445056,-0.6219516027621924,-9.7777225962013,-0.4239148558840155,50,standing
1783066204859332900,1.9527759,-0.0935113735206425,0.0239998842686414,0.0629641134351491,-0.039185632020235,0.0018808713648468,0.0190056040883064,-0.622654271138832,-9.777378897330165,-0.4307735992049798,50,standing
1783066204879259000,1.972702,0.0721772743951529,0.0735024585843086,-0.0127437462389469,-0.0269300770014524,-0.0405040867626667,0.0322698839008808,-0.6283802475702017,-9.77675287438631,-0.436617904786393,50,standing
1783066204899185700,1.9926287,-0.044130672018975,0.1007873558729886,0.1068265995046123,-0.0316496975719928,-0.0272903144359588,0.0285638235509395,-0.6355235434535891,-9.776056708815693,-0.4418653404532,50,standing
1783066204919111700,2.0125547,-0.1015745607279241,0.0796352622509002,0.1120154733845964,-0.0403364151716232,0.0034835934638977,0.0194340944290161,-0.6406279539205133,-9.775403213343024,-0.448849792513065,50,standing
1783066204939037700,2.0324807,-0.0389156407844275,0.094507252690196,0.0993243341157212,-0.0281830467283725,-0.0167599245905876,0.0096395118162035,-0.6438807451713829,-9.774862530595064,-0.4559103785490617,50,standing
1783066204958964700,2.0524077,-0.0634034547004848,0.0306271934539079,0.0094698026021942,0.0067982487380504,-0.0644674226641655,-0.0198315791785717,-0.6434845854606479,-9.774879481729863,-0.4561380863577127,50,standing
1783066204978890800,2.0723338,-0.13867014647834,-0.0089104516863822,0.1675403401970863,-0.0164299383759498,-0.0281601659953594,-0.0111878830939531,-0.6400439434874803,-9.775144270145892,-0.4552934522271156,50,standing
1783066204998816800,2.0922598,0.0036523850277066,0.0240694423735141,0.1438191998045891,-0.0495131872594356,-0.023060355335474,0.027608873322606,-0.641856765063107,-9.77475614761114,-0.4610511389710008,50,standing
1783066205018742800,2.1121858,-0.0661441317107528,0.0644400312066078,0.0840928992468863,-0.0665310770273208,-0.0273956824094057,0.0189384222030639,-0.6476270920928567,-9.77382383519709,-0.472552155139856,50,standing
1783066205038669800,2.1321128,-0.2762610463526099,0.1073474450409412,0.04884440266788,-0.0263869985938072,-0.025393109768629,-0.0141844805330038,-0.6482001427404582,-9.77333809750676,-0.481746355671063,50,standing
1783066205058595600,2.1520386,-0.1690869120519608,0.0763572634935379,-0.0004442366361618,0.0229662358760833,-0.0394930317997932,-0.0078750187531113,-0.6459891886927187,-9.77347253754139,-0.481987580548413,50,standing
1783066205078521900,2.1719649,-0.0603176175143569,0.0900742386788129,-0.0480166831394657,0.0330526903271675,-0.0193483307957649,-0.0007179356180131,-0.6453733948819339,-9.773871181470156,-0.4746673937281593,50,standing
1783066205098448600,2.1918916,-0.0881810453433543,0.0800911893248558,0.1309896019130945,-0.0255148131400346,0.0237323585897684,0.0180131737142801,-0.6472877771358937,-9.773764798486232,-0.4742581553401425,50,standing
1783066205118375000,2.211818,0.0148936908144503,0.065758128067851,0.0368383595863357,-0.0383667796850204,-0.0206259731203317,0.0314064063131809,-0.6527985764466225,-9.773048174649476,-0.4814118630196899,50,standing
1783066205138300700,2.2317437,-0.0284790024440735,0.082241060835123,0.0294213247954845,-0.0041096424683928,-0.0226623192429542,0.0121298506855964,-0.6583575257480144,-9.772473005110024,-0.4855168506531044,50,standing
1783066205158226700,2.2516697,-0.1070435667235404,0.0617301877260208,0.1204032529037445,-0.0015112592373043,-0.0114844376221299,-0.0038133966736495,-0.6589513269226998,-9.77246365275979,-0.4849209671191871,50,standing
1783066205178153700,2.2715967,-0.0746645611662417,-0.0271598096042871,0.083815178284049,-0.0211875978857278,0.0085282623767852,-0.0101976208388805,-0.6572129588227719,-9.772457223019003,-0.4873876494936645,50,standing
1783066205198078500,2.2915215,-0.0199422063756734,0.017678280031681,0.1278746847629547,-0.0215703565627336,-0.0148699413985013,0.0106791974976658,-0.6567190378259867,-9.772254393923282,-0.4920925757816061,50,standing
1783066205218004500,2.3114475,0.0524305905915796,0.0488216063141822,-0.0151444507051259,0.0010756091214716,-0.0374144464731216,0.0280338134616613,-0.6616052754975855,-9.771825354856253,-0.4940723879545927,50,standing
1783066205237930200,2.3313732,-0.1380466077525168,0.0898725786268711,-0.0296393514603376,0.0118726314976811,-0.0352930054068565,-0.004857319407165,-0.665058338560909,-9.771724817091226,-0.4913986387006938,50,standing
1783066205257857300,2.3513003,-0.3030162937439978,0.0185445414721965,0.0568774139326065,-0.0012786532752215,0.0202432870864868,-0.0109146460890769,-0.6628944385252893,-9.7719247235775,-0.4903774058941751,50,standing
1783066205277783300,2.3712263,-0.1247788376394659,-0.0259808289527893,-0.0320990926373749,0.0032216822728514,0.0456057786941528,-0.0023609052877873,-0.6614171325143426,-9.771991359072922,-0.4910336413132026,50,standing
1783066205297709600,2.3911526,-0.050394262458384,0.1072217728346586,-0.0342015448093414,0.0448341220617294,0.0294627454131841,0.011396849527955,-0.6617311668995768,-9.77216496207416,-0.4871358666896819,50,standing
1783066205317636600,2.4110796,0.0618305793605744,0.143711720842123,-0.1426046363830566,0.0920554250478744,-0.0240273773670196,-0.0007879110635258,-0.6636729486171156,-9.77274188517928,-0.4727052998749539,50,standing
1783066205337562400,2.4310054,-0.0713764794062823,0.1223053601980209,0.1136930512079969,0.0503309778869152,0.0043234745971858,-0.0009147131349891,-0.6637929948002099,-9.773481305369732,-0.4569617142328992,50,standing
1783066205357488400,2.4509314,-0.0655816755224019,-0.0853963099956512,0.2356143074592575,-0.0382702127099037,0.0305808652192354,0.0110211437568068,-0.6645004124172031,-9.773478382760286,-0.4560306804604828,50,standing
1783066205377414400,2.4708574,-0.0179983057662844,-0.0792921479016542,0.2082978825211524,-0.0722542479634285,0.0299043897539377,0.0116568114608526,-0.6667434421036392,-9.772698046037554,-0.4692661557391285,50,standing
1783066205397341400,2.4907844,-0.0238655903644859,0.0637199002385139,0.0511345959642902,0.0023869494907557,-0.0283660925924778,-0.0021158317103981,-0.6679090518169105,-9.772207047650218,-0.4777514773486181,50,standing
1783066205417267200,2.5107102,-0.041289822569862,0.1955237411439418,-0.1185439618378877,0.0840096026659011,-0.0458539575338363,-0.0132839260622859,-0.6669450290903449,-9.77277929458022,-0.4672873299468308,50,standing
1783066205437193500,2.5306365,-0.2159713397584855,0.1204156009286642,0.108970041274093,0.0466413907706737,-0.0005812211893498,-0.0255376305431127,-0.6632992199338972,-9.773688226118685,-0.4532861675253137,50,standing
1783066205457119500,2.5505625,-0.2193552831083536,0.0353986456394195,0.1867465604484081,-0.0137886479496955,0.0111388023942708,-0.0126491300761699,-0.658867886422947,-9.774113173532486,-0.4505575462790205,50,standing
1783066205477046500,2.5704895,-0.0455369586203247,-0.0036269583255052,0.0696387323608622,-0.0288198105990886,-0.0145665453746914,0.0158018209040164,-0.659106663614884,-9.77384487798512,-0.456003025268577,50,standing
1783066205496972300,2.5904153,-0.0717850602071732,0.0375292279273271,-0.051703262697719,0.0062831602990627,-0.0326021127402782,0.0047846599481999,-0.6618881840921939,-9.773549694430828,-0.4582615447850897,50,standing
1783066205516898300,2.6103413,-0.1928887895304709,0.1269347735643387,0.0036228666722774,0.0285117886960506,0.0022927199024707,-0.0037821731530129,-0.6618412031453103,-9.773771812748908,-0.4535830315800383,50,standing
1783066205536825300,2.6302683,-0.1196548456892371,0.0737234078586101,-0.0072760919502004,0.0226693712174892,-0.0035159145481884,0.0001599179231561,-0.6622014878250658,-9.773979902541637,-0.4485201221672817,50,standing
1783066205556751600,2.6501946,-0.1130948295865207,0.0752577778190374,0.0122025155017152,0.0211057495325803,0.0163398925215005,-0.0078296409919857,-0.6602320874482392,-9.774317756193875,-0.4440566764850169,50,standing
1783066205576677400,2.6701204,-0.0150070149958133,0.0152893390685319,0.031479426369071,0.0208544004708528,0.0223564412444829,0.0073594273999333,-0.6600081424992531,-9.774504218676686,-0.440289469438605,50,standing
1783066205596603400,2.6900464,0.052175300656259,0.0715624304324388,0.017353870382905,0.0081113232299685,0.0255126804113388,0.0250266082584857,-0.663594403488189,-9.77436393342316,-0.4379855398777872,50,standing
1783066205616530400,2.7099734,0.0445301927305758,0.2142278570920228,0.0336661592910066,0.0146534955129027,-0.0079319542273879,0.0264409761875867,-0.6686684918820858,-9.77412486397028,-0.4355926533918827,50,standing
1783066205636456400,2.7298994,-0.1171952506426721,0.1372825645774602,0.0917418796300888,-0.0072268676012754,0.0176110677421093,0.0036670996341854,-0.6716941233135759,-9.773944246706366,-0.4350106887854635,50,standing
1783066205656382200,2.7498252,-0.143368971819058,0.035002339798212,0.0994417864829301,-0.0086938142776489,-0.0188659038394689,-0.0131133096292614,-0.6702107528880238,-9.774016142898798,-0.4356772264027967,50,standing
1783066205676308500,2.7697515,-0.0624614976752549,-0.0671072045892477,0.1040927906265482,-0.0211163088679313,-0.0061677820049226,0.0032592590432614,-0.6692663847099989,-9.773960613319275,-0.4383832704911008,50,standing
1783066205696235500,2.7896785,-0.0122821931418031,0.0545943444967269,0.0171124628424644,-0.0151154799386858,-0.0097499201074242,0.0304793063551187,-0.6726090462014078,-9.773556708693503,-0.4422324567325413,50,standing
1783066205716161500,2.8096045,-0.0676886577390134,0.1019610758274793,-0.0076911024918779,-0.0153143117204308,-0.0103574972599744,0.023726686835289,-0.6784042884767055,-9.773038822299242,-0.4448125363536179,50,standing
1783066205736087300,2.8295303,-0.2320948646288365,0.0900993731200694,0.0334802447974681,-0.004635336343199,0.0117318555712699,-0.0119628366082906,-0.6799461841564625,-9.772849437206984,-0.4466297053107991,50,standing
1783066205756013300,2.8494563,-0.154666830098629,0.0504880782216787,-0.0354932651203125,0.0074010496027767,0.0292576178908348,-0.0040257857181131,-0.6774678113441914,-9.77303999134302,-0.4461904371106996,50,standing
1783066205775940400,2.8693834,0.0193080731905996,-0.0326169059664011,-0.0644487990349531,0.0053558135405182,0.0014544206205755,0.0138916335999965,-0.6789106305636465,-9.77298563080728,-0.4452171350991353,50,standing
1783066205795866400,2.8893094,-0.0175881905954331,0.0330541283398866,0.0117799061754718,0.020222658291459,-0.0065718302503228,0.0045155733823776,-0.6806206493519246,-9.77296517254114,-0.4430353340806439,50,standing
1783066205815792400,2.9092354,-0.0270997499801218,0.0595049128919839,0.0157622538099065,0.017661789432168,0.0021829954348504,-0.0015855624806135,-0.6814342307571322,-9.77307973883152,-0.4392367820478975,50,standing
1783066205835719400,2.9291624,-0.0934588396158069,0.0655289954870939,0.0543547270545735,-0.004506426397711,0.0171987786889076,-0.0186847895383834,-0.6794193838033825,-9.773267954879998,-0.4381747788395732,50,standing
1783066205855645400,2.9490884,-0.0643519875969737,0.0810948134094476,0.0605692907204851,-0.0118977008387446,-0.0141496211290359,-0.0194534119218587,-0.6759053112678229,-9.773422853180763,-0.4401998549263924,50,standing
1783066205875571500,2.9690145,-0.0283056186385452,0.019968436795473,0.0180044432461261,-0.0201147086918354,-0.0154275773093104,-0.0204251632094383,-0.6725968443069607,-9.773497087460756,-0.4435737883388996,50,standing
1783066205895497200,2.9889402,-0.0932345293406397,0.100572251817584,0.0720277098566293,-0.0099463388323783,0.0066522676497697,-0.0112280044704675,-0.6688697866078466,-9.773595871660111,-0.4470193622155115,50,standing
1783066205915424300,3.0088673,0.0490107722107321,0.1411269650459289,-0.0353805254608392,0.0180835295468568,-0.0093339821323752,0.0207578279078006,-0.6697076256714761,-9.773598794269562,-0.4457045167572796,50,standing
1783066205935350500,3.0287935,-0.0411815398897975,0.1952805800378322,-0.0077775751989334,0.001108618453145,0.0029447095002979,0.0148963099345564,-0.6742356975551694,-9.773432205531,-0.4424820110468194,50,standing
1783066205955276500,3.0487195,-0.2659937001645565,0.1112684178769588,0.0851660449037328,-0.038049928843975,0.0313478074967861,-0.0063276221044361,-0.6744784202698618,-9.773217685997484,-0.4468401697237044,50,standing
1783066205975202300,3.0686453,-0.1505869403738528,0.0352402402073144,0.0364881944417953,-0.0091791525483131,-0.0189350377768278,-0.0020013409666717,-0.6731681413888931,-9.773056942477822,-0.4523310587575659,50,standing
1783066205995129300,3.0885723,-0.0190320327281951,-0.0044289223581552,-0.0154442008366808,0.0139426980167627,-0.0104824639856815,0.0064161359332501,-0.6740894209522753,-9.7730411603868,-0.4512751564964651,50,standing
1783066206015055400,3.1084984,-0.0657511138051748,0.1012257472902536,0.067974087084271,0.025338590145111,-0.016672933474183,0.0027589525561779,-0.6745060389291495,-9.773201319384574,-0.4471557019462808,50,standing
1783066206034981400,3.1284244,-0.0239527571912854,0.0707429307430982,0.1201935191432014,-0.0212916024029254,0.0245366636663675,0.0183431450277566,-0.6766505766771733,-9.773094936400652,-0.4462540038662031,50,standing
1783066206054907400,3.1483504,-0.0972449340257793,0.0748491970181465,0.1524749095449224,-0.0199382398277521,-0.0074329408816993,-0.0046719685196876,-0.6783267662610858,-9.772711490041017,-0.4520494288045912,50,standing
1783066206074834400,3.1682774,-0.0253588976621627,0.0876870512813329,-0.0408913613041862,0.0156489349901676,-0.04230372980237,-0.00732933729887,-0.6770399413209408,-9.772830732506511,-0.4514162454675883,50,standing
1783066206094760400,3.1882034,-0.0041824733164161,0.0436088401019573,0.0385322674900293,0.0226569417864084,-0.0409078560769557,-0.0078287785872817,-0.6754715960256755,-9.773195474165677,-0.4458457883914932,50,standing
1783066206114686500,3.2081295,-0.0045147009454667,0.0520177720069885,0.0978647829571738,-0.017258059233427,-0.0123525662347674,0.0088425101712346,-0.6758873372197151,-9.773224115738271,-0.4445749282054603,50,standing
1783066206134613200,3.2280562,-0.0309837518066167,0.0831745422929525,0.1485299347788095,-0.0572186894714832,-0.0038460078649222,0.0167428757995367,-0.6787474028259516,-9.772658298549056,-0.4525935821512714,50,standing
1783066206154539300,3.2479823,-0.1204291179973632,0.0457207176893949,0.0580330137085169,-0.0182529147714376,-0.0385994613170623,-0.0032350933179259,-0.6802817727863788,-9.77216613111794,-0.4608572968993336,50,standing
1783066206174465500,3.2679085,-0.119729664491117,0.011143325304985,-0.1023468602746725,0.0144703472033143,-0.0303675662726163,-0.0056718522682785,-0.6788861537095159,-9.772303493762015,-0.4599915469154715,50,standing
1783066206194391600,3.2878346,-0.0938586525883525,-0.0101613285303115,0.007153926875256,-0.0032515719067305,-0.0091939158737659,0.0013046333333477,-0.6788701524227857,-9.772398186308145,-0.4580116982098668,50,standing
1783066206214318600,3.3077616,-0.1069756891191005,0.0340618440777063,0.020319149929285,-0.0040569095872342,-0.0164403952658176,-0.00501887826249,-0.6790707164961844,-9.772327459159492,-0.4592060956262052,50,standing
1783066206234244400,3.3276874,-0.0558293661843985,0.1120545998185873,-0.0691173753678798,0.0269069280475378,0.0008469198946841,-0.0002087099710479,-0.6781430071920156,-9.772508660945295,-0.4567090546460822,50,standing
1783066206254170400,3.3476134,0.0195855018924921,0.1108265193283557,-0.0057511108726263,0.0459463819861412,-0.0343826711177825,0.0062267892062664,-0.6790384947270155,-9.77277695649266,-0.4495961173683405,50,standing
1783066206274096400,3.3675394,0.0563678569752722,0.0858393775880336,0.0090998002460226,0.0370573028922081,-0.0393556281924247,0.0220276191830635,-0.6826013017751276,-9.77293010122776,-0.4408043601581826,50,standing
1783066206294023400,3.3874664,0.0584903290219605,0.0825900204032659,0.0297737914949655,0.0092054530978202,-0.0155464662238955,0.0369399897754192,-0.6892129019346088,-9.772672327074408,-0.4361895963717251,50,standing
1783066206313949400,3.4073924,-0.084411975133419,0.0556447303324937,0.0535678875258192,-0.0193317886441946,0.0072876177728176,0.0166245326399803,-0.694751173774153,-9.772214061912894,-0.4376875067792832,50,standing
1783066206333875500,3.4273185,-0.1116120436828583,0.0586947655528783,-0.039748621009849,0.0010463276412338,0.0013118935748934,0.0186039600521326,-0.6968798563659191,-9.771969731763004,-0.4396901153059676,50,standing
1783066206353801500,3.4472445,-0.0226931855842471,0.0383060575187206,-0.0634744010448455,0.0123704578727483,0.0173663832247257,0.0373841375112533,-0.7023009315665811,-9.771633631676435,-0.4385596499713137,50,standing
1783066206373728500,3.4671715,-0.073090882108733,0.1514806012779474,-0.0659481342146173,0.0269547253847122,0.0360492579638958,0.0406955108046531,-0.7101124821003526,-9.77123440322578,-0.4348889986345544,50,standing
1783066206393654300,3.4870973,-0.1665958989538252,0.1531488267511129,-0.0136649527370929,0.0157398991286754,0.0422413758933544,0.0273344032466411,-0.7159666880212724,-9.770956170806288,-0.4315068088503554,50,standing
1783066206413580500,3.5070235,-0.1370072547674179,0.101581136599183,0.0457534509152173,-0.0041179750114679,0.0249881017953157,0.0331306420266628,-0.7214636780023574,-9.770564541140198,-0.4312204296570271,50,standing
1783066206433506600,3.5269496,-0.0881603678815066,0.0179985980272293,0.0557447201082482,0.001927580917254,0.0027092383243143,0.0285792276263237,-0.7279629768937825,-9.770030288133023,-0.4323827514346688,50,standing
1783066206453433600,3.5468766,-0.1579784388646483,0.0327881708800792,0.0680015230804681,0.0118207046762108,0.0265580955892801,0.0127348853275179,-0.7310187112025917,-9.769856685131789,-0.4311720604706555,50,standing
1783066206473359400,3.5668024,-0.131711705642566,-0.0378086293905973,0.1118704388907179,0.0180539973080158,0.0101374210789799,0.0020666955970227,-0.7321462539277971,-9.7698900028795,-0.4285039372399449,50,standing
1783066206493285400,3.5867284,-0.0468343780197203,-0.0143967741429805,0.1275724504133686,0.0205859094858169,0.0006162712234072,0.0120017919689416,-0.7336754362564534,-9.769958391940593,-0.4243043301256373,50,standing
1783066206513211400,3.6066544,-0.0086308310274034,-0.0142909756809473,0.0670352718641981,-0.0035591265186667,-0.0195725690573453,0.0016315339598804,-0.7355171186003834,-9.769914552798866,-0.42212534211874,50,standing
1783066206533138400,3.6265814,-0.1541997240435332,0.012014262920618,0.1827057971576228,-0.0433727912604808,-0.0144399208948016,-0.018701734021306,-0.7336001790631562,-9.769881819573044,-0.4261660323442891,50,standing
1783066206553064400,3.6465074,-0.0901171279724687,0.0301005392313003,0.1331143755147233,-0.0393209904432296,-0.0313683673739433,-0.0069071594625711,-0.7307945470578968,-9.769711723703145,-0.4347838942922651,50,standing
1783066206572990500,3.6664335,0.030609876992926,0.1188297930419444,-0.0249690215617418,-0.0090111754834651,-0.0399987138807773,0.0034496749285608,-0.73031531217359,-9.769557409924268,-0.4390574799582362,50,standing
1783066206592916500,3.6863595,-0.0351391179203987,0.1568617097944021,0.0001723974248394,-0.002442666562274,-0.0292905066162347,0.0120841413736343,-0.7323522978939115,-9.769432906761764,-0.4384605369783937,50,standing
1783066206612843500,3.7062865,-0.1378327458061277,0.072380761078,0.009636427873373,-0.0326358750462532,0.0306009482592344,0.019762635231018,-0.7357515849433839,-9.769047122314571,-0.4413410973833873,50,standing
1783066206632769300,3.7262123,-0.1391812378056347,0.0899170022904872,-0.0272854818105697,-0.0281472578644752,-0.0039536925032734,0.009536562487483,-0.7390417855951935,-9.768477213472128,-0.4484120221503078,50,standing
1783066206652695300,3.7461383,-0.1441034235734492,0.0618476766258478,-0.0809627479949966,-0.022029809653759,0.0234287567436695,0.0196015127003192,-0.7432477128524333,-9.767942375943065,-0.4530940424866974,50,standing
1783066206672621600,3.7660646,-0.0697452980078756,0.1738783110469579,0.1585743589311838,0.0119342822581529,0.034501913934946,0.0047639776021242,-0.7412903682395815,-9.76804291370809,-0.4541087359545752,50,standing
1783066206692548600,3.7859916,-0.0419768549859523,-0.0524520717710256,0.1027677160352468,0.0133932875469326,0.0033438694663345,0.0045050517655909,-0.7404781020086258,-9.768263862982392,-0.4506755466355011,50,standing
1783066206712474400,3.8059174,-0.0579315260954201,0.0583078120619058,0.0732757006237283,0.0029610397759824,0.0163649730384349,0.015206896699965,-0.743078493765369,-9.768141697907447,-0.4490160889906808,50,standing
1783066206732400400,3.8258434,-0.1341781688213348,0.083826284199953,0.0312497457990422,0.0031294394284486,-0.0258528850972652,-0.0069293295964598,-0.7443442028522491,-9.768072139802577,-0.4484389832224696,50,standing
1783066206752326400,3.8457694,-0.2621417739767581,-0.006046294426918,0.1332037342986091,-6.60994555801e-05,-0.0256880167871713,-0.0357999950647354,-0.7401310421366244,-9.76843278980851,-0.4475923763304948,50,standing
1783066206772253400,3.8656964,-0.1528381533667445,0.0052203649967908,0.1124836388856172,-0.0155134750530123,-0.012059305794537,-0.0098878694698214,-0.7348119660057127,-9.768774735113976,-0.4488687894744798,50,standing
1783066206792179500,3.8856225,0.0919406901378184,0.0803413646936416,0.0832645221313461,-0.0167311485856771,-0.0349025093019008,0.0303624160587787,-0.7370286922071129,-9.768479551559686,-0.4516723025878891,50,standing
1783066206812105500,3.9055485,-0.0237868991050869,0.1869336074531078,0.069730538830161,-0.0389964319765567,-0.0091908145695924,0.0284315571188926,-0.7432553847022354,-9.76778046337962,-0.4565438541470095,50,standing
1783066206832031500,3.9254745,-0.1896684392444789,0.1921674164533615,0.0837234083473682,-0.0156933423131704,-0.0445332489907741,0.0073834331706166,-0.7472126709606498,-9.767178405833244,-0.4629050962746143,50,standing
1783066206851958500,3.9454015,-0.1174376810964196,0.0390706121504306,-0.144150148792006,0.0508177019655704,-0.0767944529652595,-0.0264202747493982,-0.746569843012467,-9.767461314427852,-0.4579914226068183,50,standing
1783066206871884300,3.9653273,-0.1658244761899113,0.0139794255137443,0.0378466233134269,0.0690727978944778,-0.019081313163042,-0.0109843872487545,-0.7420269388858228,-9.768405901801586,-0.4450109450025484,50,standing
1783066206891810300,3.9852533,0.0197401079323142,-0.048521746584773,-0.0762491269439458,0.0417071804404258,-0.0046620951034128,0.034576166421175,-0.7445845144141465,-9.76875252328217,-0.4329674194548278,50,standing
1783066206911736600,4.0051796,-0.0652530280899256,0.0419593193292617,0.0636479675134643,-0.0213284231722354,0.0037651169113814,0.0359934717416763,-0.7522174204453825,-9.768255095154046,-0.4310081751458346,50,standing
1783066206931663600,4.0251066,-0.1670154395401477,0.0532142883151769,0.0927519699880853,-0.0640358179807663,0.0340251773595809,0.0213863309472799,-0.7581938645064831,-9.767387664669752,-0.4400609213797375,50,standing
1783066206951589400,4.0450324,-0.102219507567957,0.0559106877923011,0.0685831588933244,-0.0380107201635837,0.0135378371924161,0.0263540279120206,-0.7625359853640198,-9.76649276165664,-0.4522541941290721,50,standing
1783066206971515400,4.0649584,0.0384541607525199,0.0663601856142282,-0.1278354852637276,0.0600221417844295,-0.0517613068222999,0.0135492477566003,-0.7665906675823032,-9.766317989611624,-0.4491672244317829,50,standing
1783066206991441400,4.0848844,-0.0695779055517166,0.1100923598349094,-0.0378413626164197,0.0917307659983635,-0.0570114143192768,-0.0061846440657973,-0.768243037899211,-9.766955118471383,-0.4321707891844212,50,standing
1783066207011368400,4.1048114,-0.1139999617327004,0.0269406138956546,0.0857575810560956,0.0203876942396163,0.0116144064813852,-0.0091145141050219,-0.7667669009320437,-9.767599261593816,-0.4200484627794474,50,standing
1783066207031294500,4.1247375,-0.0107978728681802,-0.0067395373880863,0.2311333991855382,-0.0445947125554084,0.0032557984814047,0.0121631110087037,-0.766719189332798,-9.767439102596043,-0.4238667789585888,50,standing
1783066207051220500,4.1446635,0.0620090777326375,-0.0294698401123285,0.0352343584557995,-0.0547734536230564,-0.0197386275976896,0.0168665163218975,-0.770543204600364,-9.766706696668267,-0.4337196625942364,50,standing
1783066207071146500,4.1645895,-0.0974598919507116,0.0895773950725793,0.0725584557324647,-0.0077780568972229,-0.0291016716510057,-0.0106279617175459,-0.7716354568164795,-9.766341955009102,-0.4399185902995988,50,standing
1783066207091073500,4.1845165,-0.0629229777071625,0.1353349376410245,-0.0341138299932703,0.022689102217555,-0.0043711066246032,-0.0060115037485957,-0.7695109389431775,-9.766609081512687,-0.4376930962698533,50,standing
1783066207110999300,4.2044423,0.076156991681084,0.1576969915747642,0.0160825352728366,-0.0071181752718985,0.0215109512209892,0.0344304926693439,-0.7719719222292304,-9.766526079404354,-0.4352175730017945,50,standing
1783066207130925300,4.2243683,0.070373074517399,0.1441109492927789,0.0838227770686149,-0.0629701688885688,0.0357654243707656,0.0539008304476738,-0.7805530688960105,-9.76550959583819,-0.442653458623588,50,standing
1783066207150851600,4.2442946,-0.0475618885766714,0.0846335089296102,0.035796668513678,-0.054951149970293,0.0196083262562751,0.0414673313498497,-0.7905584762122482,-9.764092714777588,-0.4559792425341903,50,standing
1783066207170778600,4.2642216,-0.1850090691313147,-0.0540583379238843,-0.170489216597937,0.0157238394021987,0.0035603335127234,-0.0053205071017146,-0.79362071332708,-9.763664260232447,-0.4597842608403414,50,standing
1783066207190708500,4.2841515,-0.2046700474128127,-0.0843511848568916,-0.0545785624057054,0.0547011606395244,0.0273486766964197,-0.0133221801370382,-0.791317770146951,-9.764197344195845,-0.4523935660671442,50,standing
1783066207210634200,4.3040772,-0.1232808541666716,-0.1041395889103412,-0.0340957828799262,0.0469072163105011,0.0504914857447147,-0.0151118580251932,-0.7878626612570137,-9.76491046090126,-0.4429490440366789,50,standing
1783066207230560300,4.3240033,-0.123293129126355,0.0357137029379606,0.0940431423097848,0.0424821637570858,0.0370799899101257,-0.0267499946057796,-0.7833611851193011,-9.7655996122092,-0.435665535965003,50,standing
1783066207250487300,4.3439303,-0.0685880907967686,0.051681087398529,0.0655149669617414,0.055647499859333,-0.0203286726027727,-0.0372559428215026,-0.7777623421989381,-9.766453598690031,-0.4264413786869496,50,standing
1783066207270413300,4.3638563,-0.1252188364919275,0.0301367795884609,0.1110714705327525,0.0361218824982643,-0.0043807560577988,-0.0597224347293376,-0.7682671494271606,-9.76765362212956,-0.4160330165930092,50,standing
1783066207290339300,4.3837823,-0.1402826962415128,0.0441992072105407,0.2698661942163482,-0.0113428253680467,0.0036230913829058,-0.0560830943286418,-0.7563456793565303,-9.76869757822454,-0.4133689119502902,50,standing
1783066207310265300,4.4037083,0.0137678285896778,0.0986199487060308,0.245593301692605,-0.0485160611569881,0.0045579099096357,-0.0115583706647157,-0.7495358532112091,-9.768950091680884,-0.419771399403736,50,standing
1783066207330192400,4.4236354,0.0945608825735747,0.157007255744934,0.1116068925837054,-0.0184180065989494,-0.0706386566162109,-0.0066790929995477,-0.7493751096915453,-9.768678873524069,-0.4262947002252563,50,standing
1783066207350118400,4.4435614,-0.141019559148699,0.1326122346788644,0.0762146766850724,0.0046145804226398,-0.0666630715131759,-0.0344519652426242,-0.7457326615359634,-9.768973472556471,-0.4259177201390266,50,standing
1783066207370044200,4.4634872,-0.1939057845532894,0.0167997436314821,0.1285462638815865,-0.0226081870496273,-0.0362437106668949,-0.0340677052736282,-0.739234312492609,-9.769431737717984,-0.4267745196314528,50,standing
1783066207389970200,4.4834132,-0.1376200529035181,-0.0027408231407403,0.1520317688873037,-0.056876003742218,0.0068908552639186,-0.0200838148593902,-0.733869424458593,-9.769493697038293,-0.434547491720505,50,standing
1783066207409896400,4.5033394,-0.0216097011964768,0.0686959350854158,0.0078068378260359,0.0014896558132022,-0.0872280150651931,-0.0370929241180419,-0.7291223029967397,-9.76955331827104,-0.4411578132383525,50,standing
1783066207429823500,4.5232665,-0.0059806818448007,0.223877144446969,-0.0593891410252079,0.0444218888878822,-0.0599233768880367,-0.0204828884452581,-0.7232032151460647,-9.770306766986849,-0.434115639641881,50,standing
1783066207449749200,4.5431922,0.1372649558555334,0.2395218728244304,0.0649509398708119,0.0087676439434289,-0.0401905588805675,0.0305765997618436,-0.7244428399436176,-9.770538822177052,-0.426774921490252,50,standing
1783066207469675300,4.5631183,0.0749022423796355,0.2514975573003292,0.1541658948391676,-0.0618319734930992,-0.0136851835995912,0.0609278827905654,-0.7349536394987255,-9.76949661964774,-0.4326416580991819,50,standing
1783066207489601300,4.5830443,-0.1451448223851621,0.153240012165904,0.0586327696999534,-0.0424515642225742,-0.0554830096662044,0.0219728592783212,-0.7432537042018026,-9.768355048397185,-0.4440993831155821,50,standing
1783066207509528300,4.6029713,-0.1804178688835352,-0.0470750549077987,-0.0674800930222496,0.0106844855472445,-0.0753117054700851,-0.022399466484785,-0.743743898871541,-9.768253341588377,-0.4454773934705183,50,standing
1783066207529454300,4.6228973,-0.2226072706416249,-0.197513453656435,-0.0115542441934347,0.0050970814190804,-0.0028563330415636,-0.0317536145448684,-0.7383654937688261,-9.768799869555234,-0.4424458802875131,50,standing
1783066207549380400,4.6428234,-0.105578462607041,-0.2142208428293466,0.0059486792713403,-0.0212891660630702,0.0048060189001262,-0.0092070568352937,-0.7343374803617596,-9.769002114129066,-0.444685731636174,50,standing
1783066207569306400,4.6627494,-0.0352767728254199,-0.0664578007698059,-0.1198275719076395,0.0150685291737318,-0.0250727199018001,-0.0214725192636251,-0.7328129742082208,-9.769072256755829,-0.4456524577764794,50,standing
1783066207589233400,4.6826764,-0.2471041446469724,0.0862707547426223,-0.0831441836873069,0.0629147961735725,-0.008384758606553,-0.0670529752969741,-0.7243432520266622,-9.770069451099634,-0.4375944216683506,50,standing
1783066207609159200,4.7026022,-0.1623755047798156,0.0646323389083147,-0.0583843478968366,0.0652219802141189,0.0237046740949153,-0.0577706061303615,-0.7112087529044598,-9.77162311028242,-0.4241971068914979,50,standing
1783066207629085200,4.7225282,0.0174697518475353,0.059750996607542,0.0494207047184929,0.022382179275155,0.0300567671656608,-0.0260000582784414,-0.702959760801494,-9.772579388093948,-0.4158832693913951,50,standing
1783066207649011500,4.7424545,0.06758074038513,0.1526858854144811,0.087364431730844,0.0122128222137689,0.0027751573361456,-0.0077383308671414,-0.700098818412423,-9.772886262086033,-0.4134246972581371,50,standing
1783066207668938500,4.7623815,0.0507584926608949,0.1886053400576114,0.0481073570976033,0.021609291434288,0.0057663898915052,-0.0012003050651401,-0.699886344705522,-9.77304291395247,-0.4100802091358229,50,standing
1783066207688864300,4.7823073,-0.05055091432482,0.1439139654159545,0.0498661834636703,0.0234326366335153,0.0158888883888721,-0.021710529923439,-0.6976370314087719,-9.773391873520612,-0.4055549137311056,50,standing
1783066207708790300,4.8022333,-0.0139963766485452,0.0441898548603057,0.0841051011413335,0.0016743444139137,0.0004356300923973,-0.0152555601671338,-0.6934902139276266,-9.773776488924026,-0.4034318571625277,50,standing
1783066207728716300,4.8221593,0.0582463641982525,-0.0303910466104745,0.1002847035804763,0.0038403356447815,-0.0382534712553024,-0.0208959076553583,-0.6904651670180261,-9.774013804811238,-0.4028521941110491,50,standing
1783066207748642300,4.8420853,-0.0754139182288199,0.0173509477734565,0.081998447718285,0.0510928146541118,0.0058556497097015,-0.0460908748209476,-0.6853437323510646,-9.774621707576513,-0.3968358198983595,50,standing
1783066207768569300,4.8620123,-0.062605363125354,0.0844072989583015,-0.1598977164894342,0.0275319553911685,0.0198176801204681,-0.0160771161317825,-0.6785496882967651,-9.775387431252,-0.3895717837121337,50,standing
1783066207788495400,4.8819384,-0.0212551886703819,0.1175613805413246,0.1791764174550771,-0.022285308688879,-0.0191542971879243,-0.0003601435164455,-0.6772530726149678,-9.775471602404116,-0.3897162702167406,50,standing
1783066207808421400,4.9018644,-0.0915147198107093,0.1190957505017518,0.004688450077176,-0.01222116779536,-0.0283087287098169,-0.003687088843435,-0.6768743024304509,-9.775359958723186,-0.393147450241819,50,standing
1783066207828347100,4.9217901,-0.132362570766732,0.000234977799654,-0.0041162031471729,0.0049216747283935,-0.026687741279602,-0.0149612128734588,-0.6752316497899592,-9.775461081010103,-0.3934705447163432,50,standing
1783066207848274200,4.9417172,-0.1775823531966656,-0.0676876348257064,0.0489975108703598,0.0034453540574759,0.009415827691555,-0.029494060203433,-0.6713118459977209,-9.775774384742975,-0.3924158114990219,50,standing
1783066207868200200,4.9616432,-0.1442491887196898,-0.0077326400786638,-0.0440987059781327,0.0482249967753887,-0.0107053592801094,-0.0427831597626209,-0.66424285745956,-9.77647288840115,-0.3870071208558976,50,standing
1783066207888126500,4.9815695,-0.1083490963641554,0.0583732785135507,-0.032409985217452,0.0327822789549827,0.0121865021064877,-0.0329131931066513,-0.6568975361980497,-9.777335642710328,-0.3775965741602703,50,standing
1783066207908052200,5.0014952,-0.1796003419555723,0.0439192212253808,0.0619774404853582,-0.0043418109416961,0.0340850129723548,-0.0298820082098245,-0.650589010638371,-9.777845345798134,-0.3753182904973626,50,standing
1783066207927979300,5.0214223,-0.0761534845497459,0.0762725078195333,-0.0127355629324913,0.0141037218272686,-0.0209321174770593,-0.0247898753732442,-0.6450997655723244,-9.778176185187696,-0.3761724231086671,50,standing
1783066207947905300,5.0413483,0.0116720253542065,0.0922936682939529,-0.0274701541950926,0.0584115386009216,-0.0165115538984537,-0.0050772870890796,-0.6428432918824255,-9.77863445034921,-0.3680221421398222,50,standing
1783066207967831300,5.0612743,-0.093110245373845,0.1467716929346323,0.0708101507604122,0.064715601503849,0.0069934306666255,-0.0220660660415887,-0.641011838671565,-9.779243522158264,-0.3548226149573922,50,standing
1783066207987757300,5.0812003,-0.2470882894907146,0.0925812530636787,0.1216851824730634,0.0556117594242095,-0.0032876268960535,-0.0525963380932807,-0.63337929796651,-9.780119720470903,-0.3441964819269255,50,standing
1783066208007683300,5.1011263,-0.0610822452113032,0.0414414329349994,-0.017383680999279,0.0573908910155296,-0.0520885959267616,-0.0487426742911338,-0.6230608791783452,-9.781203424054384,-0.3320206352364271,50,standing
1783066208027610400,5.1210534,0.0689885613564401,0.0180897834420204,0.1898568379560485,-0.0102546364068984,-0.0013653080677613,0.006736887153238,-0.6189067551735788,-9.781643569037318,-0.3267749166026711,50,standing
1783066208047536400,5.1409794,0.1130299476567655,0.0755938779056072,0.1213198562920093,-0.0918956845998764,-0.0134800598025321,0.0362561680376529,-0.6244913503728806,-9.780939220160246,-0.3370974635766819,50,standing
1783066208067462100,5.1609051,-0.1781255201626569,0.1274573361337184,0.0961760992178693,-0.0745997279882431,-0.053315669298172,-0.0197801068425178,-0.6273737008761614,-9.780129657343029,-0.3547503169061616,50,standing
1783066208087388200,5.1808312,-0.2510181032203137,0.1239601416677236,-0.1165472350627183,0.006969666108489,-0.0277327988296747,-0.0454466752707958,-0.6201720258690416,-9.78037398749292,-0.3606467910662293,50,standing
1783066208107315200,5.2007582,-0.0802878809407353,0.0597346299946308,-0.1014098351528868,0.0561509989202022,-0.022770432755351,-0.0248047988861799,-0.6132824124857783,-9.781090611329674,-0.3528897837312892,50,standing
1783066208127241500,5.2206845,-0.0799250755103305,0.072447981095314,-0.0551011249750852,0.0189967919141054,0.0363223515450954,-0.0025075117591768,-0.6111013421196491,-9.781534263443946,-0.3442814202640205,50,standing
1783066208147167200,5.2406102,-0.1519041604522615,0.1568681395351886,0.0137017410835251,-0.0295273140072822,0.0308556500822305,0.0053823739290237,-0.6118462787354365,-9.781410344803332,-0.3464961006388068,50,standing
1783066208167093200,5.2605362,-0.1271591934373602,0.1452531050652265,-0.083544508116506,0.0114556327462196,-0.0288011357188224,-0.008056360296905,-0.6120505326032638,-9.781315652257204,-0.3487589675368741,50,standing
1783066208187019000,5.280462,-0.1144899372067302,0.0757201346337795,0.002038191296719,0.0474827997386455,0.0131107084453105,-0.0132743939757347,-0.6102051604649051,-9.781665780869126,-0.3421642454469576,50,standing
1783066208206946000,5.300389,-0.0555839035233482,0.0454804791927337,0.077222355890274,0.0315155312418937,0.0434750393033027,-0.0065738875418901,-0.6079092315474525,-9.782100080633162,-0.3337009895388036,50,standing
1783066208226872300,5.3203153,-0.0344137627879157,0.0448895275622606,0.2210141927639022,-0.0136051690205931,0.0246378127485513,0.0093367956578731,-0.6082796357624233,-9.78210651037395,-0.3327933366419747,50,standing
1783066208246798300,5.3402413,0.0544036442302167,0.0768225429177284,0.0377332625994458,-0.0264191925525665,-0.0233209896832704,0.0199116859585046,-0.6119532462412491,-9.781718387839195,-0.3374571272019296,50,standing
1783066208266724000,5.360167,-0.0559181404463946,0.1316278998166322,0.0788666524985805,-0.0072250459343194,-0.0309905465692281,0.0051680151373147,-0.6143086137283593,-9.781457106554509,-0.3407324590781703,50,standing
1783066208286651100,5.3800941,-0.0929756592087447,0.0896253258675336,0.0748269851863384,-0.0041820746846497,-0.0073297568596899,0.0067435498349368,-0.6157080321975053,-9.781353646180031,-0.3411818102808669,50,standing
1783066208306577200,5.4000202,-0.1586667864549905,0.0558481439501047,0.1184399534741416,-0.0180361792445182,0.0333711467683315,-0.0023935914505273,-0.6161565796826034,-9.781243756064772,-0.343494872996211,50,standing
1783066208326503200,5.4199462,-0.089178020491451,0.05225742598176,-0.0231091094413772,0.0073671378195285,-0.0222244411706924,-0.0012577130692079,-0.6154656017437576,-9.78124667867422,-0.3446998648717999,50,standing
1783066208346429200,5.4398722,0.0160972944505512,0.0416524453371763,-0.0542939367780461,0.0212383829057216,-0.0483736395835876,0.0138276545330882,-0.6171916948840022,-9.78126596789658,-0.3410485392900184,50,standing
1783066208366355200,5.4597982,-0.0003553162436932,0.0815706142276525,-0.0203285388121381,0.0062135942280292,-0.0385508276522159,0.009150787256658,-0.6200424081400037,-9.7812308965832,-0.3368561291014775,50,standing
1783066208386282200,5.4797252,-0.1385828335210681,0.0169330146223306,0.1624638041177764,-0.0533564537763595,0.0262563209980726,0.0087889675050973,-0.6221747439935803,-9.780935713028908,-0.341430341681838,50,standing
1783066208406208300,5.4996513,-0.0424614236325025,0.0461094247460365,0.0551198662081733,-0.0510293915867805,-0.0100228395313024,0.0236079897731542,-0.6252214182130992,-9.78033424000442,-0.3528986976901069,50,standing
1783066208426134000,5.519577,0.0371739116836339,0.0765671068519353,-0.10570497506354,0.0046680979430675,-0.0356220863759517,0.0217465087771415,-0.6306367943253368,-9.779818691697717,-0.357572607785277,50,standing
1783066208446060300,5.5395033,-0.1031263202145695,0.1175350770562887,-0.0786918804535642,0.0339080430567264,-0.018388781696558,-0.0116049675270915,-0.6318936625186353,-9.779935596075653,-0.3521147077055648,50,standing
1783066208465986300,5.5594293,-0.1249616468604654,0.0627303046792745,0.0450292282938957,-0.0086722606793046,0.0320198908448219,-0.0096488455310463,-0.6295111512962729,-9.780196292838454,-0.3490928756663575,50,standing
1783066208485913300,5.5793563,-0.0047444911133497,0.0483043044418096,0.053872459962964,-0.0322543643414974,0.0355094745755195,0.0148628391325473,-0.630018224035576,-9.779985864958167,-0.3540456757681444,50,standing
1783066208505839000,5.599282,0.0778619689680635,0.0520364767074584,-0.0263467761883512,-0.0324137881398201,0.030629688873887,0.0389887355268001,-0.6352621160384267,-9.779379715758562,-0.361364437816292,50,standing
1783066208525765000,5.619208,0.028191856065765,0.145278239506483,-0.0692384079316631,-0.0212395153939723,-0.0217878837138414,0.0640776082873344,-0.6441003062061965,-9.778649063396454,-0.3654583560664206,50,standing
1783066208545691100,5.6391341,-0.1273769643738865,-0.0362549702078104,-0.0257727026274427,-0.006025219336152,-0.0231473855674266,0.0015089837834239,-0.6520851674802601,-9.778025378540155,-0.3679233944730833,50,standing
1783066208565618200,5.6590612,-0.3211811882488429,0.0570288781672716,0.0248030538776889,-0.0236202217638492,0.0468786209821701,-0.027041045948863,-0.6496675849445164,-9.778085584294796,-0.370615446568653,50,standing
1783066208585544200,5.6789872,-0.1304015728920698,-0.0384387439876794,0.0887356835514307,-0.0231125280261039,0.0623059719800949,-0.003157758153975,-0.645918242348358,-9.778087337860464,-0.3770871633334085,50,standing
1783066208605470200,5.6989132,0.1823467911195009,0.0426110612362623,-0.1009855087935924,0.0042934352532029,0.0017854450270533,0.0359083600342273,-0.6496649545960128,-9.777734286639092,-0.3798003312822431,50,standing
1783066208625396200,5.7188392,0.0300149067744612,0.2000017633408307,-0.0630219811022281,0.0356681570410728,-0.0354820638895034,0.0084943184629082,-0.6552007422175258,-9.777556591984627,-0.374817647498846,50,standing
1783066208645322000,5.738765,-0.2583897279668599,0.1139455281317234,0.0851068985950201,0.0022487344685941,0.0438212342560291,-0.0177078954875469,-0.6535020485408604,-9.777843592232465,-0.3703163540242239,50,standing
1783066208665249000,5.758692,-0.1555089069459587,-0.0372264455884695,0.1244745574632659,-0.0262004006654024,0.0334510542452335,-0.0131491227075457,-0.6496909658201039,-9.777952313303947,-0.3740700440019369,50,standing
1783066208685175300,5.7786183,0.0552495935350656,-0.0662923810750246,-0.0268774855315685,-0.0309270415455102,0.0612228289246559,0.0261154938489198,-0.6509569671679287,-9.777617382261155,-0.3805855633758008,50,standing
1783066208705101300,5.7985443,0.0035315351270139,0.0895505070656537,-0.0498825135439634,0.0203495249152183,-0.0048846160061657,0.0009959905873984,-0.6552033725660293,-9.77723861207664,-0.3830190010678023,50,standing
1783066208725027000,5.81847,-0.1305484340168535,0.1236614509820938,-0.1004326241511851,0.0672946944832801,-0.0121673624962568,-0.0300103761255741,-0.652206090446189,-9.77783307083845,-0.3728708973452448,50,standing
1783066208744953000,5.838396,-0.1287993253272026,0.0194230778723955,0.1394166905293241,0.0177719984203577,0.017802694812417,-0.0142149804159998,-0.6476701275169849,-9.77848715083301,-0.3634243294881656,50,standing
1783066208764880100,5.8583231,0.0015596505321562,-0.0177975224971771,0.1851058075040578,-0.0524689555168151,0.0119662070646882,0.0145293418318033,-0.6475451859630644,-9.77837784523964,-0.3666162573972716,50,standing
1783066208784806100,5.8782491,0.0559587647177279,0.0446639021128416,0.1540320758590474,-0.0680120289325714,0.0099641047418117,0.0387252606451511,-0.6528630930501967,-9.777541978937387,-0.3792367425827309,50,standing
1783066208804732200,5.8981752,-0.0024654402654618,0.1807160481125116,0.0010801964521408,-0.0021734067704528,-0.0464437492191791,0.0179294757544994,-0.6589327683527022,-9.77682593962252,-0.3871448853587731,50,standing
1783066208824658200,5.9181012,-0.1793717938967049,0.1489122120946645,-0.0769867570361122,0.0363242402672767,0.0212436411529779,-0.0258352197706699,-0.6584491495542227,-9.777043966287374,-0.3824008326368406,50,standing
1783066208844584200,5.9380272,-0.3181543147083371,0.0467471381276845,0.078179254756309,0.0373594425618648,0.0461758226156234,-0.0446557588875293,-0.6504498944286257,-9.777829563707114,-0.375958232368715,50,standing
1783066208864511200,5.9579542,-0.009531433128938,-0.0221399356156587,-0.0385287238260731,0.0182855017483234,0.0349731296300888,-0.002329601207748,-0.6449832995858044,-9.778373753586411,-0.371178998735547,50,standing
1783066208884437000,5.97788,0.1271140025887638,0.0710579880416393,0.0014245163777843,0.001541857374832,-0.0173722710460424,0.0263793021440505,-0.6481520658150315,-9.778198397019503,-0.3702815749717876,50,standing
1783066208904363300,5.9978063,-0.0238426478803157,0.0642114831477403,0.0116109793493524,-0.0072802384383976,-0.01911654882133,0.0080946469679474,-0.6519207706987857,-9.777935946691036,-0.3705920291604474,50,standing
1783066208924289300,6.0177323,-0.1752566136628389,0.0181990890353918,0.1777864609340205,-0.0262177847325801,0.0214075203984975,-0.0162302367389202,-0.6511917257718741,-9.777861712411044,-0.3738117949245497,50,standing
1783066208944215000,6.037658,-0.1629377417724579,-0.0752969407856464,0.1176759468317031,-0.0291927270591259,0.0315554179251194,-0.0260603949427604,-0.6467513321716338,-9.77789035398364,-0.3807389638392254,50,standing
1783066208964142000,6.057585,-0.013973434164375,0.0135579852312803,-0.0625666385501623,0.0194629672914743,-0.0182763375341892,-0.0177277587354183,-0.6421874583221971,-9.778159818574784,-0.3815577328762039,50,standing
1783066208984068000,6.077511,0.0110123924016952,0.1119236669152975,-0.0453647438585758,0.0310136396437883,-0.0334529094398021,-0.0034016787540167,-0.640687429022789,-9.778512869796156,-0.374967029374279,50,standing
1783066209003994000,6.097437,-0.1536691973634064,0.0429003995716571,0.0582990807661786,-0.0232069715857505,0.0305071305483579,-0.0094454465433955,-0.6395597401671111,-9.77862159086764,-0.3740343151014298,50,standing
1783066209023920000,6.117363,-0.2799726142216474,0.0369686714351177,0.1438467088660225,-0.0541348047554492,0.0519163534045219,-0.0260005183517932,-0.6353607541073113,-9.778527482843398,-0.383565784762986,50,standing
1783066209043846100,6.1372891,-0.1082027466960251,0.0543681345254182,-0.0110772743314504,-0.0178779773414134,0.0283159166574478,-0.0059945816174149,-0.6317551308307796,-9.778418177250026,-0.3921960312684998,50,standing
1783066209063773200,6.1572162,0.0485181663881987,0.1633545789450406,-0.1263730480283498,0.0589978136122226,-0.0447651743888855,-0.0017649941146373,-0.6316559082400053,-9.7786180837363,-0.3873327726136892,50,standing
1783066209083699200,6.1771422,-0.0624601825010031,0.1122059909880161,-0.0161182276407256,0.0518793761730194,-0.0265322960913181,-0.0211830027401447,-0.6299131562259048,-9.779245275723934,-0.3741366064321249,50,standing
1783066209103625000,6.197068,-0.1858656128954142,-0.0509299767702817,0.2355582298904657,-0.0243215598165988,0.0346712917089462,-0.0221999511122703,-0.6250206349439918,-9.77966203983128,-0.3714293933000415,50,standing
1783066209123551200,6.2169942,0.0174630298458039,-0.0021159692406654,0.1591833942076191,-0.049168512225151,0.0112439738586544,0.0160826276987791,-0.6240939485531299,-9.779396082371472,-0.3798993712099269,50,standing
1783066209143477200,6.2369202,0.0910758900020271,0.1113853222548961,0.0127256260603666,-0.0245467778295278,-0.04399985820055,0.0310609154403209,-0.6296216259334236,-9.778722713154554,-0.3880163344310596,50,standing
1783066209163404300,6.2568473,-0.1151236320003867,0.2219727721303701,-0.0148404262572526,0.0394154712557792,-0.0783224925398826,-0.0158092323690652,-0.6315679376956075,-9.77872797385156,-0.3846915739225223,50,standing
1783066209183330000,6.276773,-0.2421080168601125,0.1090530799150466,0.1026280518362298,0.0064147640950977,0.0049544451758265,-0.0190289355814456,-0.6274360985878855,-9.77923241624236,-0.3785595374409109,50,standing
1783066209203252700,6.2966957,-0.1264356649357825,-0.0374964947015047,0.1688222332337871,-0.0368763171136379,0.0092017166316509,0.008981960825622,-0.625792496099323,-9.77917864022851,-0.3826541863434016,50,standing
1783066209223178800,6.3166218,0.0544745175093412,0.044353520989418,-0.0265951614588499,-0.0173028167337179,-0.0072193965315818,0.0465466119349002,-0.6311777693342417,-9.778578920769691,-0.3890978825900703,50,standing
1783066209243104800,6.3365478,-0.0302908011063933,0.1950473558038473,-0.0837257099023088,0.0471970960497856,-0.061442457139492,0.0178145766258239,-0.6394869671918452,-9.778137606742977,-0.386585461377725,50,standing
1783066209263031800,6.3564748,-0.2543928403504192,0.1806698708832264,-0.0684492668479681,0.0524728745222091,-0.0383385121822357,-0.026738416403532,-0.6383451767455786,-9.778725051242112,-0.373430650119856,50,standing
1783066209282957800,6.3764008,-0.2387288227505981,-0.0616898557156324,0.2569908940196037,-0.011076308786869,0.0308054704219102,0.0015762934926897,-0.6348555079989134,-9.779077517941593,-0.3701169589946046,50,standing
1783066209302883600,6.3963266,0.155544708911702,-0.0815735368371009,-0.0053372693747282,-0.030873741954565,-0.0056971507146954,0.0591251254081726,-0.6409690955083817,-9.778497087705135,-0.374892137507163,50,standing
1783066209322809600,6.4162526,0.0648777650367468,0.0962000280827283,-0.0084597853094339,-0.0027321772649884,-0.0053887111134827,0.0429167710244655,-0.6522052867285907,-9.777603353735804,-0.3788026620144024,50,standing
1783066209342736000,6.436179,-0.1814176935758441,0.2083697787135839,-0.0654588163277134,0.0268986411392688,-0.0154407294467091,-0.0086184851825237,-0.6550565114412457,-9.777544317024946,-0.3753732720876112,50,standing
1783066209362663000,6.456106,-0.1862459905151277,0.0337678295671939,0.0487000622937455,0.0151347611099481,0.0092759393155574,-0.0092797642573714,-0.6527719807006418,-9.777868726673722,-0.3708695674601942,50,standing
1783066209382588700,6.4760317,-0.0176683431595563,-0.02010463039577,0.0039473128536716,0.0009158933535218,0.027244521304965,0.0388555526733398,-0.6554015985518693,-9.777716166460513,-0.3702599111292511,50,standing
1783066209402514700,6.4959577,0.0582313127595931,0.0690706136167049,-0.0120808618834242,0.0201004985719919,0.0043741087429225,0.0553374476730823,-0.6651613605439662,-9.777108848217129,-0.3688967330172658,50,standing
1783066209422440700,6.5158837,-0.1025078229900449,0.1632943731904029,-0.0355254868894815,0.0666924268007278,-0.0324264392256736,0.0156301483511924,-0.6729143127582967,-9.776911864340304,-0.3599671017063781,50,standing
1783066209442366700,6.5358097,-0.269200387251377,0.1134141977339982,0.0708060225745663,0.0335788503289222,0.0270601883530616,-0.0037736280355602,-0.6732173873580992,-9.77731109279096,-0.3483838506141677,50,standing
1783066209462293500,6.5557365,-0.1481496302243322,-0.0264502000302076,0.2083715322792529,-0.0139247085899114,0.0216451007872819,0.0109820403158664,-0.6733608874820173,-9.777356685498356,-0.3467860600287094,50,standing
1783066209482219800,6.5756628,0.0708913262378424,-0.0362999783933162,0.1100970360100269,-0.0480986796319484,0.0241240188479423,0.063539907336235,-0.680215648747608,-9.776634800964594,-0.3537067626699805,50,standing
1783066209502145800,6.5955888,0.0766842304255813,0.0817453862726688,0.0484018830647692,-0.0104030426591634,-0.0192899536341428,0.0470638908445835,-0.691844492547214,-9.775569802081584,-0.3605459975728765,50,standing
1783066209522071600,6.6155146,-0.0281892257172614,0.153463884049654,-0.036313422396779,0.0367233604192733,-0.0228297691792249,0.023753598332405,-0.699348803762719,-9.775161805802584,-0.3570838744202628,50,standing
1783066209541997600,6.6354406,-0.0822061356522142,0.0619452917814254,0.0247744123050943,0.033697210252285,-0.0115214558318257,0.0126482183113694,-0.7024933123335242,-9.77522084251344,-0.3491888103215023,50,standing
1783066209561924600,6.6553676,0.0207666745010763,-0.0057855976641178,0.0573748785933479,-0.0193868037313222,0.0289061795920133,0.0357001237571239,-0.7067055232010782,-9.77497826592922,-0.3475221557509154,50,standing
1783066209581851000,6.675294,0.0684736706368625,-0.0183896431714296,0.0664893284192308,-0.0235160440206527,-0.0103626474738121,0.034617144614458,-0.7143097876597195,-9.77419559111893,-0.3539430556438863,50,standing
1783066209601776600,6.6952196,-0.0722114689256995,0.0472124175518751,-0.1345674969324842,0.01353897806257,-0.0442817956209182,-0.0144484359771013,-0.7160795007459819,-9.774106743791698,-0.3528023246435448,50,standing
1783066209621702700,6.7151457,-0.2455408408530056,-0.0847317086070776,0.0433756158679723,0.0058282795362174,0.0348836258053779,-0.0189723037183284,-0.7125887360207737,-9.7744410903126,-0.3505816894520074,50,standing
1783066209641628700,6.7350717,-0.0207988232050091,-0.0042442134410142,-0.049991198082827,0.0227452274411916,0.0220080092549324,0.0421158298850059,-0.7139217381902039,-9.77442297013402,-0.3483445415170863,50,standing
1783066209661555700,6.7549987,0.0809868960555642,0.0994359412640333,-0.0905021452346816,0.0522936359047889,-0.0253246929496526,0.0448346994817256,-0.7241294631455093,-9.77395710618794,-0.3403042602613568,50,standing
1783066209681481500,6.7749245,-0.2793624464340508,0.157514620745182,0.0121627314805984,0.0400454364717006,0.023612268269062,0.0007241343846544,-0.7282971772842108,-9.773975226366518,-0.3307410802872851,50,standing
1783066209701407700,6.7948507,-0.2925920764937996,0.0872767169147729,0.158531104311347,0.0306263044476509,-0.0208749752491712,-0.0191544648259878,-0.7259910922989249,-9.77436627151072,-0.3241797124776989,50,standing
1783066209721333800,6.8147768,-0.0026375088967382,-0.019576807129383,0.0697609339684248,0.0007200702093541,0.0015496391570195,0.0153523795306682,-0.7259479107443243,-9.774503634154796,-0.3201047911889851,50,standing
1783066209741259500,6.8347025,-0.0680456544831395,0.0270136791318655,0.1826981253078207,-0.0543158948421478,0.0183399636298418,0.0155436545610427,-0.7286250940643251,-9.774109081879258,-0.3260509497096762,50,standing
1783066209761185500,6.8546285,-0.0523612516824156,0.1307569622009992,0.1236170273184776,-0.0499119460582733,0.0193403549492359,0.0342549681663513,-0.7329368928488343,-9.773404148480296,-0.3372994524221867,50,standing
1783066209781112600,6.8745556,0.0105944592505693,0.1408329505354165,-0.0373772522360086,0.0236506517976522,-0.0191500503569841,0.0315780118107795,-0.7406763279944658,-9.77270622934401,-0.3406071521980687,50,standing
1783066209801038800,6.8944818,-0.0763360015098005,0.183309571737051,-0.2198907416919246,0.0793355330824852,-0.0492528527975082,0.0038896137848496,-0.7442766905739903,-9.77283657772541,-0.3288307166213169,50,standing
1783066209820964600,6.9144076,-0.1410522923745215,0.1024246016860008,0.0383049250075593,0.0761696845293045,-0.0315887331962585,-0.012468134984374,-0.7430065975729375,-9.773502348157765,-0.3113933692060411,50,standing
1783066209840890600,6.9343336,-0.0787021461192518,-0.1093108540683984,0.1267301909029483,0.0044475756585597,0.067732498049736,0.027455324307084,-0.7443046014942228,-9.77365432384908,-0.3034521461443044,50,standing
1783066209860816600,6.9542596,0.0787973501220345,-0.0390343717932701,0.0725444272071123,-0.0300854668021202,0.0523784346878528,0.061843667179346,-0.7530644657287746,-9.772852944338322,-0.3076249931158498,50,standing
1783066209880743700,6.9741867,0.0487196803096681,0.0980827730894088,-0.0549257684081792,-0.0109143527224659,-0.0090818246826529,0.0407812371850013,-0.7638379348080605,-9.771854580950736,-0.3127333856381475,50,standing
1783066209900669700,6.9941127,-0.1300507866930216,0.1845861675441265,0.0023059388548135,0.0265038590878248,-0.0038210165221244,0.0137056782841682,-0.7683733862806111,-9.77156816522479,-0.3105590007411316,50,standing
1783066209920595700,7.0140387,-0.1149427224755287,0.0291799172550439,0.0380599738031625,0.0304145831614732,0.0081084724515676,0.0232856702059507,-0.7718095712743699,-9.771485747638344,-0.3045646191645413,50,standing
1783066209940521700,7.0339647,-0.0711316377997398,-0.0430406848251819,0.0673456895202398,0.0010119527578353,0.0225412081927061,0.0352904051542282,-0.7779120528679341,-9.771091195362803,-0.3016779760786332,50,standing
1783066209960447700,7.0538907,-0.161044110045582,0.0219984813183546,0.0990788166557438,-0.0076484084129333,-0.014702589251101,0.0175086744129657,-0.7836178632941097,-9.770588506537676,-0.3031839967274107,50,standing
1783066209980373500,7.0738165,-0.2030387929491698,0.0821498754203319,0.0407604649335145,0.007123164832592,-0.0194092188030481,0.0019913946744054,-0.7856169281568378,-9.770436530846355,-0.3029257111174054,50,standing
1783066210000300500,7.0937435,-0.1937636726688593,0.0970019921153783,0.0871563236718066,0.018059104681015,0.0071723880246281,0.0056066703982651,-0.7860632836848497,-9.770473940247296,-0.3005392726385966,50,standing
1783066210020226800,7.1136698,-0.0076569444939494,0.125889648425579,0.101994941564463,0.0312792621552944,-0.0089607639238238,0.0317138209939003,-0.789462570734322,-9.770333654993772,-0.2962244051141664,50,standing
1783066210040152800,7.1335958,0.0920920813072472,0.142568396025896,-0.0179407303601503,0.0249207224696874,-0.0487939082086086,0.0474710203707218,-0.798381571053341,-9.769802909117937,-0.2897140003068372,50,standing
1783066210060078600,7.1535216,-0.1328916361421346,0.1088227782905101,0.0151455101510509,-0.0055597922764718,-0.0641786456108093,0.0031959183979779,-0.8041390386015176,-9.769427646064758,-0.2864385953653603,50,standing
1783066210080004600,7.1734476,-0.2416748861398547,0.0609480974376201,0.082927253000997,-0.0513301007449626,-0.0500847622752189,-0.0266363583505153,-0.8021970376882701,-9.769436998414992,-0.2915220178431831,50,standing
1783066210099931600,7.1933746,-0.1098865350645035,0.0378179817408323,0.029789573585987,-0.0574416331946849,0.0068614385090768,0.005772260017693,-0.7993116915103048,-9.76934990465343,-0.3021299758961424,50,standing
1783066210119857700,7.2133007,0.011594576203823,0.0689578008919954,-0.0013560542514547,-0.0373978540301322,0.0552235767245292,0.0656087175011634,-0.8061701791029423,-9.768466692078112,-0.3122843266963958,50,standing
1783066210139783700,7.2332267,0.0244982622448354,0.1453431214362383,-0.1801373349091038,-0.0147184263914823,0.0746982395648956,0.0854826122522354,-0.8210190809275955,-9.767039874145388,-0.3181558490782976,50,standing
1783066210159709700,7.2531527,-0.1877862056944519,0.1990069070845842,-0.1248772565126419,0.041187085211277,0.0213573984801769,0.0467545203864574,-0.8340889173157513,-9.76593746586144,-0.318049612224847,50,standing
1783066210179635700,7.2730787,-0.2716892814576626,0.160097622975707,-0.2245574913939461,0.1154485940933227,-0.0058601694181561,0.0065892250277101,-0.8383224632322788,-9.76608242729008,-0.3020166699810884,50,standing
1783066210199561700,7.2930047,-0.2392583995826542,-0.0601759440213441,0.0483393940214999,0.1180964037775993,0.0162780974060297,-0.0093679931014776,-0.8378329992149025,-9.766824185568094,-0.2784818459409289,50,standing
1783066210219488800,7.3129318,-0.1407408883377909,-0.1690215186655521,0.1898550661240704,0.0566924251616001,0.0281378980726003,-0.0019370336085557,-0.8354946193952113,-9.767513336876034,-0.2607833633714355,50,standing
1783066210239415000,7.332858,-0.0421118795424699,-0.1166600477874278,0.3544107827534899,-0.0218293033540248,0.033724196255207,0.0167744494974613,-0.8367098404038698,-9.767503400003909,-0.2572959413807839,50,standing
1783066210259341000,7.352784,-0.0237101075418293,0.0429389780163764,0.2293780799508094,-0.0818002894520759,0.0141777200624346,0.0210067816078662,-0.840895820851624,-9.766839383137226,-0.268583132135868,50,standing
1783066210279266800,7.3727098,-0.1053945574074983,0.2180634897321462,0.220573974715732,-0.0634782016277313,-0.0595405399799346,-0.0078517878428101,-0.8421107495993375,-9.76629051708281,-0.2843193747216835,50,standing
1783066210299192800,7.3926358,-0.0770923728350549,0.1576747797429561,0.049967287484277,-0.0268625896424055,-0.0329337753355503,-0.0058420617133378,-0.8404852672893554,-9.766204007843136,-0.2919314206279814,50,standing
1783066210319120000,7.412563,-0.0497440549213439,0.08513736679852,0.0521300184761174,0.0020132367499172,-0.0331539511680603,-0.0095244385302066,-0.8394024404887109,-9.766240248200296,-0.2937949860101566,50,standing
1783066210339046000,7.432489,-0.0995342140067368,0.0677384882301092,-0.0820288611228577,-0.0174178965389728,-0.0024337009526789,-0.0055759204551577,-0.8376459522102028,-9.766349553793669,-0.2952075927544385,50,standing
1783066210358972000,7.452415,-0.0195260267902165,0.1539385158240795,-0.0981306856180541,-0.0120400972664356,-0.0248016864061355,0.0324651822447776,-0.8398427316021174,-9.766059046414494,-0.2985589307426475,50,standing
1783066210378898000,7.472341,0.0389567765124142,0.1004138463854789,-0.125529564675223,0.0297517590224742,-0.0383765548467636,0.0365712828934192,-0.8472990389574319,-9.76550608870685,-0.295550524440594,50,standing
1783066210398824000,7.492267,-0.1530165056083351,0.0431534975498914,0.0226566712324507,0.015997776761651,0.0135227069258689,0.0041794003918766,-0.8522489164497703,-9.765257666903734,-0.2894604822034947,50,standing
1783066210418749700,7.5121927,-0.3167790077671408,-0.0930798502355814,0.1773194096778519,-0.0269961580634117,0.0529003292322158,-0.0317071564495563,-0.8488977793909609,-9.765493813747169,-0.2913433550743386,50,standing
1783066210438676700,7.5321197,-0.1074412608042359,-0.0362152227193117,0.0446171403616666,-0.0237455423921346,0.0062079224735498,-0.0317632853984832,-0.8418597705129534,-9.765945649167897,-0.2966071025551297,50,standing
1783066210458603000,7.552046,-0.0817728588014841,0.0111842418372631,0.1127361523419618,-0.0279147252440452,0.010184571146965,-0.0400466583669185,-0.8350565933041274,-9.766358906143903,-0.3021776326964609,50,standing
1783066210478529000,7.571972,-0.0875535610947757,0.1608890656143426,0.1917997156521305,-0.0291339848190546,0.0834135711193084,-0.0626406148076057,-0.8249366927627474,-9.767025845620037,-0.3083671897852793,50,standing
1783066210498454800,7.5918978,-0.2257473222330212,0.1538262876212597,0.3717255632350221,-0.0143771963194012,0.1034276112914085,-0.0999495536088943,-0.8077996069356799,-9.768191382268071,-0.3166592903776094,50,standing
1783066210518380800,7.6118238,0.0274027515146881,0.1527484292566776,-0.0355470776667818,-0.0059538455680012,0.0351462103426456,-0.0460352897644043,-0.792649311011657,-9.769358087959883,-0.3189440403139219,50,standing
1783066210538307000,7.63175,-0.0113972270008176,-0.0550602084428071,-0.1763847043773159,-0.0116796353831887,-0.0407485701143741,-0.0341417379677295,-0.78572236129269,-9.769844994693994,-0.321160072395578,50,standing
1783066210558233900,7.6516769,-0.1364052702862769,-0.0254138427197933,-0.06521919888556,-0.0443712696433067,-0.0450090952217578,-0.0154854943975806,-0.7799755612690001,-9.770162974601984,-0.3254844749333336,50,standing
1783066210578159900,7.6716029,-0.1094414216455072,-0.1522808117449283,-0.1016167559018358,-0.0949252173304557,-0.0493977107107639,-0.0227783545851707,-0.7776102934423834,-9.76988883383572,-0.339066023703292,50,standing
1783066210598086000,7.691529,-0.1273180007282644,-0.0621416911363601,-0.0303109305789694,-0.054062508046627,-0.0899552851915359,-0.0245238561183214,-0.7737997221782803,-9.7696462572515,-0.3544076774809509,50,standing
1783066210618012000,7.711455,0.1586299615759402,0.1010878001242876,-0.2158849766492843,0.0327529609203338,-0.0605024769902229,0.0111976014450192,-0.7724434121984988,-9.769771929457782,-0.3539348723374307,50,standing
