time,seconds_elapsed,acc_x,acc_y,acc_z,gyr_x,gyr_y,gyr_z,grav_x,grav_y,grav_z,fs_hz,activity
1783066628141227300,0.0,0.9763238436035812,0.8104805165827274,-0.3064180650115013,-0.4008748233318329,-0.597787618637085,0.5729061961174011,-1.497062850818038,-9.02633315101266,-3.5290929945588108,50,walking
1783066628161152000,0.0199247,0.4581615550093352,0.5932850418567657,-0.092097561199963,-0.2442917227745056,-0.3116597533226013,0.6732407212257385,-1.6449370981670914,-8.983764175352453,-3.5716295292541385,50,walking
1783066628181077200,0.0398499,0.0516954081848263,0.8938678248435258,-0.1228404899880289,-0.1537478119134903,-0.2028507143259048,0.6081767082214355,-1.776119007781893,-8.947512712275982,-3.5996935942217707,50,walking
1783066628201001200,0.0597739,0.2645075532600283,0.6747212160497903,-0.7704469046190381,-0.0495064184069633,-0.3397744297981262,0.5923371315002441,-1.9007944581121208,-8.918704550942778,-3.6075004685804246,50,walking
1783066628220926200,0.0796989,0.4524979762896895,0.5196797074198722,-0.8908823792919516,-0.0073258010670542,-0.4979850351810455,0.6305802464485168,-2.038806506007909,-8.892952270048855,-3.5957021864980456,50,walking
1783066628240850200,0.0996229,0.257203806117922,0.1853039604246616,-1.211414309851825,-0.0190847683697938,-0.5477549433708191,0.6566358804702759,-2.192616427016258,-8.864882944384217,-3.5744451711967584,50,walking
1783066628260775200,0.1195479,-0.4403261847198009,-0.4302811760455369,-0.5974047521352768,-0.0151306791231036,-0.0991519540548324,0.6287418603897095,-2.332608250552416,-8.834381423136591,-3.561323531556129,50,walking
1783066628280699100,0.1394718,-0.5165883172757924,-0.953376244866848,-0.9964946711033582,-0.0937655791640281,0.1587217301130294,0.4941923022270202,-2.4267833486787973,-8.804192621099949,-3.5731378879904745,50,walking
1783066628300624100,0.1593968,-0.5858402788087725,-1.7281114943295717,-1.3357880007565022,-0.2036656737327575,0.3181964159011841,0.4024590253829956,-2.489212478454411,-8.770911698266863,-3.611829729956389,50,walking
1783066628320548400,0.1793211,-0.1736912640422582,-2.306575983673334,-1.6169740093559026,-0.2308982163667678,0.3633593618869781,0.2552359998226166,-2.5194863284260034,-8.738175549834967,-3.6697225314766166,50,walking
1783066628340473000,0.1992457,0.2218658046245575,-2.549564071303606,-1.694924971781671,-0.2289444208145141,0.4092521369457245,0.236283004283905,-2.532419752018153,-8.710066476681828,-3.7271930159315465,50,walking
1783066628360397000,0.2191697,0.5270347463577986,-2.240915470761061,-1.4331307691335675,-0.2794855237007141,0.6276893615722656,0.4120895564556122,-2.5489377560988067,-8.674697641658783,-3.797750360974669,50,walking
1783066628380322300,0.239095,0.464643756635487,-1.258157064065337,-0.7837789721399545,-0.0523684322834014,0.8332997560501099,0.5529504418373108,-2.578274909742176,-8.63348709487021,-3.871147897879779,50,walking
1783066628400247000,0.2590197,-0.1526788711518049,0.3657634034276008,-1.2243307823091745,0.3925022482872009,0.7485284209251404,0.3666865825653076,-2.597510648348927,-8.622616741287707,-3.882500774282217,50,walking
1783066628420171300,0.278944,0.1902747345745563,0.8606412625461817,-1.275059683549404,0.7822295427322388,0.8227924704551697,0.2573783993721008,-2.590911103953421,-8.652422096964717,-3.8201013089925047,50,walking
1783066628440096300,0.298869,0.4188815378919243,0.7553530881226063,-0.885036868134141,1.0432184934616089,0.9629335403442384,0.3127977848052978,-2.570669987696409,-8.707842370891571,-3.706143505901098,50,walking
1783066628460020200,0.3187929,0.4344575849473476,0.6172603762060404,-0.7148796234369278,1.0831215381622314,0.9710379242897034,0.3966502845287323,-2.563651048845053,-8.767571740189194,-3.5675989585638046,50,walking
1783066628479945200,0.3387179,0.2945113541185856,0.4096715187370777,-0.2285062655523419,0.9828659296035768,1.09449303150177,0.3651688694953918,-2.5612214836105704,-8.820052453532815,-3.437615026561916,50,walking
1783066628499869200,0.3586419,0.0155336692184209,0.3276256882131099,0.0924193405002355,0.8672575950622559,1.128741979598999,0.2129760384559631,-2.536029466947913,-8.867144459575414,-3.333569545675814,50,walking
1783066628519794200,0.3785669,0.5148690922677517,0.4003577469468116,-0.263950503899157,0.768232524394989,0.8560887575149536,0.0942616835236549,-2.4954727078929544,-8.913990381902456,-3.2378689915478227,50,walking
1783066628539718100,0.3984908,1.0468173296302556,0.2491167996436357,-0.2429384032696485,0.6502520442008972,0.632202684879303,0.1914477497339248,-2.4719658678382634,-8.952488747122883,-3.14844824834168,50,walking
1783066628559643400,0.4184161,1.160128943772614,-0.0976250924497842,0.079693422178924,0.5603758692741394,0.6901911497116089,0.3495646715164184,-2.480530574826896,-8.976697305706143,-3.071846946959197,50,walking
1783066628579568000,0.4383407,0.7938119981154799,-0.3213227886766195,0.2829614938393235,0.4671715497970581,0.7705225348472595,0.4010033905506134,-2.5059651680737733,-8.988229922589658,-3.016989859873056,50,walking
1783066628599492400,0.4582651,0.7149775308534503,-0.042270284974575,0.0308761997789144,0.3667073547840118,0.6011002659797668,0.312787264585495,-2.527538117456436,-8.99554170690775,-2.97694134260118,50,walking
1783066628619417000,0.4781897,0.9332315747216344,-0.2668441795140505,-0.219104523217678,0.2720399796962738,0.3917148411273956,0.2691694796085357,-2.5503651585534213,-8.999763708516955,-2.944533110949397,50,walking
1783066628639341000,0.4981137,1.0411386994719505,-0.3630132279366254,-0.4363417912587523,0.1050338670611381,0.2766092717647552,0.2995046377182007,-2.5815084848359224,-8.997119331488014,-2.9254171993300315,50,walking
1783066628659266300,0.518039,0.9851225054785608,-0.2952349922180176,0.0347241073787212,-0.1043440923094749,0.3993277847766876,0.344196617603302,-2.6214097025915977,-8.979902239227295,-2.942781591106951,50,walking
1783066628679190300,0.537963,1.0175526567012072,-0.1658218458414077,-0.0992968250542879,-0.2302972823381424,0.4165761768817901,0.268218994140625,-2.6523434777766464,-8.95264481446743,-2.997603022357821,50,walking
1783066628699115300,0.557888,1.0463105491518974,-0.2081944221466779,-0.6661100395709276,-0.1949137598276138,0.3146271109580993,0.1310383528470993,-2.66613760985136,-8.92867766342461,-3.056274991557002,50,walking
1783066628719039200,0.5778119,0.9777788647174834,-0.1924707833141088,-0.7509113062828778,-0.0984109565615654,0.308264285326004,0.026466216892004,-2.660902631807327,-8.915670882335304,-3.0985160504370928,50,walking
1783066628738964200,0.5977369,1.08737321190238,-0.0770218648821115,-0.7613660648018121,-0.0243119075894355,0.3127486407756805,-0.0203931666910648,-2.6421079149663447,-8.912008268174528,-3.1250217800468203,50,walking
1783066628758888200,0.6176609,1.1399743367552757,-0.0722889911413192,-0.7718857052505016,0.0603159926831722,0.3580813705921173,-0.0990930646657943,-2.6106127065062523,-8.915992953896522,-3.140089877580106,50,walking
1783066628778813200,0.6375859,0.9449737427026031,-0.0941460181623697,-0.8935083438813686,0.1866499930620193,0.344245970249176,-0.1758952587842941,-2.5640526153832672,-8.930797139796613,-3.1363819629728797,50,walking
1783066628798738200,0.6575109,0.807070123617351,-0.2879471732974052,-1.1141390537530182,0.2419247031211853,0.2567603290081024,-0.2756985425949096,-2.5057562014982104,-8.955915798962115,-3.111776806287468,50,walking
1783066628818662100,0.6774348,0.6717280255831778,-0.2321697564959526,-0.8574883514732122,0.2816187739372253,0.3101591169834137,-0.3435701131820678,-2.4338604474581778,-8.986853373539446,-3.0794770034462213,50,walking
1783066628838587400,0.6973601,0.4059872772663832,-0.1238356385052204,-0.6917331411272287,0.3778699934482574,0.3179960250854492,-0.413091242313385,-2.346038371620327,-9.02485606419742,-3.036188189078868,50,walking
1783066628858510800,0.7172835,0.4898858960501849,0.0308615867316722,-0.97379417899549,0.4874146282672882,0.137577086687088,-0.3700031340122223,-2.258303097283095,-9.069870679444074,-2.967809941640496,50,walking
1783066628878435600,0.7372083,0.555278405676037,-0.3199170135319232,-0.9310761502534152,0.4301736950874328,0.1204278096556663,-0.1238839924335479,-2.205481899938732,-9.108748399370908,-2.887376222488284,50,walking
1783066628898359600,0.7571323,0.1569642933860421,-0.8250275128513574,-0.6358978566586971,0.3551331758499145,0.0831245779991149,0.0141686862334609,-2.1938313557639715,-9.131858641323449,-2.8225270259588955,50,walking
1783066628918284500,0.7770572,-0.9078077951297164,-0.8451035016745329,-0.7640671404540539,0.2527801096439361,-0.0330963060259819,-0.136883795261383,-2.1847524156428872,-9.151436617496609,-2.7655843647703526,50,walking
1783066628938208500,0.7969812,-1.7537226131871342,-0.5835153429925442,-0.1231067397087812,-0.0171367041766643,0.1330824792385101,-0.3575450181961059,-2.1370047221705315,-9.169564394861458,-2.742752355237305,50,walking
1783066628958133800,0.8169065,-1.4873188709169625,-0.4618535413950681,-0.0531900306567549,-0.3665010035037994,0.2809410691261291,-0.3917552530765533,-2.0528078510925174,-9.174659087651968,-2.789625457832217,50,walking
1783066628978058500,0.8368312,-0.9326825625367462,-0.4981827458828687,-0.3614095921322703,-0.4530561566352844,0.3253120481967926,-0.3247114717960357,-1.9707357170835136,-9.164664932382106,-2.8801892335936428,50,walking
1783066628997982500,0.8567552,-1.13007706598863,-0.0152092595696449,-0.2348319614425301,-0.4097807109355926,0.4967623651027679,-0.3272394835948944,-1.8884129693143068,-9.151591515797376,-2.9753438442766664,50,walking
1783066629017907700,0.8766804,-1.2527622192844747,0.4167097468107938,-0.117215635843575,-0.2903144061565399,0.579055666923523,-0.3520675301551819,-1.7931110591150818,-9.142526750332117,-3.060937430410087,50,walking
1783066629037831400,0.8966041,-1.2537339869260786,0.4360515761405229,-0.0955041547730565,-0.0930355489253997,0.5623316168785095,-0.3855467438697815,-1.691283546539396,-9.142864603984355,-3.117364835552871,50,walking
1783066629057756700,0.9165294,-1.39806895423308,0.6286380947887897,-0.0177487149193882,0.0934300348162651,0.464758813381195,-0.4662418663501739,-1.58166450330466,-9.15753201176226,-3.131822984494269,50,walking
1783066629077680600,0.9364533,-1.513798150911182,0.5263227986961603,0.5842828202337026,0.0560268461704254,0.5136563777923584,-0.4476045668125152,-1.4662347279645502,-9.17732158485949,-3.130067372998595,50,walking
1783066629097605600,0.9563783,-1.5607409577414393,0.326776962429285,0.750627520905435,-0.0893170088529586,0.5078214406967163,-0.349117249250412,-1.360334559122473,-9.188165050435066,-3.146026281891763,50,walking
1783066629117529600,0.9763023,-1.7124274568550288,0.1303290921777486,0.7432166601270437,-0.23493093252182,0.3359628915786743,-0.2750584781169891,-1.2770325910575686,-9.185499046096206,-3.1884450354263185,50,walking
1783066629137454600,0.9962273,-1.9427698517933487,0.3124439011722802,0.2152902256265282,-0.2952518165111542,0.0155326845124363,-0.2877486944198608,-1.2156311968944966,-9.175181065699457,-3.2417110539287326,50,walking
1783066629157379600,1.0161523,-2.107367854928225,0.4911357499808073,0.5213137383624911,-0.350949227809906,0.0336401127278804,-0.1854224801063537,-1.1695462490025907,-9.160241855242848,-3.300383315388858,50,walking
1783066629177303600,1.0360763,-2.050385884642601,0.2751134106874466,0.507203087684512,-0.4457795023918152,0.0530945062637329,0.0153354173526167,-1.1503624597787856,-9.136053754925728,-3.3733614578381177,50,walking
1783066629197228500,1.0560012,-2.028717658191919,0.0958230114638805,0.4062500198557973,-0.438046783208847,-0.0548031330108642,0.1336818039417266,-1.1670928645011036,-9.102810826015473,-3.456463227155804,50,walking
1783066629217152500,1.0759252,-2.49548089119941,0.0435889663577079,0.5420388387441635,-0.1937651932239532,-0.001344102085568,0.0317802317440509,-1.1873996664054691,-9.077660018146036,-3.515188095586001,50,walking
1783066629237077800,1.0958505,-2.3980083589628336,0.0026513912916183,0.7764230564191937,0.1238855496048927,0.112822487950325,-0.0699284970760345,-1.1780311687532812,-9.076076548346876,-3.5224227230146523,50,walking
1783066629257001700,1.1157744,-1.4537503633141518,-0.5673462984800338,0.9159989926308392,0.3841965198516845,0.1398307383060455,-0.087330512702465,-1.1542834326148033,-9.09580123951435,-3.47914121517092,50,walking
1783066629276926500,1.1356992,-0.5098970029436052,-0.6635656157851219,0.8632225112110375,0.5287901759147644,0.0374920442700386,-0.1109731346368789,-1.1296822214521467,-9.129916275084016,-3.396886125810444,50,walking
1783066629296850700,1.1556234,-0.243788371162489,-0.178887663641572,1.2784072404116391,0.5800062417984009,-0.0146214282140135,-0.1044220551848411,-1.1095341172408313,-9.169721631249784,-3.294773658813536,50,walking
1783066629316775700,1.1755484,-0.0166613580740988,0.4707371050745249,1.2286167890653013,0.5076223015785217,-0.1253125816583633,-0.1167948096990585,-1.0934999511543662,-9.20822584168911,-3.191113962374627,50,walking
1783066629336699600,1.1954723,0.0271663124103099,0.925333807209134,1.3994699070721863,0.2599138021469116,-0.1487944722175598,-0.0445674546062946,-1.086450909425691,-9.23470994398892,-3.1161127896651624,50,walking
1783066629356624600,1.2153973,0.0334906200610101,1.406710379719734,1.3892062872111797,0.0172652378678321,-0.1491962820291519,0.0079446397721767,-1.0936730426989496,-9.2430820510149,-3.088640260849893,50,walking
1783066629376549600,1.2353223,0.1914099491495638,1.6225690528839825,1.248123745828867,-0.0767166316509246,-0.1969146728515625,0.0155813749879598,-1.106294331602007,-9.240170547482371,-3.092856124979257,50,walking
1783066629396473600,1.2552463,0.3429861197564751,1.6013976700395345,0.9385188674747944,-0.1050295755267143,-0.2959011495113373,0.0493322610855102,-1.1269374527886509,-9.23411256261766,-3.103475718671083,50,walking
1783066629416398600,1.2751713,0.3959951678231358,1.3037632154643537,0.9307248525977134,-0.2156043201684951,-0.3475485742092132,0.1347921043634414,-1.1633367268379775,-9.22273484403491,-3.1238138655617838,50,walking
1783066629436322800,1.2950955,0.5960193621914833,1.0790367607116698,1.0387550192058086,-0.3668714761734009,-0.2847391963005066,0.2870230972766876,-1.222551936068386,-9.19927096633911,-3.17004340955615,50,walking
1783066629456247600,1.3150203,0.7280814887069166,0.6504015983074903,0.955757879306376,-0.4409762024879455,-0.1632899343967437,0.4143155515193939,-1.3019415529951452,-9.163732619968057,-3.2405741588532924,50,walking
1783066629476171800,1.3349445,0.6605773937545716,0.324274039697647,0.7337742935210466,-0.2762808501720428,-0.2724440991878509,0.3384486734867096,-1.3869184685349465,-9.128352094507218,-3.30454832611382,50,walking
1783066629496096500,1.3548692,0.6615104368209839,0.2959288197010755,0.4905681792259216,-0.0088982554152607,-0.4486749172210693,0.1748829782009124,-1.4580314016342162,-9.111678607603906,-3.319915698854625,50,walking
1783066629516020500,1.3747932,0.5788853451043368,-0.0198550395488739,0.6184031165003776,0.2367936670780182,-0.4014801681041717,0.0417634434998035,-1.5058903003960846,-9.116568133211135,-3.2849455077603458,50,walking
1783066629535945700,1.3947184,0.7607463254682719,-0.2735164968848228,0.7494827347844839,0.375220388174057,-0.2955793142318725,0.0096201263368129,-1.5309310720197855,-9.136444215548035,-3.2174557335942984,50,walking
1783066629555870500,1.4146432,0.9786810742542148,-0.6882745251059532,0.7475751475974917,0.4419029653072357,-0.3025779128074646,-0.0599009543657302,-1.54670571038723,-9.163118287461996,-3.13294848139286,50,walking
1783066629575794700,1.4345674,0.9137273944370448,-0.7280120767325162,0.91521456425488,0.4455241560935974,-0.2976248562335968,-0.1502133309841156,-1.5457966327182948,-9.194008515766262,-3.041564913681149,50,walking
1783066629595719700,1.4544924,0.9212947609513996,-0.947215968671441,1.0139791821286082,0.3957270085811615,-0.2150711715221405,-0.1679979860782623,-1.5316665466874837,-9.223952403131127,-2.95687412160635,50,walking
1783066629615643400,1.4744161,0.8170207320064306,-1.0678343986958263,0.7935176913440227,0.2856436371803283,-0.1780598908662796,-0.1851202547550201,-1.5111895758479832,-9.249678380540011,-2.8861992876634,50,walking
1783066629635568600,1.4943413,0.6654767101034522,-0.9494570255964994,0.6692036216720938,0.1001521125435829,-0.174853041768074,-0.2211967557668686,-1.4832459223896264,-9.26660087376833,-2.846131188908219,50,walking
1783066629655492600,1.5142653,0.6940015244506299,-0.7410416541755199,0.1751204200625419,0.0190796311944723,-0.1993477344512939,-0.2152014374732971,-1.4522154088318346,-9.27599881671071,-2.831487162005901,50,walking
1783066629675417600,1.5341903,0.6596586714744568,-0.8572048583567142,-0.1668152407929301,0.0820631608366966,-0.1729563325643539,-0.1085706651210784,-1.4326863863669337,-9.283136413505671,-2.81800574914217,50,walking
1783066629695341600,1.5541143,0.4938144676707685,-1.0033873532265425,-0.435221555057168,0.1867844462394714,-0.2030439376831054,-0.0676087066531181,-1.4283011570200324,-9.29287688627541,-2.7879727221891284,50,walking
1783066629715266800,1.5740395,0.1278174016177654,-1.0949608905524015,-0.4660740816995501,0.2107501029968261,-0.2050990909337997,-0.0352361463010311,-1.4284673073671756,-9.305899449455737,-2.7441011394977566,50,walking
1783066629735191600,1.5939643,0.0388217519558966,-1.3644547077924012,-0.5799047512799501,0.1718887835741043,-0.2174160778522491,0.1114928424358367,-1.445714502505213,-9.3154797632277,-2.702246157325804,50,walking
1783066629755115500,1.6138882,-0.2981532177522778,-2.127546281212568,-1.28900842166394,0.1128734946250915,-0.4143526554107666,0.1979296505451202,-1.4940562163479625,-9.317934170642497,-2.6672598918795583,50,walking
1783066629775040500,1.6338132,-1.4881046144671737,-2.2200129679858684,-1.3372647953107952,0.1418599486351013,-0.2987887859344482,0.102894589304924,-1.5446008470624684,-9.319292014992236,-2.63351895031929,50,walking
1783066629794964500,1.6537372,-2.342089780125022,-1.8717022191405293,-0.9346434873461724,0.2371418327093124,-0.1458199173212051,-0.1032748520374298,-1.5561194354206322,-9.328672422277927,-2.5932129511550066,50,walking
1783066629814889700,1.6736624,-2.4925994905442,-0.5070762464344502,-0.6205842599317432,0.3784059584140777,-0.0070905406028032,-0.3146503865718841,-1.5211299551039934,-9.35075098309517,-2.533776427324116,50,walking
1783066629834813700,1.6935864,-1.9126295650735496,1.1588333510041235,-0.2407251111343502,0.5135588645935059,0.0369285158812999,-0.3494199812412262,-1.4540670280478891,-9.38351577309966,-2.4506572684802115,50,walking
1783066629854738200,1.7135109,-0.8016301245205104,1.9952000039935112,-0.5613029266625642,0.5972362160682678,-0.0729324668645858,-0.1041708290576934,-1.4085172830112278,-9.417225150477886,-2.345706947708875,50,walking
1783066629874662400,1.7334351,-0.5142093131847679,1.7737988942712544,-0.94262557214126,0.5751399993896484,-0.0705633908510208,0.1168507412075996,-1.4171630924120544,-9.44407224087119,-2.2296914814352986,50,walking
1783066629894587400,1.7533601,-1.2894598186932504,1.786330459064245,-0.4794628478437662,0.3772009015083313,0.1033105328679084,0.0990810021758079,-1.4396307986773549,-9.461692068713903,-2.13874615901038,50,walking
1783066629914512400,1.7732851,-1.624976844678074,1.6012614764392374,-0.2766629782170057,0.1343877166509628,0.2704689800739288,0.0447740294039249,-1.4442398999080062,-9.47055342056155,-2.095990574736893,50,walking
1783066629934436400,1.7932091,-1.1443328242257236,1.2490367690205573,-0.5461109104886651,-0.0401617214083671,0.2757536768913269,0.1181463077664375,-1.4454450379140675,-9.4701255505383,-2.09708743006289,50,walking
1783066629954361300,1.813134,-0.7079224977754056,0.8518477152377366,-0.9794891757667064,-0.0812928974628448,0.1922440081834793,0.2604891657829284,-1.471549347116053,-9.46154652276337,-2.11756016311869,50,walking
1783066629974285300,1.833058,-0.9727836867786944,0.7837485770016909,-1.082214221704006,0.001406401162967,0.2285170555114746,0.3283595442771911,-1.5201787918590008,-9.450608949163556,-2.132001799316704,50,walking
1783066629994210300,1.852983,-1.3826817077480256,0.6937181774646043,-0.8176946857452392,0.1225845068693161,0.2603717744350433,0.296927660703659,-1.5701172733739015,-9.44332814450562,-2.128070889608562,50,walking
1783066630014134500,1.8729072,-1.352847125976533,0.3721200789779424,-0.8476935181677341,0.1697902232408523,0.1621437668800354,0.2164251208305359,-1.6098277908630667,-9.441655242857337,-2.105704159499705,50,walking
1783066630034059300,1.892832,-1.065137560827285,0.2391623918622732,-0.4167193914219737,0.0655964389443397,0.1815883070230484,0.1937746703624725,-1.6407593740910291,-9.44067909130156,-2.086119022933393,50,walking
1783066630053983200,1.9127559,-0.7094649049118161,0.2737573199033737,0.0833149736769497,-0.1097386479377746,0.2039656341075897,0.1857595294713974,-1.6678274137586355,-9.433523374328017,-2.096987622950226,50,walking
1783066630073908200,1.9326809,-0.3441236724190413,0.4301964203715324,0.0974330770090222,-0.2393817603588104,0.1968836337327957,0.1976989507675171,-1.6952869369618593,-9.419674297195671,-2.136843832520396,50,walking
1783066630093833200,1.9526059,-0.0204280171312391,0.5845534538686276,0.0611561872303485,-0.3218404054641723,0.1745640784502029,0.2185534536838531,-1.7267407904982566,-9.4001536041677,-2.196783921959251,50,walking
1783066630113757400,1.9725301,0.2520095984756946,0.745709645986557,0.0613299363620579,-0.3599078357219696,0.1118316575884819,0.2239455282688141,-1.7615534529432653,-9.377105321535469,-2.266539302969724,50,walking
1783066630133682200,1.9924549,0.4701506834886967,0.9353495897889136,0.2092947846040129,-0.3758464455604553,0.1099043861031532,0.264491319656372,-1.8016259356126187,-9.351565806609392,-2.3393856357328597,50,walking
1783066630153606400,2.0123791,0.6399192211292684,0.8824883526951074,0.3634434360474348,-0.3709775805473327,0.1543927639722824,0.3262200355529785,-1.8522830867908893,-9.322797392764686,-2.413478899817169,50,walking
1783066630173531400,2.0323041,0.5269776093430817,0.8240209661573171,0.4095017151281237,-0.3480070829391479,0.2479597181081771,0.3015019595623016,-1.9016982750840483,-9.29305984162688,-2.488566874027252,50,walking
1783066630193455000,2.0522277,0.5359180177763104,0.7975316031605004,0.2530994395390152,-0.2863960862159729,0.2155632376670837,0.2501213848590851,-1.9404165666654705,-9.266420841026306,-2.5570693323671816,50,walking
1783066630213380400,2.0721531,0.6298787424996495,0.6530716942995787,0.2611290167376399,-0.1751291751861572,0.2085472792387008,0.2015895694494247,-1.971529351679236,-9.24541195526719,-2.6087930898636578,50,walking
1783066630233304300,2.092077,0.8351319966278969,0.7365326523184775,0.3023088761270046,-0.0411483384668827,0.1470118761062622,0.1344764232635498,-1.9924292241059245,-9.233404706609248,-2.635309048606455,50,walking
1783066630253229300,2.112002,0.8824025741077959,0.5691594853818416,0.4008744642972946,0.041799146682024,0.1114694625139236,0.0791371539235115,-2.005881703136116,-9.229435802978276,-2.639004103732109,50,walking
1783066630273154300,2.131927,0.8184384898498653,0.4208458237022161,0.6273369490623474,0.0282519944012165,0.1745498329401016,0.0353147201240062,-2.0089552653625606,-9.22926336902082,-2.637269242763519,50,walking
1783066630293078500,2.1518512,0.8095772841326891,0.1908686088144779,0.6063555358320474,0.0057183327153325,0.1562577188014984,-0.0109066627919673,-2.001740073286742,-9.22972806392312,-2.641127964018285,50,walking
1783066630313003300,2.171776,0.8692135683193802,-0.1159966154426336,0.3548872046262025,-0.0275948345661163,0.1344298422336578,-0.0109365200623869,-1.9910465375758704,-9.229919202581048,-2.648532687316835,50,walking
1783066630332927200,2.1916999,0.9749886494770644,-0.4467126708865165,0.1810933569923043,-0.0431327894330024,0.0713593214750289,0.0264342594891786,-1.9874362381242212,-9.22735724313855,-2.660139538480341,50,walking
1783066630352852200,2.2116249,0.6856698955655097,-0.6643155573695898,0.0426882181257009,-0.0368600003421306,0.0902822837233543,0.0037182052619755,-1.987517194405943,-9.22448548709452,-2.6700252649396656,50,walking
1783066630372776200,2.2315489,0.1756831685118377,-0.7366442959994077,0.184978673993051,-0.0078121311962604,0.2057755291461944,-0.0734238624572753,-1.9737286152891813,-9.22428148895502,-2.6809336124449965,50,walking
1783066630392701400,2.2514741,-0.1135956917807459,-1.0643635077148674,-0.082304481460154,0.0454313233494758,0.2820789515972137,-0.190320685505867,-1.938085347238928,-9.230104496020076,-2.6868890137180683,50,walking
1783066630412625400,2.2713981,-0.3785872291654348,-1.3097037114292382,-0.2651604642108082,0.1217819526791572,0.3507024049758911,-0.3621979653835296,-1.869567837460339,-9.24483444764018,-2.6847949640482662,50,walking
1783066630432550400,2.2913231,-0.2582191206403076,-1.4330805002510547,-0.6928288274094462,0.2208476215600967,0.2028485089540481,-0.4640038311481476,-1.7759546110004183,-9.26945100250244,-2.663392987318337,50,walking
1783066630452475400,2.3112481,0.1444895733468234,-1.6128753418654205,-0.8678454948365688,0.2855832278728485,0.0532018318772316,-0.4493728280067444,-1.6847094288460909,-9.298997999504207,-2.619309515441954,50,walking
1783066630472399400,2.3311721,-0.0675708765782415,-1.6486346375107763,-0.744116823837161,0.3445554077625274,-0.0621233657002449,-0.4313937127590179,-1.6040307950221002,-9.329228887116908,-2.561827048288285,50,walking
1783066630492324400,2.3510971,-0.4918925596974789,-1.7385615766733884,-0.850226251515746,0.3798709809780121,-0.2697722911834717,-0.5018694996833801,-1.525670959534496,-9.362601579886674,-2.486841657669842,50,walking
1783066630512248300,2.371021,-1.0081436078429222,-1.8746505475521087,-0.4892074122667312,0.2623698711395263,-0.326528787612915,-0.5331138968467712,-1.4441174425721168,-9.39410847878456,-2.4157079740434884,50,walking
1783066630532173300,2.390946,-1.4276727959886193,-1.829070699638128,-0.226807060419023,0.0924451127648353,-0.3358041048049927,-0.5698971152305603,-1.3572325014539062,-9.417540792298317,-2.3744930433407423,50,walking
1783066630552097300,2.41087,-1.4726082085192205,-1.1221885046958924,-0.3594451601915061,-0.040858868509531,-0.4757546186447143,-0.5786356329917908,-1.2666576197765766,-9.434145305618642,-2.358572420631349,50,walking
1783066630572022500,2.4307952,-1.157637784544006,-0.2874637736946344,-0.1516518661916255,-0.1576056182384491,-0.6197003126144409,-0.4478880167007446,-1.1952638969745486,-9.441973222765323,-2.3645041487678884,50,walking
1783066630591946200,2.4507189,-0.9564861935809256,0.5632359405517577,-0.1593310225173831,-0.2553111314773559,-0.7094712257385254,-0.2853187322616577,-1.158043004344031,-9.440787227851152,-2.387651361729949,50,walking
1783066630611871200,2.4706439,-1.462573721238971,0.6047364101976156,-0.1171000466398894,-0.3637945652008056,-0.6993530988693237,-0.174839437007904,-1.151146157502383,-9.430810608237982,-2.4300310984283686,50,walking
1783066630631796500,2.4905692,-2.287078379260004,0.8049667215973139,0.0379085826337337,-0.3265360593795776,-0.5482237339019775,-0.2509813606739044,-1.145608397119492,-9.417209368386864,-2.484782971574366,50,walking
1783066630651720200,2.5104929,-2.8134745354533197,1.4293950897365808,-0.0557025979995727,-0.0927674546837806,-0.4882197976112366,-0.5036820769309998,-1.1005961199603975,-9.414656176772713,-2.5146225217819214,50,walking
1783066630671645400,2.5304181,-2.800726113039255,1.6969430336058138,-0.1933952046826481,0.1986708045005798,-0.4533880054950714,-0.6533737182617188,-1.014882999100536,-9.429615260973572,-2.4945447793930766,50,walking
1783066630691569400,2.5503421,-2.4363801751941443,1.7634481806486844,-0.1351617730312049,0.4379405379295349,-0.485451877117157,-0.694735586643219,-0.908169833375141,-9.458711007076502,-2.4245392230138183,50,walking
1783066630711494100,2.5702668,-1.9175769583478568,1.760071397691965,0.1400362471997737,0.6095457673072815,-0.5716093182563782,-0.5816477537155151,-0.810615906465426,-9.49468949843049,-2.316066427204758,50,walking
1783066630731418400,2.5901911,-1.515043328666687,1.725432630509138,0.228319510808587,0.6857779026031494,-0.7560098171234131,-0.3749299645423889,-0.7489736162185668,-9.531577505844831,-2.1813898073419926,50,walking
1783066630751343400,2.6101161,-1.523334771671891,1.268694240170717,0.6066185706824064,0.5991041660308838,-0.8926855325698853,-0.2007228434085846,-0.729758701204136,-9.563555529385804,-2.0435887718483805,50,walking
1783066630771267300,2.63004,-1.6434237709946928,0.6651707128942013,0.95932141700685,0.2645458579063415,-1.011711359024048,-0.0550774671137332,-0.7435953572463244,-9.583122984164952,-1.9445351079002025,50,walking
1783066630791192300,2.649965,-1.8113602709025145,0.110061380174756,1.070869236347079,-0.2258809208869934,-1.180065631866455,-0.0153064988553524,-0.7809616496969014,-9.584815175035596,-1.9214095222480596,50,walking
1783066630811116300,2.669889,-2.10525130116567,-0.2562380298256874,1.243164369855821,-0.7933744788169861,-1.109323024749756,-0.0320410653948783,-0.8218099390443414,-9.565077624386548,-2.001078832899034,50,walking
1783066630831041300,2.689814,-1.9158596330359576,0.1574760423004627,1.3919178842574358,-1.1335707902908323,-0.9643619656562804,-0.0877448320388794,-0.8533337890770286,-9.52508931286931,-2.171380162242055,50,walking
1783066630850966500,2.7097392,-1.4266554356396195,0.4164952272772789,0.9195756820738316,-1.2002038955688477,-0.936884343624115,-0.1533710956573486,-0.8734240986865013,-9.473011919629574,-2.3810861579954623,50,walking
1783066630870890500,2.7296632,-0.9417950396012514,0.9041337827920912,0.5726271614924073,-0.9627059698104858,-1.0296977758407593,-0.2621670365333557,-0.8828858275800943,-9.42255306750238,-2.5702885871633887,50,walking
1783066630890815200,2.7495879,-0.5593220550436526,1.0693190842956304,0.4405661309555173,-0.631373941898346,-1.0399749279022217,-0.2849896848201751,-0.8854289361916482,-9.386026879137754,-2.6997946725204587,50,walking
1783066630910739500,2.7695122,-0.1849816696677357,1.0029565605938433,0.6167337219834327,-0.3580227196216583,-0.9231000542640686,-0.2364727854728698,-0.889715600534901,-9.363808033066988,-2.774507968199253,50,walking
1783066630930664200,2.7894369,0.3557221941456198,0.8681067761212586,0.6356356985911726,-0.1928642690181732,-1.0396534204483032,-0.1439099758863449,-0.9078850250843912,-9.35241044073999,-2.806877329145372,50,walking
1783066630950588400,2.8093611,0.5352197333138435,0.3653308572292327,0.6564332796871661,-0.1355006545782089,-1.129736065864563,-0.0222814362496137,-0.9542050969064236,-9.345233096456528,-2.815404626733065,50,walking
1783066630970513400,2.8292861,0.3122283587254583,0.14438859719038,1.017685343170166,-0.2032689452171325,-1.13706636428833,0.0204614978283643,-1.01986458690539,-9.336028045737743,-2.8229136871889238,50,walking
1783066630990437400,2.8492101,-0.0564008093968033,-0.0775695618927478,1.240652387034893,-0.3399909138679504,-1.147464156150818,-0.0244533624500036,-1.0845859192714091,-9.32071941744685,-2.849256627452373,50,walking
1783066631010362400,2.8691351,-0.1808151245728135,-0.3918254809230566,1.2419158310994505,-0.4952555894851684,-1.0777308940887451,-0.0959883853793144,-1.1383897709775714,-9.297956381496787,-2.902144752553105,50,walking
1783066631030287400,2.8890601,-0.3082460110910237,-0.3737099785178899,1.2370403340175746,-0.6019999384880066,-1.045945167541504,-0.2761905491352081,-1.1665823576956986,-9.269836202427744,-2.9798700895294545,50,walking
1783066631050211300,2.908984,0.0079774816852062,-0.0832569598793983,1.278318100823462,-0.6023240089416504,-0.9844807982444764,-0.3684388995170593,-1.1664719561237842,-9.240962574642896,-3.0682831169977782,50,walking
1783066631070136300,2.928909,0.4574775182679295,0.0213350489735603,1.0660086445733905,-0.564640998840332,-0.8977446556091309,-0.3766927421092987,-1.155836361145228,-9.213125304168464,-3.154800247716904,50,walking
1783066631090060500,2.9488332,0.5347955896176397,0.257031226029992,1.0119397852554917,-0.4257746934890747,-0.8878879547119141,-0.4372025430202484,-1.1382839725155385,-9.19084449877739,-3.225378927809,50,walking
1783066631109985300,2.968758,0.6168388628583401,0.3586345744609832,0.8806982544079422,-0.3158605694770813,-0.8370076417922974,-0.478217750787735,-1.1101941885847595,-9.17707900827527,-3.2740023812025782,50,walking
1783066631129909200,2.9886819,0.8104653190135955,0.2325555409431457,0.7505643925413489,-0.1861216127872467,-0.7861666083335876,-0.487735778093338,-1.0742762683115898,-9.171306854614617,-3.302034881988168,50,walking
1783066631149834500,3.0086072,0.9024217181771992,-0.2193202117949724,0.5043827695667743,-0.0269508957862854,-0.7526551485061646,-0.447499006986618,-1.0402379512399431,-9.173731451413037,-3.3061972623646256,50,walking
1783066631169758200,3.0285309,0.5647260329790413,-0.6393997272998094,0.601887742768228,0.1272343248128891,-0.6718543171882629,-0.478885293006897,-1.004361093629524,-9.18655235454142,-3.281597658637166,50,walking
1783066631189683500,3.0484562,0.1132028930708766,-0.9538678277760744,0.8347153786510229,0.2133631706237793,-0.6704106330871582,-0.5457690358161926,-0.9529691253706812,-9.207722568342088,-3.23729674461782,50,walking
1783066631209607400,3.0683801,-0.0316921923369169,-1.4466004915595054,0.6793678728118538,0.2557854652404785,-0.7168400883674622,-0.5661455988883972,-0.8953126898895949,-9.232885066649317,-3.1816078828826546,50,walking
1783066631229532400,3.0883051,-0.0607831891994923,-1.904035047468543,0.7319348031342029,0.3089968860149383,-0.745212197303772,-0.6042131781578064,-0.8328525804538279,-9.260875481858848,-3.116559656649828,50,walking
1783066631249457400,3.1082301,-0.1920817109312862,-2.131039968547225,0.7089572476506233,0.2985915541648865,-0.6444715261459351,-0.5394672155380249,-0.7700880812440067,-9.289002675190568,-3.0482416149660945,50,walking
1783066631269381400,3.1281541,0.0114681733451783,-2.319977317038178,0.8510194477200508,0.1239587515592575,-0.7044385671615601,-0.4883647859096527,-0.7131188973747193,-9.310306159982083,-2.99667304803133,50,walking
1783066631289306400,3.1480791,-0.3345491308007389,-2.388144259813428,0.1026323992177844,-0.1033370494842529,-1.016229510307312,-0.4138517081737518,-0.6804426624365151,-9.31665757483542,-2.9845027177661656,50,walking
1783066631309230300,3.168003,-0.8818870258010924,-1.6499585795909166,-0.2292743273153901,-0.1838030070066452,-1.156599760055542,-0.3104057013988495,-0.6788330352827906,-9.312790962535145,-2.996911825223267,50,walking
1783066631329155300,3.187928,-1.5010305854052304,-1.7684885129034518,-0.5948521450430154,-0.2913871705532074,-1.0009336471557615,-0.1438825279474258,-0.7023831299573182,-9.301851050847768,-3.0253304027169943,50,walking
1783066631349079300,3.207852,-2.188549323707819,-2.0185504844427107,-0.9318249227941036,-0.34784597158432,-0.9859277009963988,-0.1528157740831375,-0.7385117703717201,-9.284026640343663,-3.0711303231224414,50,walking
1783066631369004300,3.227777,-3.161977592000365,-1.5118196904450654,-1.238155017261207,-0.3207891881465912,-0.918893575668335,-0.4612537324428558,-0.746406980600953,-9.26747414947152,-3.1188427991509435,50,walking
1783066631388928500,3.2477012,-3.60581178484112,-0.0917354498893022,-0.5656055922925471,-0.2804235517978668,-0.573578417301178,-0.8535065054893494,-0.6699329588599503,-9.258070945832133,-3.1638121139511464,50,walking
1783066631408853200,3.2676259,-2.124063845924288,1.1358341682106257,-0.2412842063218355,-0.1876214146614074,-0.339046835899353,-0.901999831199646,-0.5285619559250772,-9.25382380978167,-3.202774589551985,50,walking
1783066631428777500,3.2875502,-0.3249321017475798,1.5942805315107107,-0.6160445706754922,-0.0848566740751266,-0.3126459419727325,-0.6275930404663086,-0.4067957441050559,-9.252882729539277,-3.2232071367278694,50,walking
1783066631448702200,3.3074749,0.074756842559576,1.443177531373501,-0.5140466699689626,-0.0663182139396667,-0.2571318745613098,-0.3774000108242035,-0.3361737363278865,-9.25171660836935,-3.234674287159741,50,walking
1783066631468626200,3.3273989,-0.7021991516925394,1.718690755033493,-0.4253314446836709,0.014170198701322,-0.1160368025302887,-0.333783745765686,-0.2839126388180069,-9.251747003507614,-3.239592454339564,50,walking
1783066631488551400,3.3473241,-1.0453747296065092,1.5775971077352762,-0.5431929772153496,0.1516401767730713,-0.0289356559514999,-0.2856884300708771,-0.2305850080551579,-9.258643777284025,-3.22408275051862,50,walking
1783066631508476200,3.3672489,-0.913304273654148,1.4695236865073442,-0.464123532153666,0.2999075949192047,0.0322322994470596,-0.1335176229476928,-0.1907220216843299,-9.274321238887309,-3.181347478380799,50,walking
1783066631528400400,3.3871731,-0.8330019988618791,1.2123463300049304,-0.5185469039976597,0.3831462264060974,-0.0777463316917419,0.0122302900999784,-0.1812416246228851,-9.296218597918749,-3.1173472998961804,50,walking
1783066631548325400,3.4070981,-1.0478673501398414,0.6659311758726835,-0.7144646128952503,0.3468021750450134,-0.1526049226522445,0.1427812725305557,-0.203102980759181,-9.31887525088489,-3.047574967750907,50,walking
1783066631568249300,3.427022,-1.6732808568589388,0.3397153544574975,-0.6522253066033125,0.2897185087203979,-0.1349890381097793,0.1828127205371856,-0.2455220630872994,-9.337125193324685,-2.9880083877995607,50,walking
1783066631588174300,3.446947,-2.012688606671989,0.490550643569231,-0.1170437864080071,0.1702600717544555,-0.0310211796313524,0.1194140240550041,-0.2788615659735165,-9.350742215266823,-2.942147384856641,50,walking
1783066631608098300,3.466871,-1.9376259130336344,0.333037776389718,0.4068427250519394,-0.0351213067770004,-0.0638417080044746,-0.0020756549201905,-0.29227371299332,-9.354089772129058,-2.930181052730977,50,walking
1783066631628023300,3.486796,-1.1509778151981531,0.6984364381581545,0.1142711068242788,-0.0897544771432876,-0.1291928887367248,-0.057298544794321,-0.2903315659496002,-9.349884137132763,-2.943768556317687,50,walking
1783066631647947300,3.50672,-0.4455531255878507,1.2321037543982267,0.102661040790379,0.0238267127424478,-0.157047614455223,0.0474967435002327,-0.2969485364039428,-9.347249112454056,-2.9514617411687967,50,walking
1783066631667872500,3.5266452,-0.0502195269459858,1.6188392187058924,0.1602247564867139,0.2426003813743591,-0.219424307346344,0.1744909137487411,-0.3292614727213978,-9.354505951714517,-2.924929415813088,50,walking
1783066631687796500,3.5465692,-0.2060739593939855,1.4674246684014796,0.3410267293170094,0.3498722016811371,-0.308074027299881,0.150136649608612,-0.3778118608787655,-9.37098303926289,-2.865711795429885,50,walking
1783066631707721500,3.5664942,-0.3260523379491642,1.323790688970685,0.7448664731606841,0.3056104779243469,-0.2709431648254394,0.0946643278002739,-0.4164493788415566,-9.389107309496405,-2.8002885984048245,50,walking
1783066631727646500,3.5864192,-0.0226567990966141,1.154017475154996,0.8267761100843548,0.166696235537529,-0.2917660176753998,0.1249909922480583,-0.4506469415955245,-9.401442474934456,-2.753210620887577,50,walking
1783066631747570200,3.6063429,0.2481547862110659,0.8776081794381141,0.9984688937857746,0.0435834862291812,-0.3274158835411072,0.1881071627140045,-0.4968524471271783,-9.405903545996546,-2.7299253146290776,50,walking
1783066631767495400,3.6262681,0.1677433519558981,0.5279442624181508,0.9594465046912432,-0.1458199322223663,-0.3539363741874695,0.2084883749485016,-0.5541077179288492,-9.401304527768492,-2.734747035697102,50,walking
1783066631787419400,3.6461921,-0.0536443502955138,0.436631421855092,1.0326222155392168,-0.2823944687843323,-0.3981834650039673,0.1452224552631378,-0.6089509956853464,-9.386456502726674,-2.77380537288785,50,walking
1783066631807344400,3.6661171,0.0261211872715502,0.5865764841288328,0.7073729010686278,-0.2369342297315597,-0.4697309732437134,0.0778100118041038,-0.6540007187779993,-9.370155356267096,-2.818311161829531,50,walking
1783066631827268400,3.6860411,0.0316214651882648,0.497007272362709,0.7538809697434306,-0.127452090382576,-0.3804214000701904,0.0191236138343811,-0.6883810542203486,-9.359145886474847,-2.8465631505846978,50,walking
1783066631847194000,3.7059667,0.1097340479165315,0.491949404451251,0.6189049285426735,-0.0461108535528183,-0.3982659578323364,-0.0424889400601387,-0.7067879407875239,-9.354535177809,-2.857184205581248,50,walking
1783066631867118000,3.7258907,0.5193523751616478,0.3645014206677675,0.5584656574100255,0.0336724892258644,-0.4748338460922241,-0.0409560538828372,-0.7231587184172124,-9.354878292158244,-2.8519609179750085,50,walking
1783066631887043300,3.745816,0.7660575836189091,0.0858411311537027,0.4584261972948908,0.0847469493746757,-0.5520347952842712,0.0044174925424158,-0.7489988237250595,-9.358733214020727,-2.8325758340254423,50,walking
1783066631906967000,3.7657397,0.6612226328555494,-0.2613666248857975,0.4359361330673098,0.0610774643719196,-0.6032377481460571,-0.0051352982409298,-0.7828780047122389,-9.363323464420438,-2.8081404809489845,50,walking
1783066631926892300,3.785665,0.2664678204823285,-0.4928185885012149,0.6752770963668823,-0.0430926419794559,-0.561308741569519,-0.0411208793520927,-0.8114480464406311,-9.364408921569586,-2.7963904219225046,50,walking
1783066631946816300,3.805589,0.16211086249426,-0.7485603592425585,0.3802238904565572,-0.1461540460586547,-0.5974805951118469,-0.0763696730136871,-0.8323377627994865,-9.36005774062276,-2.80480198417604,50,walking
1783066631966741000,3.8255137,0.0669196461278945,-0.9010475072145462,0.163566468130052,-0.2396963089704513,-0.6499526500701904,-0.1342221200466156,-0.8483271398961544,-9.350773779448868,-2.8308561706259847,50,walking
1783066631986666200,3.8454389,-0.1855692602973431,-0.7698655975997447,0.1001683471918106,-0.231475368142128,-0.582159161567688,-0.1907185614109039,-0.8526163615226745,-9.33965091241002,-2.8660695228263733,50,walking
1783066632006590200,3.8653629,-0.0939013226862996,-0.7260492522269487,-0.2602180393725633,-0.0808984413743019,-0.6130327582359314,-0.2057680934667587,-0.8483667412541807,-9.333787573334574,-2.886361492487788,50,walking
1783066632026515200,3.8852879,-0.0290816445123404,-1.2105746441572904,-0.4473354789599776,0.0473107695579528,-0.6366065144538879,-0.1334470212459564,-0.853480869397521,-9.33588249978721,-2.8780609893932936,50,walking
1783066632046439200,3.9052119,-0.4459836990248411,-1.1717840179920196,-0.3913821210697293,0.1055642366409301,-0.6802549958229065,-0.2004230320453643,-0.8618488847702741,-9.3436987264961,-2.850067067052424,50,walking
1783066632066364400,3.9251371,-0.7326053228069096,-1.3365905493110417,-0.1751604598119854,0.0517338700592517,-0.6104891896247864,-0.2114520072937011,-0.8590896491900086,-9.352172540330889,-2.8229782768577336,50,walking
1783066632086288100,3.9450608,-0.8858935580287128,-1.3711837237864732,-0.1420122234478592,-0.0307370275259017,-0.6003240346908569,-0.2264737784862518,-0.8528952515292912,-9.356185867625474,-2.8115347995623945,50,walking
1783066632106213000,3.9649857,-0.7799461159788071,-0.7644073321938514,-0.0638765521049499,-0.0375530570745468,-0.624783992767334,-0.2594785392284393,-0.8406290596742182,-9.358277286946771,-2.808267614459991,50,walking
1783066632126137300,3.98491,-0.5385829992018639,-0.3056757222115993,-0.0133028414264321,0.042126141488552,-0.6485980749130249,-0.1707069724798202,-0.8355390430588274,-9.361960359373688,-2.7974896153360604,50,walking
1783066632146062000,4.0048347,-0.5485659024253488,0.000469955599308,-0.0131365449488162,0.1063890382647514,-0.5886656045913696,-0.0818757936358451,-0.8477025782570242,-9.368382501375674,-2.772217811435461,50,walking
1783066632165986300,4.024759,-0.9099229606527834,0.0426543158560991,0.2701809227213263,0.121450275182724,-0.5635247826576233,-0.0697352364659309,-0.865377643418312,-9.37630101941526,-2.739800519694388,50,walking
1783066632185911300,4.044684,-1.159670824741572,-0.1374684425383806,0.1319181149348616,0.0193789042532444,-0.5683450102806091,-0.0635762959718704,-0.8848279746238141,-9.38157925207913,-2.715411343847215,50,walking
1783066632205835000,4.0646077,-1.4646777077808977,0.0242407072871923,0.4215308833569288,-0.1211565136909484,-0.4676650166511535,-0.110334426164627,-0.8966036795482039,-9.38018224476278,-2.716373466877639,50,walking
1783066632225760300,4.084533,-1.6020602256014942,0.3500695752114057,0.325773630605638,-0.149385392665863,-0.4564484655857086,-0.1993698179721832,-0.8928474688198417,-9.375011564126613,-2.735387671688199,50,walking
1783066632245685000,4.1044577,-1.573736632914841,0.5910509991943836,0.4669157932206988,-0.126459538936615,-0.4548862874507904,-0.2358365058898925,-0.8767287662550807,-9.37148572808802,-2.752629606129229,50,walking
1783066632265609200,4.1243819,-1.7392893064260482,0.6407838751345872,0.4435696966856717,-0.0852179080247879,-0.5457319617271423,-0.2768283188343048,-0.8569231188058852,-9.370192765668031,-2.7632515379086136,50,walking
1783066632285534200,4.1443069,-1.9271429513335228,0.4872720602899789,0.6290756094232202,-0.1109000965952873,-0.5734056830406189,-0.299450010061264,-0.833371416696161,-9.370207963237164,-2.7703894269645213,50,walking
1783066632305458400,4.1642311,-1.5488767708159985,0.3492705337882041,0.5632049608916044,-0.2517546117305755,-0.7383986115455627,-0.2427911758422851,-0.8174922950409352,-9.365085797917844,-2.792356344100833,50,walking
1783066632325383200,4.1841559,-1.1687912659168245,0.123237672612071,0.5451750909432769,-0.4289601743221283,-0.7771363258361816,-0.0923691913485527,-0.8287211797375231,-9.34884427269101,-2.843010134278237,50,walking
1783066632345307100,4.2040798,-1.1834629845436662,0.171709150314331,0.5372600800350308,-0.5267276763916016,-0.7841710448265076,-0.0188599862158298,-0.8652256677269935,-9.3216008764565,-2.9205384873777627,50,walking
1783066632365232000,4.2240047,-1.350734225475788,0.1470049171686172,0.4530126478135585,-0.5239748358726501,-0.776298999786377,-0.0456022322177886,-0.9059505498904734,-9.290760332512855,-3.005231909801066,50,walking
1783066632385156000,4.2439287,-1.2943104735948143,0.0734469290047884,0.2537070500433445,-0.4497407674789428,-0.7425777316093445,-0.1218604370951652,-0.9369358360670508,-9.262542538288235,-3.0818580533638595,50,walking
1783066632405081300,4.263854,-1.0857789284482595,0.1919552350074052,0.2902759085059165,-0.3535097539424896,-0.6392747759819031,-0.1797337383031845,-0.9515370467409492,-9.240391496756672,-3.143266461789608,50,walking
1783066632425005300,4.283778,-0.6314728798232973,0.3503495611965656,0.4968707865014672,-0.1743761897087097,-0.55059814453125,-0.2225044667720794,-0.9518424594283104,-9.227001269307731,-3.1822666390523318,50,walking
1783066632444930300,4.303703,-0.0143746353764086,0.5148597399175167,0.7268480013892055,0.0497692748904228,-0.5237760543823242,-0.2105083465576172,-0.9449518961969764,-9.22750804978609,-3.1828494073763487,50,walking
1783066632464854300,4.323627,0.3853874106995761,0.2126543241649865,1.0910688515499234,0.224457174539566,-0.4705893099308014,-0.1767622381448745,-0.9402434993103146,-9.239990514740349,-3.147837422966957,50,walking
1783066632484779000,4.3435517,0.462855777240172,-0.0248223065674304,1.22783586782068,0.2813311219215393,-0.4352188408374786,-0.1698816418647766,-0.9370571974243967,-9.259891146996615,-3.0897768636643885,50,walking
1783066632504703200,4.3634759,0.4657807978413998,-0.1822381431132554,1.6135066255062818,0.2376341819763183,-0.4143806099891662,-0.1791747063398361,-0.9307049057882278,-9.279048267409204,-3.0337168305292725,50,walking
1783066632524628200,4.3834009,0.6576588759593666,-0.1806722089707851,1.4038412540242076,0.122659794986248,-0.5643681287765503,-0.2324250340461731,-0.922517507679388,-9.294380276575684,-2.98895209839046,50,walking
1783066632544553200,4.4033259,0.4636308532658964,-0.4183756341964006,1.6158511428058149,-0.0879889950156211,-0.5098403692245483,-0.243847519159317,-0.9104488111577927,-9.300137817189096,-2.974710222548246,50,walking
1783066632564477200,4.4232499,0.4106614796224981,-0.5106219562172889,1.3711378388181328,-0.2049869149923324,-0.4656490683555603,-0.1764887124300003,-0.8992282558981328,-9.294231808015704,-2.996501198595762,50,walking
1783066632584402200,4.4431749,0.495522221436724,-0.5001017312467098,0.7383101833850145,-0.213098868727684,-0.5037616491317749,-0.1114103943109512,-0.9031349810130892,-9.284252265793084,-3.026119507268071,50,walking
1783066632604326100,4.4630988,0.1867752020210027,-0.2501817985266447,0.6940811655580997,-0.2226629704236984,-0.4304674565792084,-0.128880962729454,-0.910572291406989,-9.273054579952358,-3.058056029754877,50,walking
1783066632624251100,4.4830238,0.0742363258168101,0.053236500146985,0.6806307323545218,-0.1765164136886596,-0.3128258883953094,-0.1906956434249878,-0.9033782882496714,-9.263580649164318,-3.08874868966043,50,walking
1783066632644175400,4.5029481,0.1985490803144872,0.0031470658540725,0.5682520151481032,-0.1187356188893318,-0.2013830542564392,-0.2079764008522033,-0.8819440166853367,-9.258082636269927,-3.111342798784375,50,walking
1783066632664100000,4.5228727,0.3925110520344227,0.0133545716136693,0.535090627041459,-0.042419459670782,-0.0929397344589233,-0.194895327091217,-0.8532451609455048,-9.256469355854392,-3.1241207395538684,50,walking
1783066632684024000,4.5427967,0.8106370953839271,-0.0321849442899227,0.4715560202419757,-0.016821326687932,-0.069470502436161,-0.1281525641679763,-0.8281446219585835,-9.257616772323846,-3.127473557113111,50,walking
1783066632703949300,4.562722,0.8349956568971276,-0.1249374622672796,0.5820908631473779,-0.0041557233780622,0.026297640055418,-0.0757863819599151,-0.811053640295565,-9.258387756696344,-3.129671067157388,50,walking
1783066632723873000,4.5826457,0.6531173600722104,-0.2868570399731397,0.4051888203650712,0.0701193287968635,-8.05751187726e-05,-0.0844807028770446,-0.7966198220778257,-9.261368818333745,-3.124552993491292,50,walking
1783066632743798300,4.602571,0.3385335242617875,-0.5504185445547104,0.5008499192655086,0.1325410902500152,0.1167889237403869,-0.0887221023440361,-0.7765228635318577,-9.269399564576148,-3.1057413255155084,50,walking
1783066632763722200,4.6224949,0.3843723153728992,-0.7080237661927938,0.59434010386765,0.13034687936306,0.122631698846817,-0.0409603826701641,-0.7560720500469207,-9.278640271130204,-3.0831130218610165,50,walking
1783066632783647200,4.6424199,0.1788545650895684,-1.046960537493229,0.5624877525329589,0.0916099771857261,0.0684081986546516,-0.0705779418349266,-0.7419409411028027,-9.286264190137386,-3.0635309540346265,50,walking
1783066632803571200,4.6623439,-0.1534491248719394,-0.9035632894277572,0.744756583045423,0.0925986170768737,-0.015371648594737,-0.1911750733852386,-0.7156459316343069,-9.293490049737692,-3.047828650251031,50,walking
1783066632823496200,4.6822689,-0.1189723433177918,-0.8557406310230493,0.7082675118207931,0.0894276276230812,-0.0016310658538714,-0.2534012496471405,-0.6741069566089659,-9.30240810020864,-3.0300445717573163,50,walking
1783066632843419600,4.7021923,0.1966060564879327,-1.0198194325894117,0.9467655945554376,0.0590981878340244,0.0653646811842918,-0.1733193397521972,-0.6310039471372961,-9.309812823507189,-3.016552637499571,50,walking
1783066632863344400,4.7221171,0.363577985679917,-1.2809592629820108,0.8264642676562071,0.0272214449942111,0.0430306084454059,-0.1168740913271904,-0.6023995282152668,-9.313981633624437,-3.009526976646483,50,walking
1783066632883269600,4.7420423,0.1240640039009973,-1.2079086398184298,0.6326315483391285,0.0656919702887535,-0.0044335075654089,-0.168943166732788,-0.5756704381784424,-9.318198959058522,-3.0016943833246827,50,walking
1783066632903193600,4.7619663,0.0075952409019693,-1.2095780343353748,0.6835027806594968,0.0861414968967437,0.0185920484364032,-0.1958900392055511,-0.5406044585594907,-9.325058323433996,-2.9868744153335687,50,walking
1783066632923118600,4.7818913,0.0988151790171861,-0.9580530045062304,0.6268801452055573,0.0323073714971542,0.0427247546613216,-0.1677735596895218,-0.5044825401468203,-9.330877823367716,-2.9749931311428544,50,walking
1783066632943042600,4.8018153,-0.1875697864647954,-0.5685141732156276,0.6783721397727728,0.0393849238753318,-0.0079928217455744,-0.1283479332923889,-0.4786168985389172,-9.33390389319062,-2.969772766146064,50,walking
1783066632962967300,4.82174,-1.0229979895602912,-0.1862994012027978,0.3015551351502537,0.1008752658963203,0.0630173683166503,-0.229580357670784,-0.4449470129208639,-9.339330594414472,-2.957921877093613,50,walking
1783066632982891500,4.8416642,-1.2257783507689832,0.2689391059666872,0.3478855091705918,0.238640159368515,0.1533744931221008,-0.2487071901559829,-0.3919537104126065,-9.351192881643772,-2.927786851070821,50,walking
1783066633002816500,4.8615892,-0.8498639940746128,0.3647790685653686,-0.0870832401692867,0.3385995030403137,0.1948135495185852,-0.1734219640493393,-0.3427475982928648,-9.370269338035582,-2.8724495792523026,50,walking
1783066633022740500,4.8815132,-1.0179301117114723,0.5664093098908662,0.1590501597493887,0.2886945009231567,0.2368046045303344,-0.1209432482719421,-0.3032202553508803,-9.389192065170407,-2.8145187838092443,50,walking
1783066633042665500,4.9014382,-1.1546147834610194,0.5284668249875307,-0.0985974446132779,0.215943694114685,0.1496180444955825,-0.1065404936671257,-0.2712817418363876,-9.404071069872378,-2.7677102708831427,50,walking
1783066633062589400,4.9213621,-1.4658476283431052,0.3445060958653688,-0.078494275522232,0.1040779575705528,0.2643184661865234,-0.0730079412460327,-0.2434626463394612,-9.413442709329724,-2.738284269912541,50,walking
1783066633082514400,4.9412871,-1.5807302911944687,0.4394178377032279,-0.1067857195049524,-0.011963477358222,0.3467293083667755,-0.0285781733691692,-0.21626782022072,-9.416327324855327,-2.730642230726778,50,walking
1783066633102438400,4.9612111,-1.5136011670343577,0.3979284739732742,-0.0671560121670365,-0.1556753367185592,0.2767943739891052,0.0091380039229989,-0.1976544147633947,-9.411648227128389,-2.7481255727082488,50,walking
1783066633122363600,4.9811363,-1.606281642688811,0.6295943726003169,-0.1640747099131345,-0.1896878480911255,0.2098363786935806,0.029868783429265,-0.1884715758764185,-9.401350704997778,-2.783786376415193,50,walking
1783066633142287600,5.0010603,-1.6111790593415498,0.7413339151203632,-0.3691232352495193,-0.1127969324588775,0.2139604240655899,0.1291116029024124,-0.1913553876844234,-9.392482338887453,-2.8133696137741206,50,walking
1783066633162212600,5.0209853,-1.6632124673090871,0.6456359913408756,-0.3717977151557803,-0.0008779580239206,0.1884355396032333,0.2230082899332046,-0.2133925935779698,-9.388362044087051,-2.8255086721181866,50,walking
1783066633182136600,5.0409093,-1.820686317652464,0.6979091994136571,-0.4799021160438657,0.1642681956291198,0.1152052655816078,0.2145352959632873,-0.2470061276325955,-9.39200478450358,-2.8106287906333804,50,walking
1783066633202061300,5.060834,-2.1581574003145096,0.6187088214486837,-0.2749079512432217,0.2818077206611633,0.108230322599411,0.1579811424016952,-0.2761471011167392,-9.403632678455114,-2.768720909230411,50,walking
1783066633221985500,5.0807582,-1.9096232228644192,0.4861228902548551,-0.0050286418169736,0.2865782082080841,0.0547172278165817,0.1579980552196502,-0.2996264321099967,-9.419188559505344,-2.712839447532594,50,walking
1783066633241910500,5.1006832,-1.4852411878600715,0.2405833645761013,0.2234942826092243,0.1242069602012634,-0.0145589085295796,0.1891486942768097,-0.3321075098022818,-9.429678973859549,-2.6723136681377886,50,walking
1783066633261834500,5.1206072,-1.0990091430298985,0.5604448485285043,0.5083136792749167,-0.1148058921098709,-0.0639789253473281,0.177628681063652,-0.3683371263731271,-9.428867072954771,-2.67042741599977,50,walking
1783066633281759500,5.1405322,-0.9055109163641928,0.8247568792164325,0.4981365686535835,-0.2619298994541168,-0.101880170404911,0.2075373977422714,-0.4093547809381038,-9.416499174290896,-2.7078350633740422,50,walking
1783066633301683500,5.1604562,-0.6957919149987399,1.1080495047062635,0.3238452928915619,-0.2532103955745697,-0.2029563188552856,0.1820528507232666,-0.4547717299079522,-9.400367539179324,-2.7562048342674967,50,walking
1783066633321608400,5.1803811,-0.5125368499279022,1.0813158115595578,0.4040691686853766,-0.2207100987434387,-0.2327118813991546,0.1589523255825042,-0.4999112867085263,-9.38590296049714,-2.797373003219068,50,walking
1783066633341533400,5.2003061,-0.4303276090031489,1.058758527314663,0.4730819146350026,-0.1731263101100921,-0.2374222874641418,0.0841108933091163,-0.5355830136682838,-9.37337139570415,-2.832567358458042,50,walking
1783066633361457700,5.2202304,-0.1817922259766608,1.104066572549939,0.3651394263103604,-0.0925748944282531,-0.2910916209220886,0.0692147985100746,-0.5632532204801216,-9.36540845400095,-2.853463139231503,50,walking
1783066633381382400,5.2401551,0.1219273571984842,0.8133493500173091,0.5650099644869566,-0.1500001549720764,-0.2975132465362549,0.1231989711523056,-0.5980742488946765,-9.357955799907446,-2.8707760930821298,50,walking
1783066633401306400,5.2600791,0.2124434578932821,0.5940910975426436,0.5980412964731454,-0.2119620442390442,-0.3066455125808716,0.1345214247703552,-0.6399580187696963,-9.345496715828777,-2.9021608269050714,50,walking
1783066633421231600,5.2800043,0.0869871593836695,0.5273538953095674,0.4405860046997666,-0.189083844423294,-0.3328154385089874,0.0780381709337234,-0.6803001121606678,-9.332179553616047,-2.9356431175291537,50,walking
1783066633441155300,5.299928,0.0582321164771914,0.4710679444640874,0.4905620417460798,-0.182316780090332,-0.3195434510707855,0.002429342828691,-0.706761271976307,-9.320934521502256,-2.9649691652566195,50,walking
1783066633461080600,5.3198533,0.272910055424273,0.2204471699982881,0.4066314203888178,-0.1763381063938141,-0.3195898532867431,-0.0093148443847894,-0.7239178662214428,-9.31018341038525,-2.9944641398102045,50,walking
1783066633481004500,5.3397772,0.3719572165664285,-0.0195230311155319,0.2565504567757248,-0.082395315170288,-0.4215803146362304,-0.031395848840475,-0.7436568051099777,-9.302150910577176,-3.014520547150075,50,walking
1783066633500929500,5.3597022,0.1895169019445776,-0.0327525150448083,0.0802463798865675,0.0333154499530792,-0.5325890779495239,-0.138636365532875,-0.7582896530311555,-9.302240926948189,-3.0105995743140577,50,walking
1783066633520853500,5.3796262,0.0068509618733078,-0.1969412067264318,0.2032251093015074,0.0335924960672855,-0.5097053050994873,-0.231992021203041,-0.7536921691730618,-9.307739524364472,-2.99471431517899,50,walking
1783066633540778500,5.3995512,0.2017394007883965,-0.4514069661825895,0.193171625059843,0.0116593111306428,-0.5855715870857239,-0.214555948972702,-0.7437269477367401,-9.312297041538358,-2.9830148172959685,50,walking
1783066633560702500,5.4194752,0.3330407720644027,-0.6028764615446329,-0.2342529925107955,0.0429855473339557,-0.7575769424438477,-0.2241051942110061,-0.7436462106507271,-9.317198842105268,-2.9676927450016137,50,walking
1783066633580627500,5.4394002,0.1310701198033988,-0.6954752502650022,-0.2097083338409662,0.0467409901320934,-0.8453614711761475,-0.2529008388519287,-0.7471281344823539,-9.323660147073864,-2.946448296920955,50,walking
1783066633600551700,5.4593244,-0.1340423405472189,-0.9683569563776254,-0.2313791906401515,-0.0263491217046976,-0.8029452562332153,-0.2676383852958679,-0.7482207520246505,-9.328654886621235,-2.9303134469389915,50,walking
1783066633620476400,5.4792491,-0.3095952337428927,-1.1303168660938738,-0.2430783962622284,-0.10861786454916,-0.8218404054641724,-0.3460086584091186,-0.738466323794797,-9.328453226569296,-2.933428364089131,50,walking
1783066633640400400,5.4991731,-0.205744179450348,-1.020479357802868,-0.467747275608778,-0.0928233712911605,-0.9340127110481262,-0.391926497220993,-0.7202134587455541,-9.328158043015003,-2.938902119325101,50,walking
1783066633660325600,5.5190983,-0.2055159236524254,-0.8764134166955947,-0.2508577980920672,-0.1221764013171196,-0.9305582642555236,-0.4068934321403503,-0.700689331651479,-9.327972749575972,-2.9442040251255035,50,walking
1783066633680249300,5.539022,-0.1509025091290473,-0.8108809140771627,-0.0251829565733671,-0.1576082408428192,-0.8671659827232361,-0.3331364691257477,-0.6824291600786149,-9.324822176590562,-2.9584412247925997,50,walking
1783066633700174600,5.5589473,0.1876364950254559,-0.7589671869665384,-0.1877659666240215,-0.1298451870679855,-0.9803115129470824,-0.2335389405488968,-0.68458312324211,-9.320023251876234,-2.973029137593508,50,walking
1783066633720098600,5.5788713,-0.1914719815351069,-0.9083043464750052,-0.1065694464057683,-0.1789544522762298,-0.996205508708954,-0.2457793354988098,-0.7023132795915007,-9.31508637999594,-2.98434489685595,50,walking
1783066633740023300,5.598796,-0.8073078048307448,-0.8962222790151834,0.4896478495106101,-0.3926699161529541,-0.8649642467498779,-0.3064420223236084,-0.7053785123810171,-9.302328020709751,-3.023162118767201,50,walking
1783066633759947500,5.6187202,-0.7173350537650287,-0.8445353463977575,0.3050812634497881,-0.5199511647224426,-0.8761354088783264,-0.3038921654224396,-0.7007805901315063,-9.277849997535348,-3.0985160504370928,50,walking
1783066633779872500,5.6386452,-0.8645667654268443,-0.5481096830904484,0.1447106687515973,-0.5179880857467651,-0.7928251028060913,-0.2995055913925171,-0.698697281051427,-9.248813872665169,-3.184598589131236,50,walking
1783066633799796500,5.6585692,-1.2257207022976129,-0.0054296238332986,0.2477446345075964,-0.3295817375183105,-0.6813627481460571,-0.3757806122303009,-0.6845530934300273,-9.226014596357942,-3.253066268418729,50,walking
1783066633819721500,5.6784942,-1.3584800172969698,0.511192449581623,0.3712403735339641,-0.1310618817806244,-0.5549087524414062,-0.4331268966197967,-0.6499559003666043,-9.216509101387858,-3.2869287905320523,50,walking
1783066633839645400,5.6984181,-1.3783439708046614,0.683427669596672,0.35511575268507,0.0783516839146614,-0.5098752975463867,-0.4301111400127411,-0.6049527198294178,-9.2202529640913,-3.2850200343012808,50,walking
1783066633859569700,5.7183424,-1.5020114131361246,0.6325707580626011,0.5145788771495223,0.2589111030101776,-0.4941511452198028,-0.3942896127700805,-0.5611920866992324,-9.236434868085384,-3.247111159406602,50,walking
1783066633879493600,5.7382663,-1.7463025461889805,0.508238275951147,0.695576372551918,0.3984623253345489,-0.5513461232185364,-0.3363076150417328,-0.5274408064080401,-9.261888458293676,-3.179560887224972,50,walking
1783066633899419000,5.7581917,-2.1545793956972656,0.2689852831959724,1.010292602570355,0.4099905490875244,-0.6172873377799988,-0.2984695434570312,-0.5056778874112293,-9.29093568907976,-3.097288262207806,50,walking
1783066633919343600,5.7781163,-2.4004893621236083,0.1468839211374521,1.1225091149523854,0.2926534116268158,-0.7125575542449951,-0.2769236266613006,-0.4923046110970899,-9.31577728486955,-3.023954145927727,50,walking
1783066633939267600,5.7980403,-2.2990981951385736,-0.08457797935009,1.212026304270327,0.0867813676595687,-0.8113556504249573,-0.1894389390945434,-0.4935883672973141,-9.329721639069914,-2.980443505503237,50,walking
1783066633959192800,5.8179655,-2.180149305761605,-0.2443932782530784,1.121689615263045,-0.1025303602218627,-0.9136348366737366,-0.1413703113794326,-0.5164700611909852,-9.330618880170585,-2.9737545292586085,50,walking
1783066633979116800,5.8378895,-2.198006303361058,-0.185023389917612,1.100525246681273,-0.2249346524477005,-0.8809124827384949,-0.1461356580257415,-0.5430553223103285,-9.321752267625929,-2.996732961525023,50,walking
1783066633999041800,5.8578145,-1.9050607372544703,-0.1189583878576755,0.7742340219423174,-0.261832594871521,-0.9435526132583618,-0.1649399399757385,-0.5688979118362069,-9.308808614900707,-3.031966187469661,50,walking
1783066634018965800,5.8777385,-1.4240917226314544,0.0772492438971996,0.7916393302515149,-0.2928323745727539,-0.8809828758239746,-0.1465430557727813,-0.5961657483922317,-9.293729703712463,-3.072714961965382,50,walking
1783066634038890800,5.8976635,-0.9915024157740177,0.4157429476052522,0.6530588348180055,-0.2449144423007965,-0.826866090297699,-0.1240024790167808,-0.623536314670369,-9.27832930548489,-3.1135496611788867,50,walking
1783066634058814700,5.9175874,-0.6248244547847658,0.7044225268304347,0.6202662800237536,-0.1374733746051788,-0.8334022164344788,-0.1577617824077606,-0.6502374207217246,-9.268331643083693,-3.137768741156161,50,walking
1783066634078739700,5.9375124,-0.3960726169735193,0.8299287288963795,0.9664712887614963,-0.1057898104190826,-0.7873225808143616,-0.2152323424816131,-0.6663544427860528,-9.26365371440053,-3.148187551578879,50,walking
1783066634098663700,5.9574364,0.1535788156662136,0.8871019839704036,1.0244745649188756,-0.116623654961586,-0.8252930045127869,-0.2044699639081955,-0.6779089061751962,-9.25962518953681,-3.1575586065143346,50,walking
1783066634118588700,5.9773614,0.4946426621232181,0.6578244417846203,0.9898752529636023,-0.1169701963663101,-0.87479168176651,-0.2080477029085159,-0.6936606751237064,-9.255402018883824,-3.166503837253153,50,walking
1783066634138513000,5.9972857,0.5745541109669954,0.4064472959935665,1.1121697995066642,-0.212289497256279,-0.8703124523162842,-0.1988468468189239,-0.7101257069081067,-9.248234611472489,-3.1837527859568597,50,walking
1783066634158437600,6.0172103,0.8673664060827344,0.1670762298166751,1.025880047802627,-0.2995436489582062,-0.967810869216919,-0.1354782730340957,-0.7365831403966993,-9.234066969910264,-3.2186694932982323,50,walking
1783066634178361600,6.0371343,0.8308425558056682,-0.1514993059784173,0.939336321337521,-0.3715860843658447,-0.9773151278495787,-0.0776625871658325,-0.7811626521617173,-9.214168091219664,-3.2648540291070938,50,walking
1783066634198286800,6.0570595,0.5715133550316095,-0.2823141358464956,0.9480740468055008,-0.4321646094322204,-0.979222536087036,-0.1023406758904457,-0.8299374967247247,-9.189147631731627,-3.322823110733926,50,walking
1783066634218210800,6.0769835,0.3333142552435398,-0.5006096807688475,1.0509031376391649,-0.522358775138855,-0.9180506467819214,-0.1607756465673446,-0.8687175284307449,-9.159694742754102,-3.3934795322373508,50,walking
1783066634238135800,6.0969085,0.4041617423396557,-0.5725514659076929,0.976804466727376,-0.6078932285308838,-0.8453114032745361,-0.2036732584238052,-0.8958709082942455,-9.124114895328878,-3.4811394032508134,50,walking
1783066634258059800,6.1168325,0.6100994716007262,-0.4451934984952211,0.8753998557388782,-0.5720844268798828,-0.7916679382324219,-0.2225580215454101,-0.9140135909672826,-9.08552476017177,-3.576059328395128,50,walking
1783066634277984800,6.1367575,0.8186284594640135,-0.2983534164994955,0.7363684016674756,-0.4671224355697632,-0.7841882705688477,-0.2279846668243408,-0.9302580388035624,-9.05220116724074,-3.655498483552039,50,walking
1783066634297908700,6.1566814,0.9002526305098086,-0.366786901256442,0.8594728032886981,-0.3823513686656952,-0.7435942888259888,-0.233780175447464,-0.9458920996565372,-9.025516573932766,-3.716952776946127,50,walking
1783066634317833700,6.1766064,0.89475995137766,-0.6293634864538907,0.8238903255149722,-0.2493464946746826,-0.6296346187591553,-0.260779857635498,-0.9529689061749728,-9.005950872719287,-3.7623239505454897,50,walking
1783066634337758000,6.1965307,0.8929943299446255,-0.7046610117614269,0.8234463811397552,-0.0752598866820335,-0.5676578283309937,-0.3286775052547455,-0.9450681429877876,-8.999636867266894,-3.77938789807111,50,walking
1783066634357682700,6.2164554,0.9217229232355952,-0.7724521069616079,0.9146838183790444,0.0276315845549106,-0.6036856770515442,-0.4113051295280456,-0.9227702403314412,-9.005168197908997,-3.7717145869642494,50,walking
1783066634377606700,6.2363794,0.7284640582837164,-0.9849421804755926,1.0045692564874886,0.0769240632653236,-0.533944845199585,-0.4592608213424682,-0.8867807891920209,-9.016984892430902,-3.7520650068596,50,walking
1783066634397531600,6.2563043,0.7472804024346172,-0.962022492659092,0.952863326908648,0.1445030868053436,-0.4904938042163849,-0.4496344029903412,-0.8427491205681115,-9.033320525681972,-3.722805010105669,50,walking
1783066634417455600,6.2762283,0.688759312948212,-0.9288117124527692,0.8138485317111015,0.1238953173160553,-0.4648194313049316,-0.450198769569397,-0.7976954154200852,-9.0512682703048,-3.688985450351238,50,walking
1783066634437380900,6.2961536,0.4289792266014963,-0.8465326576948166,0.8629448633134364,0.0492052435874938,-0.4456541836261749,-0.4546468555927276,-0.7493534093163907,-9.0645643897295,-3.666405369752645,50,walking
1783066634457304800,6.3160775,0.2007213097870349,-0.7256085227221251,0.6642211570844054,0.0014222706668078,-0.4634283483028412,-0.5028943419456482,-0.6967698201201856,-9.073408790442349,-3.654878013566136,50,walking
1783066634477229800,6.3360025,0.2358006603442132,-0.4100695781439542,0.6592290478855372,-0.0183832813054323,-0.4280186593532562,-0.4922261834144592,-0.6371285674974322,-9.079199064281582,-3.65138257266581,50,walking
1783066634497153800,6.3559265,0.5184328491639345,-0.4813403321534395,0.2848588518932461,0.0567382015287876,-0.4585475027561188,-0.3999002873897552,-0.5890617616059258,-9.085739279705283,-3.643175300812721,50,walking
1783066634517078500,6.3758512,0.2766467577345669,-0.37046471298635,0.3685527418851852,0.1724815666675567,-0.4173772931098938,-0.3818894326686859,-0.5513813251722604,-9.098004302516578,-3.61838251260072,50,walking
1783066634537002800,6.3957755,0.2896808652222156,-0.0596866991996765,0.2838940985143184,0.2957580685615539,-0.4807915985584259,-0.3806262910366058,-0.5130898441681638,-9.119532243713737,-3.569486964267492,50,walking
1783066634556927700,6.4157004,0.31029023026973,-0.3421925582259893,0.5063327345907688,0.2119652181863784,-0.4622615277767181,-0.3377479910850525,-0.4810268092248588,-9.142437318482994,-3.5149463957846163,50,walking
1783066634576852000,6.4356247,0.1689198118567466,-0.358284445849061,0.7480956643402576,0.0550424978137016,-0.369670420885086,-0.2425954192876815,-0.4565233958808705,-9.15447730036676,-3.486763088351488,50,walking
1783066634596776700,6.4555494,0.0902859452007338,-0.533132478711009,0.510976176482439,-0.0361793562769889,-0.459705501794815,-0.2308848053216934,-0.4443286618268117,-9.156650552752614,-3.48262905728668,50,walking
1783066634616700700,6.4754734,-0.3632884646814316,-0.4623451243042946,0.5870183826774359,-0.0542475059628486,-0.5037909150123596,-0.2854856252670288,-0.4300901104528457,-9.15561185735464,-3.487144781145453,50,walking
1783066634636625700,6.4953984,-0.583639700024575,-0.6132932261407374,0.5188324429407716,-0.0271762404590845,-0.5110187530517578,-0.3160597085952759,-0.4101034438809379,-9.15519918490052,-3.490634961348772,50,walking
1783066634656549600,6.5153223,-0.6668347005836666,-0.609288082152605,0.6114551970586181,-0.0333896018564701,-0.472717821598053,-0.3072275817394256,-0.3873622179038822,-9.156362383460998,-3.4901837104499336,50,walking
1783066634676475000,6.5352477,-0.8194220940597355,-0.4475105432659387,0.802234081763029,-0.0727268904447555,-0.413057416677475,-0.277386337518692,-0.3645106999527663,-9.15473448999822,-3.4969083425298333,50,walking
1783066634696398800,6.5551715,-0.9486936400085688,-0.082975804850459,0.7900739806309341,-0.0264741964638233,-0.4352973699569702,-0.2910476326942444,-0.3431277201842516,-9.152657099202274,-3.504499820572138,50,walking
1783066634716323800,6.5750965,-1.0561441800978033,0.4220481852293014,0.8796919999748468,0.0517646819353103,-0.4339607357978821,-0.306806355714798,-0.3175288762863725,-9.155646928668022,-3.499097961528599,50,walking
1783066634736247800,6.5950205,-1.068139592187479,0.4947288060367107,0.7855468585953116,0.1369914561510086,-0.4499385356903076,-0.2747199237346649,-0.2953583080704324,-9.16443346171379,-3.477976847566664,50,walking
1783066634756172500,6.6149452,-1.175570112401992,0.5675982274144887,0.8718532691732048,0.137405514717102,-0.3919048607349396,-0.2633855938911438,-0.2762138827426358,-9.175950296506285,-3.449061718727648,50,walking
1783066634776096800,6.6348695,-1.1897910185214131,0.6267670402199029,0.8579360952407121,0.1058709323406219,-0.4011278450489044,-0.2609803676605224,-0.2540623297544196,-9.185888337674736,-3.4242209997206925,50,walking
1783066634796021800,6.6547945,-0.9653487875375896,0.4957686704784631,0.6566960222765803,-0.0077562928199768,-0.3966438770294189,-0.2047554552555084,-0.2389345013905316,-9.190461052417756,-3.4130200990095734,50,walking
1783066634815945700,6.6747184,-0.8745094827704131,0.4945516959041356,0.5539563632920385,-0.0460903868079185,-0.4446501135826111,-0.106702797114849,-0.2372978766320273,-9.188646111950275,-3.418019806993008,50,walking
1783066634835870700,6.6946434,-0.7004517965685576,0.2580471250742673,-0.0216997906327247,0.0384967364370822,-0.4947558939456939,0.0227882023900747,-0.2620173073468729,-9.18841990197897,-3.4168227061629293,50,walking
1783066634855795500,6.7145682,-0.848457999734208,0.1693979507625103,-0.0515618449330329,0.0931054800748825,-0.4703533947467804,0.1151180267333984,-0.3082406773287803,-9.192844732683897,-3.4010262943550944,50,walking
1783066634875720200,6.7344929,-1.049243022407219,-0.128334703490138,-0.2631310042098164,0.1326994895935058,-0.5827155709266663,0.1485587656497955,-0.3687228742877021,-9.199324742352962,-3.377401965400576,50,walking
1783066634895644400,6.7544171,-1.2850490165136754,-0.298096811389923,-0.2947574378341436,0.105356179177761,-0.609370768070221,0.0981025695800781,-0.432641000512056,-9.207332692241668,-3.347870458228886,50,walking
1783066634915569400,6.7743421,-1.3987123667031525,-0.5157178180515766,0.0280064895614981,-0.0340538248419761,-0.5076904892921448,0.0559134669601917,-0.4829805371085182,-9.2092294657737,-3.3357454284101724,50,walking
1783066634935493000,6.7942657,-0.8416327568240464,-0.4695657232075929,0.0325318580314517,-0.0995503589510917,-0.491071343421936,0.0563032403588295,-0.5259052674038336,-9.203606949716804,-3.344760217253864,50,walking
1783066634955418400,6.8141911,-0.3499333085458725,-0.0390162516146898,-0.0363455711007118,-0.0845935717225074,-0.4979296624660492,0.1073973029851913,-0.5736299818594008,-9.196467014834283,-3.356537456548214,50,walking
1783066634975342300,6.834115,-0.2201176457829773,0.0900175400555133,0.0296171396285295,-0.028118684887886,-0.5320993065834045,0.1026733443140983,-0.6277289440546184,-9.191575151139498,-3.3602509241133927,50,walking
1783066634995267300,6.85404,-0.1209703122019767,0.2312351059943437,0.1576207114681601,-0.0034332782961428,-0.5010010600090027,0.1043667718768119,-0.6804886935353279,-9.19003785856962,-3.3541789107233284,50,walking
1783066635015191300,6.873964,0.1217825053676962,0.3144534874290228,0.4729460132956504,-0.0691632553935051,-0.4651372730731964,0.1436030119657516,-0.735147189309448,-9.185868463930488,-3.3540687283471224,50,walking
1783066635035116500,6.8938892,0.3212972889091819,0.4205003712654113,0.4207604835063219,-0.0676989555358886,-0.558931827545166,0.1328453719615936,-0.7957980573661625,-9.178938956928253,-3.3591944007977843,50,walking
1783066635055040300,6.913813,0.197003312177211,0.450874466741085,0.534107753483951,-0.0948250070214271,-0.5255072116851807,0.1013311073184013,-0.8540620302863419,-9.171755182904004,-3.364503613121808,50,walking
1783066635074965200,6.9337379,0.2434681992974132,0.4791869535118341,0.5767635306447744,-0.1108002737164497,-0.5319041609764099,0.0696643814444542,-0.9036694532159716,-9.163255650106072,-3.374687445744872,50,walking
1783066635094889500,6.9536622,0.4741660566098988,0.4228811289221048,0.4414584036201238,-0.1234049424529075,-0.5663987994194031,0.0615455880761146,-0.9530063886411488,-9.15423472378254,-3.3855782575935125,50,walking
1783066635114814200,6.9735869,0.4169914863616228,0.3557224864065647,0.4984188927263021,-0.1094327643513679,-0.5614011883735657,0.024832583963871,-0.9987822705838828,-9.145434162211416,-3.3961507972732186,50,walking
1783066635134738400,6.9935111,0.5634205764036625,0.3145622085005045,0.3441717493444681,-0.0911867395043373,-0.6423583030700684,0.0187351647764444,-1.043158660992235,-9.138242789402604,-3.4021655275180933,50,walking
1783066635154663400,7.0134361,0.4900546036805957,0.1626075599700212,0.2687602422684431,-0.0696431845426559,-0.6984742283821106,-0.041246622800827,-1.0877072661623357,-9.13293357707858,-3.4024709402054545,50,walking
1783066635174587100,7.0333598,0.2769016823437065,0.1112970594495534,0.2338067100480198,-0.0312847271561622,-0.7612161636352539,-0.1052618622779846,-1.1232518961437046,-9.131002316755056,-3.396098190303147,50,walking
1783066635194512400,7.0532851,0.1976020817879587,-0.0991577088445425,0.0206117031350731,-0.0092759914696216,-0.7988617420196533,-0.1830783635377884,-1.1507938369333743,-9.133333390051126,-3.380574750217795,50,walking
1783066635214436400,7.0732091,0.1492269771322608,-0.0748918671160936,0.2136684696435928,-0.0976979359984397,-0.8502757549285889,-0.2188304811716079,-1.1678102920554578,-9.13470409388244,-3.371022201235592,50,walking
1783066635234361300,7.093134,0.4140661734994501,-0.1477022517830133,0.0280880303651094,-0.1325658410787582,-0.95097416639328,-0.1817338764667511,-1.1920321485117078,-9.131475194963812,-3.371291373565793,50,walking
1783066635254285300,7.113058,0.2416020400993525,-0.1420434953689575,-0.0186821963772177,-0.1530218124389648,-1.039741039276123,-0.2282561808824539,-1.222775881017372,-9.127109400969744,-3.372106197080016,50,walking
1783066635274210300,7.132983,-0.0492065139785408,-0.299652224138379,0.1340259008690714,-0.2924570441246032,-1.048222899436951,-0.2925963699817657,-1.2451586124129592,-9.119285575476288,-3.3850521878927946,50,walking
1783066635294134300,7.152907,-0.0240209270566701,-0.4622855030715465,0.0531213493347167,-0.4371962547302246,-1.1152677536010742,-0.3609945178031921,-1.2589720337100323,-9.102550129252672,-3.4247555449888107,50,walking
1783066635314058200,7.1728309,0.0765012020088732,-0.4203063099980354,-0.0253223650440573,-0.4666055738925934,-1.1514571905136108,-0.410492330789566,-1.266718702314049,-9.080634650042652,-3.4796392278209325,50,walking
1783066635333983500,7.1927562,-0.0126890934422612,-0.4383832339584827,-0.3182446964055299,-0.3796291053295135,-1.1376008987426758,-0.5139805674552917,-1.2643182170435785,-9.061808953541515,-3.529237371465564,50,walking
1783066635353907500,7.2126802,-0.0060096156783401,-0.1647603540897369,-0.3847551041454076,-0.104772612452507,-1.1404014825820925,-0.660480260848999,-1.23732908783108,-9.058901541662216,-3.54622445436269,50,walking
1783066635373832200,7.2326049,0.4673847259066999,-0.0398912808835506,-0.3441238185495138,0.0767460167407989,-1.182172417640686,-0.6574079394340515,-1.197765869858116,-9.075432989746332,-3.517423891814053,50,walking
1783066635393756400,7.2525291,0.7416969032138586,-0.3015542583674192,-0.0924599647715687,0.0594704560935497,-1.31804096698761,-0.5971589684486389,-1.171156826004386,-9.09583689534962,-3.473403840562701,50,walking
1783066635413681200,7.2724539,0.2815376715812832,-0.5134598099917173,0.2882189759761095,-0.1177739575505256,-1.4253109693527222,-0.6113905310630798,-1.1567680890373886,-9.108536802446842,-3.44482451954931,50,walking
1783066635433605400,7.2923781,-0.3260610692448913,-0.828888864454627,0.3647603638648987,-0.3460251688957214,-1.484866738319397,-0.6870260238647461,-1.1402378099970518,-9.10764599108696,-3.4526816627904773,50,walking
1783066635453530400,7.3123031,-0.8921521069668232,-0.8760124346792697,0.788576727810502,-0.6729901432991028,-1.3167645931243896,-0.7760652899742126,-1.103863816519454,-9.08955328503549,-3.511681548769772,50,walking
1783066635473454300,7.332227,-0.8880849305931479,-0.6009218203455209,1.025852283012867,-0.9076820015907288,-1.1335623264312744,-0.7535567283630371,-1.0510687765296547,-9.047860507687924,-3.6334371661305433,50,walking
1783066635493379300,7.352152,-0.6191339880581945,-0.1439174725472927,0.6573813741922379,-0.7830736637115479,-1.0112093687057495,-0.6894878149032593,-1.000244159829989,-8.998491204363107,-3.767898243546486,50,walking
1783066635513303300,7.372076,-0.6750687873784452,0.3500555466860532,0.4528407983779907,-0.4237439930438995,-0.8991751670837402,-0.6464584469795227,-0.954634355169162,-8.96469239513576,-3.859191210365295,50,walking
1783066635533228300,7.392001,-0.940251609551534,0.5390618687599897,0.6037859776049852,0.0331259034574031,-0.8220870494842529,-0.6568230986595154,-0.903583017041534,-8.961863309189678,-3.8780063854724167,50,walking
1783066635553152300,7.411925,-0.9052038231763988,0.4768664016097784,0.8678495864897966,0.4186923205852508,-0.7794607281684875,-0.5996455550193787,-0.8519905577745288,-8.991695552873612,-3.820199508669972,50,walking
1783066635573077500,7.4318502,-0.8525406659379601,0.1675795031636953,1.3437407133266328,0.5436896681785583,-0.7530052661895752,-0.4868834614753723,-0.811130212663114,-9.03854498233199,-3.7171421620383858,50,walking
1783066635593001500,7.4517742,-0.6163300365533679,0.055925885361433,1.8450930291563272,0.471893846988678,-0.8452533483505249,-0.3786128759384155,-0.7902635118536651,-9.083562520188092,-3.610367840710282,50,walking
1783066635612926200,7.4716989,-0.4737023846209049,0.0181026429235935,1.7686843277364968,0.2225134670734405,-1.0097743272781372,-0.295537531375885,-0.7970201465070247,-9.114423522397876,-3.530217906935513,50,walking
1783066635632850400,7.4916231,-0.8388428338445723,-0.222692903098464,1.914514355906844,0.0003665329422801,-0.9752211570739746,-0.2617421746253967,-0.8165979765497148,-9.125916391792892,-3.495884844700992,50,walking
1783066635652775200,7.5115479,-0.8387001374382526,-0.4213116876482963,1.4373092238619922,-0.0617745816707611,-1.0132392644882202,-0.2428858429193496,-0.8393359511237591,-9.12706322374046,-3.487493448452651,50,walking
1783066635672699100,7.5314718,-0.675474883961305,-0.6680132428437471,0.9248726194381712,0.0077831530943512,-1.052642583847046,-0.2806877493858337,-0.8647448984727263,-9.129059950515629,-3.476044125938415,50,walking
1783066635692624400,7.5513971,-0.646240533105284,-0.4834668227881193,0.8683294789612293,0.111652560532093,-1.040238618850708,-0.3171727955341339,-0.8805120111208409,-9.138829649379849,-3.4462864087954164,50,walking
1783066635712548400,7.5713211,-0.4259671122387051,-0.498062918895483,0.9703668348953128,0.1667259782552719,-1.0102070569992063,-0.2851579487323761,-0.8957817687060683,-9.15371157669127,-3.4025761541455983,50,walking
1783066635732473300,7.591246,-0.3689014091923833,-0.632861849963665,1.0283058136448264,0.1477339267730713,-1.0721373558044434,-0.3180717825889587,-0.912146043529734,-9.17034590062797,-3.3530753333956,50,walking
1783066635752397300,7.61117,-0.3753927439730614,-0.3871650878965854,1.4919813097700476,0.0546279847621917,-1.024571418762207,-0.4012469947338104,-0.9164286162197588,-9.183206551244854,-3.31651202789098,50,walking
1783066635772322300,7.631095,0.0358791226327419,0.4147708877027034,1.697373826238513,0.0569163262844085,-0.9748775959014891,-0.4747603833675384,-0.9007845454294234,-9.19445859762132,-3.289518222503364,50,walking
1783066635792246300,7.651019,0.6580990209423005,1.0491641850173472,1.7932827624201773,0.13141930103302,-0.9826948642730712,-0.428007423877716,-0.8788144864879548,-9.208453805226087,-3.256140269036591,50,walking
1783066635812171300,7.670944,1.4185204983703792,1.196981003090739,1.647113711553812,0.1499238908290863,-1.0841991901397705,-0.2631726264953613,-0.8811718632690608,-9.224439894387125,-3.209929137481749,50,walking
1783066635832095500,7.6908682,1.3683033460445702,0.738402537843585,1.6830287822827696,0.0535394214093685,-1.141996145248413,-0.1943266987800598,-0.9122078567195684,-9.234974732404948,-3.1707255466014144,50,walking
1783066635852019700,7.7107924,1.1206523081045596,0.4857213237166404,1.6311477883979677,-0.0197375584393739,-1.189860701560974,-0.2046916484832763,-0.9487185552541166,-9.23952055914104,-3.1466768547549844,50,walking
1783066635871943700,7.7307164,1.029050202271342,-0.0832657277077436,1.350182144550979,-0.0653280392289161,-1.2046109437942505,-0.1787852197885513,-0.9890971812631936,-9.240504894003273,-3.131319126625359,50,walking
1783066635891868700,7.7506414,0.8950173602048307,-0.4408797269493341,1.365560915468633,-0.1161177977919578,-1.1261316537857056,-0.1747535616159439,-1.0286436672970651,-9.238578309854864,-3.1242516724571585,50,walking
1783066635911792600,7.7705653,0.8752239877153187,-0.7619856580048799,1.0805758068472149,-0.1749477535486221,-1.1229469776153564,-0.1874285638332367,-1.0655630196977406,-9.233506997939944,-3.1268697460010646,50,walking
1783066635931717600,7.7904903,0.5970156066872179,-0.9660188688188792,0.9534814588069916,-0.280125081539154,-1.010602355003357,-0.2284400910139084,-1.0963562904335558,-9.22325448399484,-3.1464205419063567,50,walking
1783066635951641900,7.8104146,0.4046179616745561,-0.8759136504799127,0.9509078089267016,-0.2939642667770386,-0.9914895296096802,-0.3552736341953277,-1.1049219472702592,-9.211306856569648,-3.178263540890813,50,walking
1783066635971566600,7.8303393,0.6610526100508868,-0.900092982968688,0.7069301257371902,-0.2507990896701813,-0.9843336939811708,-0.4026594460010528,-1.0972462980758395,-9.202390559664368,-3.20662600428313,50,walking
1783066635991490600,7.8502633,0.8800763231173158,-0.5887427222520113,0.7739417609974741,-0.1982587277889251,-0.9136595726013184,-0.4192501306533813,-1.0829848407503218,-9.196658153492212,-3.2278485327929256,50,walking
1783066636011415800,7.8701885,1.0686023143284022,-0.2144073053121566,0.7738774635896086,-0.1202052533626556,-0.9373852610588074,-0.4103270769119262,-1.0647118827611208,-9.195554576164485,-3.2370620590791104,50,walking
1783066636031339500,7.8901122,1.3451890124388035,-0.275489258262515,0.790441644899547,-0.1028155907988548,-0.947064995765686,-0.3520163893699646,-1.055640176098421,-9.19672011281252,-3.2367168989032504,50,walking
1783066636051264800,7.9100375,1.3695815492868422,-0.2252729827195405,0.8916653463631868,-0.0602166578173637,-0.8963981866836548,-0.3223603069782257,-1.0535468570809812,-9.198304751655458,-3.2328950025275347,50,walking
1783066636071188700,7.9299614,1.3129786414466798,-0.1924836427956819,0.8835925145447253,0.0323781818151474,-0.7862330675125122,-0.2960444092750549,-1.051861022885889,-9.20415932290256,-3.216742324627936,50,walking
