time,seconds_elapsed,acc_x,acc_y,acc_z,gyr_x,gyr_y,gyr_z,grav_x,grav_y,grav_z,fs_hz,activity
1783066770222259500,0.0,-0.3471402437612414,0.4721674301385879,0.3142109108448028,0.0179605241864919,-0.9342650175094604,-0.6879240274429321,1.1219636829640716,-9.480949726891517,-2.2412442643240094,50,walking
1783066770242184700,0.0199252,-0.1926248048320412,0.520269490006566,0.3717947925463318,-0.1003775298595428,-1.0930683612823486,-0.6337538957595825,1.2017810237836093,-9.464110235771535,-2.2708457679919896,50,walking
1783066770262108700,0.0398492,-0.152896897816658,0.8410545185446738,0.4526994902111589,-0.2197980433702469,-1.381253957748413,-0.5649359226226807,1.2590180648088454,-9.441475210115312,-2.333194818268716,50,walking
1783066770282032400,0.0597729,-0.2794445717595517,0.5569745420694351,1.2466337995320558,-0.2286072820425033,-1.335675597190857,-0.4027486741542816,1.2856076733097432,-9.418363799118994,-2.4108140645220875,50,walking
1783066770301957600,0.0796981,-0.3060356415651738,0.4687146593362092,1.5406825045749544,-0.2893876433372497,-1.0764846801757812,-0.1763011068105697,1.2816728180788457,-9.398637354385851,-2.48863613987118,50,walking
1783066770321881600,0.0996221,-0.2673063901983201,1.441903273653984,0.9198162128314376,-0.3485287129878998,-0.8528289198875427,-0.0041989483870565,1.2480309529788791,-9.37972865577638,-2.5755560061722997,50,walking
1783066770341805600,0.1195461,-0.187357531953603,0.4078028022557496,0.1865469462230801,-0.3595723211765289,-0.8747338056564331,0.2683001160621643,1.1788564405962825,-9.36406288461089,-2.66364783886224,50,walking
1783066770361730600,0.1394711,-0.188506409727782,0.0305272402107715,0.7415060568168759,-0.2347135096788406,-0.8411133289337158,0.4755346775054931,1.0613425524584947,-9.356240812683104,-2.7394670499563216,50,walking
1783066770381654500,0.159395,-0.7394475168518722,0.5743599766343832,0.2094222103759646,0.0593416802585125,-1.0277352333068848,0.4232607185840606,0.9232024212036282,-9.360032021659611,-2.776305665270984,50,walking
1783066770401579500,0.17932,-0.936525647830963,0.6900859584420919,0.2687090966030955,0.3796104192733764,-0.968080461025238,0.3625927567481994,0.7942202135901898,-9.379390802124142,-2.750748030166328,50,walking
1783066770421503500,0.199244,-0.6525801113903522,0.2793798359602689,-0.0047062779948115,0.4783804714679718,-0.8604885339736938,0.351688802242279,0.6801134304821491,-9.40847193517983,-2.6811390718892216,50,walking
1783066770441427500,0.219168,-0.381375471644476,-0.0366840092748403,0.3709761696398258,0.4189170002937317,-0.6509281992912292,0.4272356033325195,0.5670756283124908,-9.43762087277472,-2.603868785203993,50,walking
1783066770461352700,0.2390932,-0.0466958097992464,0.4502613032788038,0.3432651558935642,0.4345366656780243,-0.5604286193847656,0.4352036416530609,0.4541590413697063,-9.462485264918207,-2.534857500559091,50,walking
1783066770481276400,0.2590169,0.2402301672242581,0.0390332027494907,-0.1635422104716301,0.6137104630470276,-0.6862602829933167,0.464162677526474,0.3393161625394597,-9.492688095480204,-2.4380576068870723,50,walking
1783066770501200600,0.2789411,0.0592886945917271,-0.1144873799234628,-0.1473725814372301,0.6672614812850952,-0.7110657691955566,0.4249946773052215,0.2187380279928445,-9.525615967091918,-2.320600271242112,50,walking
1783066770521125600,0.2988661,-0.0894485810611397,0.3482037813395262,-0.1713664743565023,0.6297451257705688,-0.6439071893692017,0.3788217604160309,0.1129415843867231,-9.556452419382332,-2.1981449811793863,50,walking
1783066770541049600,0.3187901,0.2949237708443775,0.4788385784655809,-0.1222397476159036,0.5637851357460022,-0.5512257814407349,0.332076758146286,0.019464896303683,-9.582340893876552,-2.085363674521446,50,walking
1783066770560973600,0.3387141,0.5801998252363875,-0.0604822334915399,-0.0115972065523266,0.5116053223609924,-0.3595960736274719,0.3641682267189026,-0.0649977153217187,-9.6038635743767,-1.9829228523530065,50,walking
1783066770580898600,0.3586391,0.7021468369834125,0.1597626919329166,-0.3394184173375368,0.4313334226608276,-0.2497448623180389,0.3735733032226562,-0.1469914457656908,-9.621348377662896,-1.891677962459624,50,walking
1783066770600822800,0.3785633,0.6852825036831199,0.0210866271704435,-0.6014975744068622,0.3514230251312256,-0.189939260482788,0.37312713265419,-0.2266432664257474,-9.634704118320345,-1.8142521929517388,50,walking
1783066770620747500,0.398488,0.8556297179944813,-0.1095446628242731,-0.6064069737583399,0.1598223447799682,-0.131648451089859,0.3281182050704956,-0.3009232669875025,-9.641889061388373,-1.7646008578151464,50,walking
1783066770640671500,0.418412,1.0246914225399493,0.1956809775322675,-0.6674396807394921,0.0597681328654289,-0.180678591132164,0.3152898848056793,-0.365986654256843,-9.64349941919446,-1.7433720456950366,50,walking
1783066770660595700,0.4383362,1.0172713555417954,0.3002010901927948,-0.3132194155894219,0.0687300413846969,-0.1180998906493187,0.3211899101734161,-0.4347321275724098,-9.642823711889982,-1.731279310710728,50,walking
1783066770680520400,0.4582609,1.0034886216439307,0.4979325705140829,-0.6637088236480951,0.0284516420215368,-0.2453652322292328,0.1950612515211105,-0.4900818935463205,-9.64258581148088,-1.7177739324495196,50,walking
1783066770700444400,0.4781849,1.1707973450422289,0.5562170017004012,-0.4788485153377055,-0.134063109755516,-0.2290582209825515,0.1819369941949844,-0.5331915519544854,-9.639219549918174,-1.7238167197450995,50,walking
1783066770720368600,0.4981091,1.563445832785964,0.5849363157063723,-0.1453809692285954,-0.2852030992507934,0.074013352394104,0.2118055671453476,-0.5732935895118862,-9.629780690443516,-1.7632465205967425,50,walking
1783066770740293400,0.5180339,2.0527083362407983,0.1249491527050733,-0.2678080561101436,-0.3862791955471039,0.4814987182617187,0.3591201901435852,-0.6161874132122844,-9.61421779513061,-1.8323557126581669,50,walking
1783066770760217600,0.5379581,2.253004406353086,-0.0345066652357578,-0.7303500181607901,-0.370957612991333,0.5586755871772766,0.4933442175388336,-0.6782181182548404,-9.59407400176823,-1.9141950608246028,50,walking
1783066770780141600,0.5578821,2.3679507820904253,-0.5042728794515132,-1.232147447409481,-0.1980150043964386,0.4199229776859283,0.6092813014984131,-0.7644340740703046,-9.57471697486937,-1.9775788609765468,50,walking
1783066770800066600,0.5778071,2.2365850403413177,-1.1393699411213398,-1.606171898704022,-0.0180794205516576,0.3068037331104278,0.6905093789100647,-0.8748827730622142,-9.560167055991291,-2.0020393484942614,50,walking
1783066770819990500,0.597731,1.7328768090352415,-1.4586422270089388,-1.4067100874587892,0.0580804198980331,0.479536235332489,0.7273522615432739,-0.9969590737447142,-9.547801495414973,-2.003979376646132,50,walking
1783066770839914500,0.617655,1.025965314933285,-1.2818272779881954,-1.003856432043016,0.0788957402110099,0.8299009203910828,0.633980929851532,-1.101831872300431,-9.53607481726408,-2.004907159015536,50,walking
1783066770859839700,0.6375802,0.9062178955897688,-0.8620026140272616,-1.1272661002211273,0.1890798509120941,0.970783531665802,0.4627329707145691,-1.1692808029994368,-9.528532731321452,-2.002553727757185,50,walking
1783066770879763700,0.6575042,1.2474547605261206,-0.5496235947847365,-1.1056544262632726,0.3893311023712158,1.053990125656128,0.3634890913963318,-1.206603548569232,-9.530263500636815,-1.971942316394299,50,walking
1783066770899688400,0.6774289,1.13618502747491,-0.4328320295721292,-0.9959292923055588,0.5477196574211121,1.1192936897277832,0.2658987641334533,-1.2255185307890175,-9.54081295170188,-1.908237613724917,50,walking
1783066770919612700,0.6973532,1.0210454672530294,0.2170055051118135,-0.6753524996906518,0.6225656867027283,1.1993273496627808,0.116794928908348,-1.2179685538008809,-9.558431610500811,-1.82299722494334,50,walking
1783066770939536600,0.7172771,1.1537785518325865,0.4336936148375273,-0.3932090442359447,0.6601895689964294,1.3713690042495728,0.0269741360098123,-1.1859505635757,-9.579394319030644,-1.7317944206260143,50,walking
1783066770959461600,0.7372021,1.277732409889996,0.696786917385459,-0.4655832294426858,0.7149066925048828,1.3832054138183594,-0.0696562081575393,-1.1352774111106991,-9.6029172334373,-1.6326352504767476,50,walking
1783066770979385600,0.7571261,1.3324790223389864,0.7769920884788036,-0.3741242584072053,0.7428647875785828,1.3703080415725708,-0.1071906387805938,-1.0739050238464027,-9.62805518182516,-1.5223825855135915,50,walking
1783066770999309800,0.7770503,1.440781430017203,0.6203156721234321,-0.0994010160811245,0.6844021081924438,1.4706385135650637,-0.053927157074213,-1.0165591156192124,-9.650646368339656,-1.4149313878372312,50,walking
1783066771019234600,0.7969751,1.488110605816543,0.5374363133847713,-0.1639056369565427,0.587816596031189,1.4888193607330322,-0.0176044050604105,-0.9699152917355298,-9.668771223095058,-1.3207983752869068,50,walking
1783066771039158500,0.816899,1.2412265336610375,0.3187082222640514,-0.1713442625246942,0.4667341411113739,1.5169490575790403,-0.0303072482347488,-0.9278853913880885,-9.682579968217016,-1.247818479271978,50,walking
1783066771059083800,0.8368243,1.0421014800895003,0.1245014089375734,-0.2533936732452362,0.3846651315689087,1.4686009883880615,-0.095171108841896,-0.8791462757255881,-9.693975222456457,-1.193452171377465,50,walking
1783066771079007700,0.8567482,1.1046497062001377,0.0050227965980768,-0.2180535528600215,0.316556453704834,1.3641278743743896,-0.1225257962942123,-0.8242288367543369,-9.704232997098565,-1.1484369716089218,50,walking
1783066771098931700,0.8766722,1.243971594585478,-0.395789708378911,-0.1437748492062091,0.173730581998825,1.3085914850234983,-0.0454432107508182,-0.7766535772394388,-9.711332599970698,-1.1212615991093218,50,walking
1783066771118856700,0.8965972,1.2686913175612686,-0.8061147225886582,-0.0660860448479652,0.0841034501791,1.3222815990447998,0.0434259139001369,-0.7473541983231902,-9.714007372137903,-1.1179961675725876,50,walking
1783066771138780700,0.9165212,1.0468098769761622,-1.4687678997039797,-0.6345775678403676,0.0745009034872055,1.1467448472976685,0.0750127136707305,-0.732421417607367,-9.714698861533403,-1.121868552026525,50,walking
1783066771158704600,0.9364451,0.4729887564588337,-1.5371785881072282,-0.6038222179621457,0.1010570898652076,1.070081353187561,0.0178742427378892,-0.7182450812820345,-9.715868489834666,-1.1209011682990937,50,walking
1783066771178629600,0.9563701,0.0259785639304667,-1.5770762987315654,-0.5050130302943289,0.1141581013798713,1.1443209648132324,-0.0947099179029464,-0.6857310511682182,-9.71891794053316,-1.11481410347037,50,walking
1783066771198553900,0.9762944,0.1823891689565032,-1.8926999989837408,-0.579652091693133,0.1125119626522064,1.23907208442688,-0.1409597843885421,-0.6348929904650896,-9.723068045949937,-1.108708918463066,50,walking
1783066771218477800,0.9962183,0.4416502729304135,-2.255228658273816,-0.8777391123414039,0.2025901824235916,1.1209923028945925,-0.1409635096788406,-0.5812621572382748,-9.728049926015734,-1.0943345753476024,50,walking
1783066771238402600,1.0161431,0.3228160594416782,-2.1938334015905854,-0.984924644818902,0.3229405283927917,0.9086158871650696,-0.1711070388555526,-0.52961511823982,-9.735575645345447,-1.0528403162468225,50,walking
1783066771258326800,1.0360673,0.0164644107298925,-1.8682091163277623,-0.4720499412387609,0.3175796270370483,0.9964978098869324,-0.1684114336967468,-0.4774981236420571,-9.743968210637568,-0.9987380661159754,50,walking
1783066771278251500,1.055992,-0.0809228178434074,-1.4818448234200476,-0.4669259492885321,0.3091872632503509,1.0897852182388306,-0.1719278395175933,-0.4245526788635179,-9.751449506303668,-0.9483465801365673,50,walking
1783066771298175700,1.0759162,-0.3168954006884247,-1.087818617582321,-0.7329441993724555,0.3742917776107788,0.9697191119194032,-0.2491225004196167,-0.3660505498059094,-9.759261056837438,-0.8906236552905291,50,walking
1783066771318099700,1.0958402,-0.7137699816945939,-0.2955693387389183,-0.694746351468563,0.4024117588996887,0.8178130984306335,-0.3681604564189911,-0.2905973772789351,-9.768008426916598,-0.8197356169883161,50,walking
1783066771338024700,1.1157652,-0.9746054223131388,-0.1878074676781892,-0.4934901310872286,0.3087762296199798,0.9056828022003174,-0.3776296973228454,-0.2028929182050749,-9.775511934414505,-0.7540386445231735,50,walking
1783066771357948700,1.1356892,-1.379808052007854,-0.0509656326055526,-0.5495247375201433,0.2240065783262252,1.0785070657730105,-0.4001429080963135,-0.1138743991242721,-9.78052362509668,-0.7062340332318097,50,walking
1783066771377872600,1.1556131,-1.7120602309778332,0.5165963544517755,-0.7573854707330465,0.2059465646743774,1.1840969324111938,-0.4807440340518951,-0.0126627054755459,-9.78395243050158,-0.666715677313879,50,walking
1783066771397797600,1.1755381,-1.80941030587852,0.8091244257986545,-0.6671907474797218,0.2800237834453583,1.2957258224487305,-0.5063444972038269,0.1002495500687044,-9.786630709800123,-0.6181960496209562,50,walking
1783066771417721900,1.1954624,-1.817185323794186,1.8059277244597671,-0.9610113428551704,0.365444540977478,1.2226731777191162,-0.5224754810333252,0.2163623849026858,-9.788645556753874,-0.5531713869268075,50,walking
1783066771437646600,1.2153871,-1.7263601206175982,1.852861325070262,-0.7525842079311609,0.4914794266223907,1.2155036926269531,-0.4312998652458191,0.3224601221434772,-9.79038743198514,-0.463370777557604,50,walking
1783066771457570800,1.2353113,-1.501521437662095,1.820185966914892,-0.7784557312905788,0.6156359910964966,1.1105906963348389,-0.3246099352836609,0.4057254479924216,-9.792129891738297,-0.3463703918999061,50,walking
1783066771477494800,1.2552353,-1.280253598930687,1.5135703335046766,-0.8768827877730131,0.667542040348053,0.8726831078529358,-0.2350947260856628,0.4660753968738019,-9.793319393783808,-0.2099354205951094,50,walking
1783066771497419500,1.27516,-1.1859001485627143,0.8165776644140481,-0.8402028701514005,0.535049557685852,0.605139970779419,-0.1565680205821991,0.506844702700898,-9.793187876358628,-0.08351001219186,50,walking
1783066771517343700,1.2950842,-1.1216669650398194,0.6456658019572497,-0.6361234821081161,0.3096013963222503,0.4631266593933105,-0.0602910965681076,0.5282043015938251,-9.792413969376682,0.0054007059827796,50,walking
1783066771537267700,1.3150082,-0.7960451639950274,0.4612181661009788,-0.629848055100441,0.0333975665271282,0.3763385713100433,0.0691641867160797,0.5281938897976651,-9.792319861352444,0.043418295099074,50,walking
1783066771557192700,1.3349332,-0.6713283587411045,0.1270651219457388,-0.7630196772277354,-0.2665967643260956,0.3018311560153961,0.1885449141263961,0.5011903667336329,-9.793805131474135,0.024708272283303,50,walking
1783066771577116700,1.3548572,-0.9939544851012528,0.4857078797131776,-0.5198100558012724,-0.5625249743461609,0.3312764465808868,0.1819324195384979,0.4630401938963681,-9.795559866186975,-0.0544991952928714,50,walking
1783066771597041700,1.3747822,-0.9728370244011282,0.9163497057646512,-0.5771282723039388,-0.7752917408943176,0.3645828068256378,0.1037956327199935,0.4359373386437073,-9.795246562454103,-0.1830306999967433,50,walking
1783066771616966000,1.3947065,-0.7496295959092676,1.1688263372302057,-0.4801151742726564,-0.8598069548606873,0.4423039853572845,0.0652618706226348,0.422970633836463,-9.791544200804829,-0.3422928767953068,50,walking
1783066771636889600,1.4146301,-0.3186693515583872,1.2486971618026494,-0.4359826025575399,-0.7398333549499512,0.5817333459854126,0.1216674670577049,0.4096490146443247,-9.785522456297278,-0.496109665935859,50,walking
1783066771656814800,1.4345553,0.0698641386145725,1.15520347006917,-0.5937795108428224,-0.4770164489746094,0.4986756443977356,0.1870227754116058,0.385483053093776,-9.78001509105265,-0.6108030532928184,50,walking
1783066771676738800,1.4544793,0.3551875392796471,0.9023089054524898,-0.1757458584845066,-0.2490854114294052,0.5075995922088623,0.2779127359390259,0.3470618082301691,-9.777165546840427,-0.6759911629203706,50,walking
1783066771696662800,1.4744033,0.5955222263243048,0.6396475645810366,0.1632353364795446,-0.1172321662306785,0.6112084984779358,0.3832458257675171,0.2900330579270608,-9.776819509881737,-0.7071680992115289,50,walking
1783066771716587800,1.4943283,0.657751595744118,0.2850859386473894,0.3927525326400995,-0.0430747270584106,0.7669508457183838,0.4791682660579681,0.2152341663240455,-9.77794588356316,-0.7182141746871173,50,walking
1783066771736511700,1.5142522,0.6017500878632068,0.2055897926062345,0.4204490064043551,0.0636474415659904,0.7794736623764038,0.5021358132362366,0.1290799871657975,-9.779702371841667,-0.714935518342629,50,walking
1783066771756436500,1.534177,0.5036806126467883,0.0454144282191991,0.1932194827895611,0.1819787770509719,0.6748649477958679,0.4332461357116699,0.0477338476100936,-9.782334473910929,-0.6885200242996216,50,walking
1783066771776360700,1.5541012,0.4747920795537531,0.0782657274633645,0.338308410269022,0.1702930331230163,0.6830514073371887,0.3438645899295807,-0.0185468818430439,-9.78495780815184,-0.6516494064114987,50,walking
1783066771796284700,1.5740252,0.6282897197425366,0.1899111619591713,0.402640377991274,0.0607987120747566,0.7722772359848022,0.3030776977539062,-0.0719370998305734,-9.786170106551053,-0.6293414938177913,50,walking
1783066771816210000,1.5939505,0.7670576275069266,0.1617553270548582,0.1697393115460872,-0.0180044658482074,0.7877947092056274,0.2587072849273681,-0.1168823579017538,-9.785847450467944,-0.6276303059857339,50,walking
1783066771836133600,1.6138741,0.8199397612582892,0.1800572919428348,0.1956418145656585,-0.0955668464303016,0.7912523150444031,0.1922682225704193,-0.1509100896473042,-9.78454688926339,-0.6405146297391504,50,walking
1783066771856057600,1.6337981,0.9205589209575206,0.133361007219553,0.2542997552394866,-0.1731016337871551,0.7508587837219238,0.1198133006691932,-0.1710240906596183,-9.78229238833487,-0.6692451957914978,50,walking
1783066771875982800,1.6537233,1.167379937814176,-0.0703425332486629,0.2893301520884037,-0.2411209642887115,0.7887701392173767,0.118794284760952,-0.1824651933347806,-9.77895418382287,-0.7135527587473393,50,walking
1783066771895906600,1.6736471,1.351552409990877,-0.4121481379836798,0.1754342352520674,-0.2177730798721313,0.8611776232719421,0.1748189628124237,-0.1984451632822863,-9.774881819817423,-0.7633602342937141,50,walking
1783066771915830500,1.693571,1.226918460714817,-0.6094593470662832,0.1020762266397476,-0.1125514879822731,0.9119892120361328,0.2121063619852066,-0.223448781233374,-9.771349554038046,-0.8007342716593295,50,walking
1783066771935755800,1.7134963,0.8633443840250372,-0.7004793421626091,-0.0520517473418265,0.0492861904203891,0.9205200672149658,0.1477542519569397,-0.2447426579463295,-9.76996423715949,-0.811357226352021,50,walking
1783066771955679700,1.7334202,0.6562962093040347,-0.8980307897418737,-0.0590688595622777,0.1802435964345932,0.9646775126457214,0.0385753028094768,-0.2479353165077976,-9.771429633536934,-0.7925184511736035,50,walking
1783066771975604700,1.7533452,0.7175825987853109,-1.0570137294739483,-0.1396592305809259,0.3140050768852234,1.0080842971801758,-0.0408690050244331,-0.2314100424361415,-9.775251822173594,-0.7491883549477905,50,walking
1783066771995528200,1.7732687,0.8403258389439433,-1.555254927545786,-0.4182422901403159,0.4005417227745056,1.058130383491516,-0.0695938095450401,-0.2055631237950176,-9.780690798357128,-0.6827914175197481,50,walking
1783066772015452200,1.7931927,0.6737196377918124,-2.0334224748820064,-0.454197400618717,0.3403508961200714,1.1139776706695557,-0.0705447420477867,-0.1779702565357089,-9.785851542121172,-0.6130179893959313,50,walking
1783066772035377200,1.8131177,0.3550144112024456,-2.121721520581841,-0.8344676144350319,0.2326377630233764,1.0790525674819946,-0.0784918591380119,-0.1504597885965369,-9.78943290773928,-0.5610527147611603,50,walking
1783066772055301000,1.8330415,0.0257326537448447,-1.967283823063969,-0.9995276090584696,0.1576624810695648,1.0866817235946655,-0.070294089615345,-0.124194206151925,-9.791686239624022,-0.5270752244986593,50,walking
1783066772075225000,1.8529655,-0.3153710406653582,-1.655904920774698,-1.3271429220080375,0.1564950048923492,1.0271490812301636,-0.1135169491171836,-0.0959828234017826,-9.793465524256227,-0.4991840318799018,50,walking
1783066772095150300,1.8728908,-0.6147489779070019,-1.4397855508476496,-1.4325836566448211,0.1920973807573318,1.0837011337280271,-0.1344165802001953,-0.0607152202635072,-9.795305014643072,-0.4676645657613873,50,walking
1783066772115074000,1.8928145,-0.6121203099038451,-1.239100481417775,-1.6811995210289954,0.3064505755901336,1.1122249364852903,-0.1071267947554588,-0.0266827050282736,-9.797570621487498,-0.4210590280614793,50,walking
1783066772134999300,1.9127398,-0.7281626641843467,-0.7304869424134492,-1.8507792580991984,0.4570960402488708,0.9817874431610109,-0.093261033296585,0.0001756194483478,-9.800558112865684,-0.3456015994844958,50,walking
1783066772154923300,1.9326638,-1.138584709027782,0.2563531806379556,-1.5522043078035117,0.4782162010669708,0.9459424614906312,-0.1704466938972473,0.030218872947921,-9.80338193811476,-0.2513777485792525,50,walking
1783066772174847200,1.9525877,-1.232342385459691,1.2427999204576017,-1.2080816582977771,0.3708482384681701,1.0021545886993408,-0.2812150716781616,0.0789357265462633,-9.80491513903141,-0.1667888459763489,50,walking
1783066772194772200,1.9725127,-0.9852648365586996,1.4180366603761911,-1.377047647383809,0.2903684079647064,0.9380056858062744,-0.3496838212013244,0.1444510679673403,-9.805074713507294,-0.1001746582015883,50,walking
1783066772214696200,1.9924367,-0.6665458737049251,1.5016735594838857,-1.4230325689673422,0.1868543773889541,0.8386211395263672,-0.3425319194793701,0.2147898566226475,-9.80416636649072,-0.0507478753687581,50,walking
1783066772234621200,2.0123617,-0.46457755953148,1.7752689668238162,-1.4374094693660735,0.0775234922766685,0.7481338381767273,-0.2779052555561065,0.2764831281380728,-9.802727273598313,-0.0217065697166719,50,walking
1783066772254545200,2.0322857,-0.3128211004542187,1.7790134140491485,-1.516089622849226,0.011358936317265,0.6141638159751892,-0.1754336357116699,0.3212009158626198,-9.801384042295814,-0.0094655990678234,50,walking
1783066772274469000,2.0522095,-0.3526819131342694,1.5714946992069485,-1.588429467394948,-0.0587803795933723,0.5139071345329285,-0.0933292284607887,0.3466964455164968,-9.800516027289628,-0.0089518511342059,50,walking
1783066772294394400,2.0721349,-0.4135303130570799,1.4043845671206712,-1.5241981105029585,-0.1729707866907119,0.4585162103176117,-0.0591556504368782,0.3613068258775398,-9.799951379144192,-0.0279928377787699,50,walking
1783066772314318000,2.0920585,-0.3285668415207415,1.1953554477155208,-1.4919664044618606,-0.2910928428173065,0.4061335921287536,-0.0366143137216568,0.3712135951248929,-9.799367441776392,-0.0705497051593614,50,walking
1783066772334242000,2.1119825,-0.0865881501287221,0.9121540076404808,-1.486214124545455,-0.3999083638191223,0.3521131575107574,0.0113539230078458,0.3750894136449322,-9.798532159996032,-0.13585739061255,50,walking
1783066772354167300,2.1319078,0.0423848877975717,0.7458487621963024,-1.374143742635846,-0.4155422151088714,0.401936411857605,0.0881035923957824,0.3665745371473953,-9.797427998146414,-0.2154563211747445,50,walking
1783066772374091300,2.1518318,0.1019151177939027,0.7903174339979887,-1.5144114605039358,-0.3104173839092254,0.372707724571228,0.1356188654899597,0.3466985278757289,-9.796405084839463,-0.2839332066820003,50,walking
1783066772394016300,2.1717568,0.0898471519246697,0.6870207256525754,-1.1969091068983078,-0.2831943929195404,0.4310157597064972,0.1526499986648559,0.3203095199808478,-9.795610719591378,-0.3373253540484234,50,walking
1783066772413940200,2.1916807,0.102932770403847,0.6514122366547584,-0.9550310263365508,-0.3561730980873108,0.5399622917175293,0.1215127632021904,0.2968987972443923,-9.794119019728898,-0.3967953052248805,50,walking
1783066772433864200,2.2116047,0.2978497778262943,0.8731821796894073,-0.9969757326185704,-0.3608676195144653,0.5957129597663879,0.0854820236563682,0.281696698067896,-9.791582779249548,-0.4646841617111116,50,walking
1783066772453789200,2.2315297,0.5608624894186854,1.0671049153774976,-1.0097679941743611,-0.3343788087368011,0.6431096196174622,0.0810409411787986,0.2724693259194493,-9.788582428389788,-0.5289556314177811,50,walking
1783066772473713200,2.2514537,0.8292471033077686,1.299534199592471,-0.8571259479016065,-0.3283586800098419,0.7722647190093994,0.1525757163763046,0.2590671888370067,-9.78548270880878,-0.5895705148456618,50,walking
1783066772493637000,2.2713775,1.1061967895116656,1.2354852135300636,-0.8503630296379328,-0.2600858509540558,0.8673344254493713,0.2971299588680267,0.2257274302224628,-9.782785140287876,-0.6454142383489757,50,walking
1783066772513562000,2.2913025,1.1290817713409662,0.9710252988040446,-1.1045208191234617,-0.0023645334877073,0.7719833850860596,0.3893048465251922,0.1682762715225108,-9.782287127637863,-0.6700318161245435,50,walking
1783066772533486000,2.3112265,0.9475381132978944,0.6083750589609146,-0.8836842114161699,0.232538640499115,0.7262643575668335,0.4106022119522095,0.1000746410263702,-9.78505016261041,-0.6427688384067267,50,walking
1783066772553411300,2.3311518,0.885983720530197,0.072528060594201,-0.5069645662209019,0.2655525803565979,0.7678006291389465,0.4530043601989746,0.025458857755165,-9.788796363401412,-0.5909264229666441,50,walking
1783066772573335300,2.3510758,0.8530950118850916,-0.6899456731885671,-0.4867763126622885,0.253635972738266,0.7179743647575378,0.4750597476959228,-0.0585194683514768,-9.791568750724196,-0.5404858371485024,50,walking
1783066772593259000,2.3709995,0.5718165757618844,-0.7342015790224075,-0.4477490281969308,0.2243706583976745,0.6462804079055786,0.3421491384506225,-0.1332287774083204,-9.793252173766492,-0.4948181282879784,50,walking
1783066772613184300,2.3909248,0.5110265914954245,-0.470897264072299,-0.1540595118552446,0.1151717901229858,0.705743134021759,0.1315833479166031,-0.1725464231223799,-9.794242938369512,-0.4619987585520371,50,walking
1783066772633108200,2.4108487,1.0620018200848251,-0.4371072226732969,-0.0905307502746581,-0.0379738546907901,0.7509249448776245,0.0159426443278789,-0.1780925677411258,-9.794363934400677,-0.4572923344267532,50,walking
1783066772653032200,2.4307727,1.597827410337329,-0.4456277982592582,-0.2221416989564895,-0.1217775344848632,0.7228432893753052,0.0180701650679111,-0.1732773312128148,-9.793475461128354,-0.4777131911648437,50,walking
1783066772672957200,2.4506977,1.7798922427102923,-0.2962152354270219,-0.5600521228838712,-0.0629809126257896,0.6374486684799194,0.0318850427865982,-0.1717369881693273,-9.792352594578263,-0.5007286309733987,50,walking
1783066772692881200,2.4706217,1.6492248584888876,-0.0865448955088853,-0.6293265885096043,0.0374085344374179,0.5826654434204102,0.0070730950683355,-0.1699074529209174,-9.79222926045954,-0.5037295298224315,50,walking
1783066772712805400,2.4905459,1.485220875724405,-0.1579740549504756,-0.4371802513768896,0.0257838405668735,0.6120684146881104,-0.024829002097249,-0.1622747112864628,-9.792626735344529,-0.4985034657372161,50,walking
1783066772732730000,2.5104705,1.3835197660073637,-0.5263607926189899,-0.5141635743469,0.0053566289134323,0.6336102485656738,-0.0459687784314155,-0.1488599704507738,-9.792798000258207,-0.4993316967222839,50,walking
1783066772752654300,2.5303948,1.3823749798864124,-0.6602589754551649,-0.7159224835533649,0.1010357290506362,0.6415404081344604,-0.0543489642441272,-0.1323024472104851,-9.793424607723953,-0.491653088385798,50,walking
1783066772772579000,2.5503195,1.357252521328628,-1.0638000286132097,-0.7941893069952726,0.1805203855037689,0.6369646787643433,-0.0430976152420043,-0.116756786160171,-9.794951378899812,-0.4644124686302617,50,walking
1783066772792503000,2.5702435,1.230217794521153,-1.5283166517376898,-0.6679191348195076,0.1458817273378372,0.6346260905265808,-0.0321927554905414,-0.1038954596898518,-9.796555891487,-0.4325156570993363,50,walking
1783066772812427300,2.5901678,1.1482068161148578,-1.7989058629989625,-0.6291396145701408,0.0829660668969154,0.6161667704582214,-0.0170787330716848,-0.0938602965561673,-9.797558931049704,-0.4115897003833204,50,walking
1783066772832352300,2.6100928,1.0433002614200115,-1.9650906969338653,-0.7692845828413963,0.0487002171576023,0.626051664352417,0.0068665314465761,-0.0878641157481353,-9.79807097222507,-0.4005823494829237,50,walking
1783066772852276000,2.6300165,0.6487247511364519,-2.034268278056383,-0.9601637130498886,0.0165206473320722,0.6430455446243286,-0.0134374946355819,-0.0835434760700445,-9.798324070203304,-0.3952538114039227,50,walking
1783066772872201200,2.6499417,-0.160051537077967,-1.9180898763060568,-1.0493611688941715,0.0118883121758699,0.6479347348213196,-0.1667664498090744,-0.0629084651246201,-9.798533913561702,-0.3938932271078229,50,walking
1783066772892125200,2.6698657,-0.7427912743218242,-1.0209475598365068,-1.0721505083292722,0.084124706685543,0.650908887386322,-0.399100512266159,-0.0024040286490155,-9.799048292824626,-0.3860680864401161,50,walking
1783066772912049400,2.6897899,-0.8277157290220261,-0.0842488935261964,-1.0787480068981647,0.1978275924921035,0.6786869168281555,-0.5500199794769287,0.0970353829283267,-9.799614110013842,-0.3585209580186754,50,walking
1783066772931974100,2.7097146,-0.7620183181654662,0.6032306818097829,-1.1773083343714474,0.3046501278877258,0.6894112229347229,-0.5863968729972839,0.2146439818785525,-9.799508896073698,-0.3064981810430064,50,walking
1783066772951898000,2.7296385,-0.8544472302116454,1.169996550053358,-1.0345248342901467,0.3674648106098175,0.7359336614608765,-0.5447301864624023,0.3296681172935292,-9.798249835923311,-0.2366463721870444,50,walking
1783066772971822300,2.7495628,-1.029852166303992,1.5513076512247324,-0.987326445263624,0.4022889733314514,0.7143568992614746,-0.4701151251792907,0.4321995403548702,-9.795890705576538,-0.1553060778502374,50,walking
1783066772991747800,2.7694883,-1.1782793713606894,1.7097002238482235,-0.8634381997883319,0.4208389520645141,0.5858035087585449,-0.3677126765251159,0.5159833005873486,-9.792824303743243,-0.0689539558339398,50,walking
1783066773011671800,2.7894123,-1.2127996267303824,1.5505606322497127,-0.8465326576948166,0.3590123653411865,0.4536347687244415,-0.2282700985670089,0.5751937240447849,-9.789756148344278,0.0143981852153548,50,walking
1783066773031595800,2.8093363,-1.2024734630271792,1.2773814044952392,-0.6286755041897296,0.136067733168602,0.3675194084644317,-0.0817737728357315,0.604970511214435,-9.787720843124388,0.0700785713831195,50,walking
1783066773051520800,2.8292613,-1.1624504455227405,0.982888170555234,-0.462916786712408,-0.1898635327816009,0.2995544075965881,0.0787707641720771,0.6052000456539913,-9.787714413383602,0.0690707414808683,50,walking
1783066773071444700,2.8491852,-1.0575633261807262,0.7511006913751364,-0.5181003292739391,-0.4443151652812958,0.2327372729778289,0.2570031583309173,0.5718395913112908,-9.789959561961888,0.008285582374109,50,walking
1783066773091370000,2.8691105,-1.1199058005861935,0.3448053710728883,-0.7686825252950191,-0.5389513969421387,0.1387770473957061,0.3831604719161987,0.5083368409547955,-9.79307272554636,-0.0876935449542012,50,walking
1783066773111293700,2.8890342,-1.3059636481180783,0.2575900289565325,-0.8361503798902035,-0.5351813435554504,0.1526506394147873,0.3963418304920196,0.4298354415720328,-9.795341839522123,-0.1921589956848882,50,walking
1783066773131217700,2.9089582,-1.4011191355839372,0.61302726868093,-0.7552940514117479,-0.5009720325469971,0.2269688248634338,0.2761636972427368,0.3636816652501001,-9.795539992442729,-0.2924683222499676,50,walking
1783066773151143000,2.9288835,-0.9767674957178532,0.8741945716023445,-0.5796949079215526,-0.4660885632038116,0.347331702709198,0.181747168302536,0.3228511672876775,-9.793792856514454,-0.3844203922983258,50,walking
1783066773171067000,2.9488075,-0.2031468929661437,0.8374445113539696,-0.3130535575032234,-0.4530647993087768,0.4711040556430816,0.2209119349718094,0.289188533394318,-9.791010532319545,-0.4720952416852116,50,walking
1783066773190990800,2.9687313,0.2939708357674069,0.656691053840518,-0.2267582163086161,-0.4030108451843261,0.5476633906364441,0.3058997690677643,0.2427792123862542,-9.788025963550805,-0.5531529014220461,50,walking
1783066773210915800,2.9886563,0.364696029924415,0.6729173814982176,-0.1456944190919399,-0.3333807289600372,0.58702152967453,0.3310253918170929,0.1871674892742186,-9.785099262449144,-0.6222457634031773,50,walking
1783066773230839800,3.0085803,0.4586827658718451,0.7681950340390205,-0.0273906226854771,-0.2553883492946625,0.6433561444282532,0.3539097607135772,0.1290937142970506,-9.782363115483522,-0.6775518363658338,50,walking
1783066773250764800,3.0285053,0.7385915576096623,0.612604074832797,-0.0468343049544841,-0.14255391061306,0.6949073076248169,0.4206809103488922,0.063615617880132,-9.780302675822377,-0.7155691400710493,50,walking
1783066773270688800,3.0484293,0.7750357667792588,0.5833744732171297,0.002631517547369,-0.0273103304207324,0.7540090084075928,0.4671683311462402,-0.0132306940722512,-9.779352827751636,-0.7310673726499081,50,walking
1783066773290613000,3.0683535,0.7017583491224795,0.6282604936480521,0.159539989092946,0.0479409992694854,0.7212642431259155,0.4542705416679382,-0.0928829668234568,-9.779048876368998,-0.7293597650144249,50,walking
1783066773310537700,3.0882782,0.6311154446877538,0.4762877249389886,0.3074059800703078,0.0670391321182251,0.6914204955101013,0.4331057965755462,-0.16933374468619,-9.778808637872338,-0.7187594605449587,50,walking
1783066773330461700,3.1082022,0.5438000762630254,0.3774731304436922,0.3867759424485266,0.0339400246739387,0.6687158942222595,0.3754189610481262,-0.2388385850016958,-9.77785528267026,-0.7119384554184973,50,walking
1783066773350386000,3.1281265,0.4141895076181739,0.2286152788847684,0.3980716818362474,-0.0449531152844429,0.663375973701477,0.2786608338356018,-0.293431943117734,-9.776092949172854,-0.715752387683466,50,walking
1783066773370310700,3.1480512,0.3408538204355165,0.2405015315115451,0.5962322012245654,-0.1535219550132751,0.7190973162651062,0.1537822633981704,-0.3251418720407411,-9.773314716631171,-0.7395848794959485,50,walking
1783066773390234600,3.1679751,0.6818506295382976,0.2893763293176889,0.6195633924514055,-0.2101439535617828,0.7313542366027832,0.1078512519598007,-0.33798334303312,-9.76966671551764,-0.780872802369669,50,walking
1783066773410159900,3.1879004,1.0581729825116692,0.1792769552201032,0.5810871659975498,-0.1953644752502441,0.7060507535934448,0.1551061272621154,-0.3508360660718754,-9.765511933925747,-0.825894504944235,50,walking
1783066773430083800,3.2078243,1.2009293023250995,0.0337456177353858,0.6167687932968139,-0.0974300578236579,0.6507779359817505,0.2128021568059921,-0.3758275186611339,-9.761536600553988,-0.8611269271712749,50,walking
1783066773450007800,3.2277483,1.2354478041291237,-0.2560878077000379,0.4491757730644196,0.094414584338665,0.4879381358623504,0.2164430171251297,-0.4076527262605726,-9.759757315921783,-0.8668141059622168,50,walking
1783066773469932800,3.2476733,1.118326933896914,-0.8358832533866166,0.451407477639243,0.3379710912704468,0.3098662793636322,0.1682460010051727,-0.4389722858928144,-9.761752289131284,-0.8281951100368052,50,walking
1783066773489856800,3.2675973,0.8795770683582872,-1.4349626607358454,0.5558429807562381,0.5030549764633179,0.3021320700645447,0.085568256676197,-0.4590953652607277,-9.767357269531487,-0.7472294759649782,50,walking
1783066773509781000,3.2875215,0.5670551700463519,-1.7605606425136326,0.7482722630161791,0.5892170071601868,0.4364916682243347,-0.047732625156641,-0.4585678707879036,-9.77470237159729,-0.6444239121373743,50,walking
1783066773529705700,3.3074462,0.539527403912507,-1.8371750956386328,0.8203618591278791,0.656347930431366,0.4946252405643463,-0.1885705590248108,-0.4295437651490792,-9.783082661929726,-0.5264737514741719,50,walking
1783066773549630000,3.3273705,0.7424630652807652,-1.978625885811448,1.0776561200082302,0.6893881559371948,0.6095278859138489,-0.2496742606163025,-0.3809386145971715,-9.791119837912916,-0.3990494408272206,50,walking
1783066773569554700,3.3472952,0.9392667632326483,-2.168658043801784,0.9869880070894956,0.6947458982467651,0.6843923330307007,-0.2756041884422302,-0.3257526243502274,-9.797563022702931,-0.2684284895634278,50,walking
1783066773589478700,3.3672192,0.8561418322350829,-2.2756553602308034,0.4600906233757734,0.6419496536254883,0.5752119421958923,-0.3070016205310821,-0.2659711047402583,-9.802043967509269,-0.1398658864683937,50,walking
1783066773609403000,3.3871435,0.4019850558876991,-2.202611166808009,0.2463414897114038,0.4288735389709472,0.5632687211036682,-0.3117980659008026,-0.2041641437172889,-9.804459796479344,-0.0356516728357062,50,walking
1783066773629328000,3.4070685,0.0523519723974168,-1.888475074765086,-0.2150385889530181,0.1713346540927887,0.5731215476989746,-0.2794016301631927,-0.1452768969327676,-9.805552852413058,0.0199109298879979,50,walking
1783066773649251800,3.4269923,-0.3017429493399337,-1.363894151300192,-0.960026934927702,0.0391031205654144,0.5625523924827576,-0.2229302525520324,-0.0968916362092364,-9.806104056555032,0.0364635942900786,50,walking
1783066773669175800,3.4469163,-0.5704041151480749,-0.3607552198767662,-1.5703578041315078,0.1095667481422424,0.5897566676139832,-0.1790903955698013,-0.0574752702279016,-9.806371767580508,0.0464478857530513,50,walking
1783066773689100800,3.4668413,-0.4919922206796705,-0.0600245528519153,-2.315388235682249,0.3631918728351593,0.5507777333259583,-0.1126179248094558,-0.0299437503675464,-9.806181213444471,0.0911749207965564,50,walking
1783066773709025000,3.4867655,-0.7509020269978791,0.3138192811787128,-2.429671617466211,0.5894687175750732,0.5679150819778442,-0.1302317082881927,-0.0098555413836147,-9.804882990327476,0.1858562422788701,50,walking
1783066773728948700,3.5066892,-0.8939311724033207,0.9621060792893172,-2.139528979951143,0.6367670297622681,0.5951786637306213,-0.2207966446876526,0.0219928849779185,-9.80179905283749,0.3076659461807459,50,walking
1783066773748873700,3.5266142,-0.4698236434914171,0.9628770636618136,-1.9216589669644832,0.5046852231025696,0.6256765723228455,-0.2087895274162292,0.0620612234784057,-9.797330967512726,0.4228889469023794,50,walking
1783066773768798000,3.5465385,-0.1338720802805386,0.8385521803349256,-1.774256574910879,0.204772338271141,0.6526212096214294,-0.1226284727454185,0.0885318863413296,-9.793763045898078,0.4947057174220681,50,walking
1783066773788722700,3.5664632,-0.2045413064666092,0.9687123456865548,-1.6920447401702403,-0.1496276259422302,0.6505492925643921,-0.0769160464406013,0.1008424744605552,-9.793289583167434,0.5016774561308324,50,walking
1783066773808647000,3.5863875,-0.2685264700451865,1.126897413039207,-1.5910791051208972,-0.5196886658668518,0.680987536907196,-0.0729582458734512,0.1093120322453323,-9.7963010399431,0.4369244865175336,50,walking
1783066773828571000,3.6063115,-0.1084684301611967,1.2783745071858168,-1.706109505879879,-0.7494239211082458,0.6882673501968384,-0.0512304119765758,0.1174466681204736,-9.800983060279489,0.3119357689870521,50,walking
1783066773848495600,3.6262361,0.117494288388174,1.2867390154272318,-2.0003589941918847,-0.7661406993865967,0.670430064201355,-0.0037441977765411,0.1201301989828702,-9.80456033424437,0.1629589489572681,50,walking
1783066773868419800,3.6461603,0.2107489472013898,1.4235697445839643,-2.0066823519945145,-0.6474432945251465,0.7029106020927429,0.0623214542865753,0.1129171714646741,-9.805969031998517,0.0248814140602364,50,walking
1783066773888343800,3.6660843,0.3634781420346349,1.4303320783257485,-1.8276169936984776,-0.4376224875450134,0.6816999912261963,0.1121920496225357,0.0962086041148286,-9.805849205011128,-0.0804121923069935,50,walking
1783066773908269000,3.6860095,0.5312292023729532,1.3152268587648868,-1.520620252016187,-0.2097848206758499,0.652525007724762,0.17319156229496,0.0703140195402316,-9.80536580540836,-0.14230221937038,50,walking
1783066773928192800,3.7059333,0.534213771141693,1.0872791038781404,-1.2981097197473048,-0.0663444772362709,0.5837538242340088,0.2009592354297638,0.0350076667105895,-9.805165314400195,-0.1669921682624146,50,walking
1783066773948117800,3.7258583,0.3785412711318582,1.003642204770446,-0.8582593358457088,-0.0829001516103744,0.5855807065963745,0.1570459157228469,0.0012390097366776,-9.80502736723423,-0.1784301656650379,50,walking
1783066773968042000,3.7457825,0.3499760151764378,1.0894015028595925,-0.3582341769665479,-0.2056897431612014,0.6871755123138428,0.1011296957731247,-0.0218208460293943,-9.804446352475882,-0.2067973234987817,50,walking
1783066773987969000,3.7657095,0.719776382502541,1.3825988517701624,-0.3188351000467315,-0.2546791434288025,0.6573104858398438,0.0508652850985527,-0.0329398109279689,-9.803306534790991,-0.2539778663413599,50,walking
1783066774007893800,3.7856343,1.2078870855737476,1.5136960057109594,-0.2048801464995369,-0.270025372505188,0.5907788276672363,0.0512156262993812,-0.0384692304574884,-9.801822433713076,-0.3052345725816674,50,walking
1783066774027818000,3.8055585,1.5068141372427344,1.4281547342866658,0.0246551698395982,-0.3228668570518493,0.5957094430923462,0.0891380906105041,-0.0478475873499875,-9.799780114230511,-0.3638835079651326,50,walking
1783066774047742000,3.8254825,1.543065746449679,1.1905617836982012,0.1058177877882495,-0.2965430617332458,0.6086716651916504,0.1077587157487869,-0.0628506111572729,-9.79711820154488,-0.4276882004102691,50,walking
1783066774067666700,3.8454072,1.5110707717739045,0.9418775302529334,-0.1266033496528864,-0.1217570379376411,0.4808054864406585,0.0762856900691986,-0.0758965323803015,-9.795036719095709,-0.4710494589593261,50,walking
1783066774087591000,3.8653315,1.582889953446388,0.287794613084197,-0.226176653560996,0.0605275221168994,0.3234339654445648,0.0607097037136554,-0.0848679296068381,-9.794720492753386,-0.4760723651552572,50,walking
1783066774107516000,3.8852565,1.321992991898954,-0.3645762394696474,-0.0305869345087558,0.0682321488857269,0.2549430727958679,0.0266181044280529,-0.0915231314460281,-9.79536931205094,-0.4612717959843576,50,walking
1783066774127440000,3.9051805,0.819661748034507,-0.6516629965454339,0.2408236396053805,0.0014958584215492,0.2932469844818115,-0.0894706100225448,-0.0843426453574094,-9.795735222753882,-0.4548054495144635,50,walking
1783066774147363800,3.9251043,0.5437094753701239,-0.7296417237609625,0.1083165458014234,-0.0184278432279825,0.2374086678028106,-0.2881747484207153,-0.0446680257321102,-9.795868493744733,-0.4575707860419526,50,walking
1783066774167288800,3.9450293,0.5571851526128128,-0.8597410988360643,0.0708346276145428,-0.004243453964591,0.1953021734952926,-0.4355822205543518,0.0292445388898951,-9.795804196336864,-0.4601918187279254,50,walking
1783066774187213000,3.9649535,0.723741194480285,-0.5648088889569044,0.0900753711899742,0.0405245423316955,0.1839924454689026,-0.4893984794616699,0.1226090467191766,-9.795202723312377,-0.45758510682825,50,walking
1783066774207136800,3.9848773,0.9729046828098594,-0.3669394614696502,0.0948901510605588,0.131956472992897,0.141367569565773,-0.4339717924594879,0.2155172210491262,-9.794351074919105,-0.441151420030184,50,walking
1783066774227061800,4.0048023,1.205090002201125,-0.3467582587063312,-0.1381178463578224,0.2448495477437973,0.0124141070991754,-0.3238465487957001,0.2903882645728998,-9.794032510489226,-0.4037196611279621,50,walking
1783066774246986000,4.0247265,1.2754380153425038,-0.6151917532384396,-0.1052490114569664,0.2472775429487228,-0.0651259571313858,-0.1788544505834579,0.3401991559190675,-9.794347567787764,-0.3541383224876597,50,walking
1783066774266910000,4.0446505,1.2449341560073195,-0.8703075010359287,-0.1166577096998691,0.1592078506946563,-0.1102994233369827,0.0067365993745625,0.3566370805008336,-9.795112706941364,-0.3145978643357753,50,walking
1783066774286835000,4.0645755,0.9383785822212696,-1.1407400604307651,-0.2009317741999402,0.0891722440719604,-0.1768764555454254,0.1405538022518158,0.3392272786796093,-9.796423205018042,-0.2922738225911744,50,walking
1783066774306759000,4.0844995,0.2542841192789375,-1.076738420641422,-0.0927992797285318,0.0289634149521589,-0.0894532054662704,0.0919774174690246,0.3138898256642743,-9.797576466706394,-0.2817437703463248,50,walking
1783066774326683600,4.1044241,0.3488475591357797,-1.0359387927412986,-0.1218692886020056,0.0500588677823543,0.0972721353173255,0.0574717037379741,0.3017766324138268,-9.798122994673252,-0.2758674621914513,50,walking
1783066774346607900,4.1243484,0.930676483411342,-1.3634224421352148,-0.4951016944697126,0.1769449412822723,0.0803787037730217,0.1365128457546234,0.2840815839104354,-9.79924293861389,-0.2539840220875106,50,walking
1783066774366531800,4.1442723,0.8107539266966283,-1.4142588954031468,-0.7179179682195186,0.2865880727767944,-0.0622211806476116,0.1752452254295349,0.2522715738801285,-9.801229143995046,-0.2065430930093862,50,walking
1783066774386457000,4.1641975,0.1026414045081473,-1.172635666385293,-0.3944710269957781,0.1698578000068664,0.0130344247445464,0.1163370013236999,0.222670746065583,-9.802834825626014,-0.1588890326372347,50,walking
1783066774406380800,4.1841213,-0.3613130729552358,-1.0804267537653445,-0.3832756792426109,-0.09031293541193,0.1351706534624099,0.0499487332999706,0.2068871206740848,-9.803314718097448,-0.1503318331016227,50,walking
1783066774426304800,4.2040453,-0.7884014443088322,-0.6605956600636244,-0.8255348778516054,-0.2626573443412781,0.1819599270820617,-0.0608022846281528,0.2075082117144949,-9.802663560712338,-0.1873621898624114,50,walking
1783066774446230000,4.2239705,-1.2099123077910392,-0.0314642287999391,-1.2254857975631952,-0.2967247068881988,0.2675023972988128,-0.2406503558158874,0.2374174478910863,-9.80077321692109,-0.2426089338532648,50,walking
1783066774466154000,4.2438945,-1.4576311502702533,0.5401707067847251,-1.257398354652524,-0.2456644177436828,0.4899365305900574,-0.4153977036476135,0.3039252618150785,-9.797501063382626,-0.2949419823545031,50,walking
1783066774486077700,4.2638182,-1.2846471577145158,1.1540309191584586,-1.229988369679451,-0.036387700587511,0.5849620699882507,-0.4756065309047699,0.3968471815425902,-9.793359141272306,-0.3210052836926654,50,walking
1783066774506003000,4.2837435,-0.8278418396197259,1.4859142648160455,-1.3109697858422993,0.2803293466567993,0.5132530331611633,-0.3835700750350952,0.4863687913073226,-9.790203307589888,-0.2928462521842681,50,walking
1783066774525927000,4.3036675,-0.4430697478068992,1.4789830042481422,-1.0397007756233214,0.5505275130271912,0.3630478680133819,-0.2028666287660598,0.5469181717509404,-9.789256382128595,-0.2042366792305372,50,walking
1783066774545852000,4.3235925,-0.3490137094829231,0.8818845415830612,-0.7135340540468692,0.5661112070083618,0.2230620384216308,-0.0361038483679294,0.5701780878398567,-9.789662624841927,-0.0883738279690966,50,walking
1783066774565776000,4.3435165,-0.5683903641728684,0.4899211134940385,-0.4197323095023632,0.387126475572586,0.1008500307798385,0.0269040577113628,0.5703356164891272,-9.790047824767232,0.0086777314883627,50,walking
1783066774585699800,4.3634403,-0.7688324551597238,0.33100130212605,-0.0569897197672398,0.0384118482470512,0.0904659032821655,0.0548451729118824,0.5627814017172903,-9.790341839277744,0.0535483654080191,50,walking
1783066774605624800,4.3833653,-0.7338187171846627,0.3100760029971599,0.1591033512413501,-0.3346695601940155,0.1499688327312469,0.0838755443692207,0.5485673271974548,-9.79126363029778,0.0248015332074603,50,walking
1783066774625548800,4.4032893,-0.5118371041607112,0.3748275843709707,-0.187634449198842,-0.5563568472862244,0.0953410863876342,0.0786398202180862,0.5326366580180824,-9.7919709017843,-0.0631581655693706,50,walking
1783066774645472800,4.4232133,-0.4326523621562868,0.6196148303776979,-0.2104822590892203,-0.651507556438446,0.07127695530653,0.0511955693364143,0.5194422819348052,-9.79120459358692,-0.1814186251576058,50,walking
1783066774665397800,4.4431383,-0.3530423804771155,1.0623749642461535,-0.1108703584700822,-0.6902768015861511,0.1165425777435302,0.0183416381478309,0.5140524055900052,-9.788192552289368,-0.3121551473587751,50,walking
1783066774685321700,4.4630622,-0.0582783302390947,1.1878823353558778,0.0620090046674013,-0.6383681893348694,0.1738340854644775,0.0380633920431137,0.5103335311973467,-9.783365570524335,-0.442387976087816,50,walking
1783066774705246000,4.4829865,0.2513102180346846,1.0113882888525725,0.0480939130941405,-0.4647931158542633,0.1804043799638748,0.0956072956323623,0.4997208056377246,-9.778505271011593,-0.5490807566123083,50,walking
1783066774725171000,4.5029115,0.289597132461518,0.8311310904234648,0.1918359925419092,-0.2564589381217956,0.2182003557682037,0.1245591044425964,0.4793905497925356,-9.775419579955935,-0.6178540312502533,50,walking
1783066774745094700,4.5228352,0.3319423093032091,0.7739186723828315,0.4781359831541776,-0.055609755218029,0.2920199930667877,0.1167896389961242,0.4593411932479589,-9.774620538532734,-0.6451313297543674,50,walking
1783066774765020000,4.5427605,0.5437536067727953,0.5218476991087198,0.6845756705880165,0.0977957174181938,0.299232006072998,0.1223606169223785,0.43996407340914,-9.776035666027663,-0.6371403310004622,50,walking
1783066774784943900,4.5626844,0.7233217269591987,0.556435612887144,0.9563864595334975,0.1754090934991836,0.3257088363170624,0.147282138466835,0.418413189727813,-9.778900992330907,-0.6069825816892087,50,walking
1783066774804868000,4.5826085,0.9092810825526714,0.5328852259516715,0.9509872308384628,0.25201416015625,0.2651940286159515,0.1968521028757095,0.3882266892461106,-9.782734871405362,-0.5637250757755712,50,walking
1783066774824792800,4.6025333,0.7119807601902634,0.501231612059474,0.944025063675642,0.2414230406284332,0.1790582239627838,0.1779451072216034,0.3522419142818078,-9.786993113371729,-0.5109738383948803,50,walking
1783066774844716800,4.6224573,0.2372522473920136,0.4380009566426276,1.4712147083342075,0.0482172407209873,0.2604749202728271,0.0509795658290386,0.3309216975511982,-9.78930372840166,-0.4800150748990476,50,walking
1783066774864641000,4.6423815,0.4362081184091046,0.2609878547012805,1.3818337126165627,-0.1310373693704605,0.2383552193641662,-0.0583492927253246,0.3368196695486083,-9.788712776771186,-0.4878987042883411,50,walking
1783066774884565800,4.6623063,1.080409948761016,-0.2001753663420677,1.0834574266981334,-0.1648979634046554,0.1499282270669937,-0.0189308989793062,0.3483299284698441,-9.786789115232228,-0.5175281554091722,50,walking
1783066774904489700,4.6822302,1.2057783497914671,-0.6384001948684453,1.0332704503148793,-0.1024541780352592,0.1436195373535156,0.0456890687346458,0.3459636742625385,-9.785505505162478,-0.5427584217229857,50,walking
1783066774924414000,4.7021545,0.912734510942176,-1.016247419321537,1.0104776037484406,-0.0603750683367252,0.1740675866603851,0.0097368778660893,0.3409292602919042,-9.784893510743975,-0.5567765352793037,50,walking
1783066774944338700,4.7220792,0.7221804479695856,-1.6825848379075523,0.936835444432497,-0.0402218736708164,0.1772808879613876,-0.0603928938508033,0.3478780930491164,-9.784143569159507,-0.5655845860371366,50,walking
1783066774964263000,4.7420035,0.6532935203567147,-2.115200594380498,0.6353163304436952,0.0708788409829139,0.0972275957465171,-0.1334295868873596,0.3681327994400635,-9.783531574741003,-0.5633406430352479,50,walking
1783066774984188000,4.7619285,0.5595468037102371,-2.4455799652159214,0.6164537359982729,0.1773550659418106,0.1134572997689247,-0.1921382695436477,0.4006777361487969,-9.783702255132791,-0.5375949014799669,50,walking
1783066775004108500,4.781849,0.5331885928124189,-2.7389970943570137,0.5415390725284814,0.2619129717350006,0.1182930693030357,-0.2550938427448272,0.445740684049204,-9.784024326694013,-0.4945529745457693,50,walking
1783066775024032800,4.8017733,0.5936066019613295,-2.897410709768533,0.1718927632529288,0.3760769963264465,-0.0148631185293197,-0.2833575308322906,0.4996456580422818,-9.784375039827824,-0.4321125561911612,50,walking
1783066775043957800,4.8216983,0.3679825407817959,-2.626439221191406,0.033777218450047,0.4132086336612701,-0.0273439586162567,-0.2645236551761627,0.5530367276964708,-9.784652687725425,-0.3537026710167527,50,walking
1783066775063881700,4.8416222,0.0066732672188431,-2.36066822386682,-0.2429787352800369,0.3442506492137909,-0.0300398766994476,-0.2311569601297378,0.6011545696554705,-9.784218972483275,-0.2794060115811415,50,walking
1783066775083805700,4.8615462,-0.592943388812244,-2.004558199447393,-0.7274450904995202,0.2696796953678131,-0.0636898428201675,-0.2465335875749588,0.6463638672240078,-9.782844176998736,-0.2203596926442347,50,walking
1783066775103730700,4.8814712,-1.285805095577985,-1.2239485049933194,-1.010766357561946,0.2044608145952224,-0.0217770189046859,-0.3333618640899658,0.7016195982389152,-9.779950209122896,-0.1751115974352695,50,walking
1783066775123655000,4.9013955,-1.800633709704876,0.0197205995142459,-1.2229431273430584,0.1962253749370575,0.1082664653658866,-0.471080482006073,0.7804043811403214,-9.774595404091476,-0.1365143018850125,50,walking
1783066775143579000,4.9213195,-1.770809941588342,0.831677033868432,-1.4606944833636284,0.2480351030826568,0.2588051557540893,-0.5487741827964783,0.8813641709707677,-9.766538354364036,-0.0911970321636646,50,walking
1783066775163503600,4.9412441,-1.4189806632280348,1.4571043499171732,-1.619713078930974,0.3658196330070495,0.2544975876808166,-0.5542139410972595,0.9905680575333536,-9.756455936288834,-0.0273482357153203,50,walking
1783066775183427800,4.9611683,-1.052365392211452,1.672977051606774,-1.7266367456018925,0.5363004207611084,0.1540466696023941,-0.4380852878093719,1.0890266051325947,-9.74577613684237,0.0652107735505094,50,walking
1783066775203352600,4.9810931,-1.0062989298243077,1.6024480558753014,-1.6306313633084295,0.6277850270271301,0.0464464426040649,-0.2614802718162536,1.1569842160061,-9.73645009009242,0.182588363056723,50,walking
1783066775223276800,5.0010173,-1.2021605976857244,1.6564491106539965,-1.4265607430934906,0.6241028308868408,-0.0216840710490942,-0.112420916557312,1.192434226506576,-9.729099727329611,0.3051765953167341,50,walking
1783066775243200800,5.0209413,-1.4126843395628037,1.480960441800952,-1.3025602694153784,0.5451318025588989,-0.0952854603528976,-0.0272080395370721,1.2054364044860004,-9.72329893209636,0.4180522109283134,50,walking
1783066775263125800,5.0408663,-1.4789239675372838,1.2731757694989445,-1.0440308407168837,0.3632195591926574,-0.1703706234693527,0.0157611388713121,1.2080800508625804,-9.718872932347654,0.504438116483204,50,walking
1783066775283049700,5.0607902,-1.3664441280439494,0.8695891236335038,-0.95160740856342,0.1654361337423324,-0.2935423552989959,0.0658646449446678,1.202890300199762,-9.717063252577184,0.5496808048646896,50,walking
1783066775302973700,5.0807142,-1.2077972883984447,0.7374369076818227,-0.8502794430077075,-0.0067028971388936,-0.3741861879825592,0.1388692259788513,1.1875962849561124,-9.718536832261083,0.5568403577631339,50,walking
1783066775322898700,5.1006392,-1.0543326006311922,0.6739098996669054,-0.8951613717854022,-0.1041471138596534,-0.4620485007762909,0.2283745855093002,1.1562358818568288,-9.72354326224625,0.5349839883292093,50,walking
1783066775342823000,5.1205635,-1.1622013661324977,0.642860096886754,-0.7422060217797756,-0.1626275777816772,-0.5737212300300598,0.2462419420480728,1.114167695325613,-9.73050141082108,0.4963515849329531,50,walking
1783066775362746600,5.1404871,-1.2784993026092648,0.6837631851613521,-0.4793664017319679,-0.2318938076496124,-0.6559880375862122,0.1705496907234192,1.0785832447905093,-9.73698726570904,0.4450996461993083,50,walking
1783066775382672000,5.1604125,-1.016457481875643,0.7542565250575543,-0.2118400851726531,-0.3258622288703918,-0.7141204476356506,0.0911265984177589,1.059852313900739,-9.741939919680355,0.3764419607650488,50,walking
1783066775402595800,5.1803363,-0.5896908167570829,0.7732078937649727,-0.0605190766368992,-0.4316871464252472,-0.757997453212738,0.1048815250396728,1.0468336231779307,-9.746375856301189,0.2875187735511921,50,walking
1783066775422520600,5.2002611,-0.241414700833708,0.895096489855647,0.0460813676953315,-0.5328468680381775,-0.8007552623748779,0.1688513457775116,1.024318789835274,-9.751398068377377,0.1771773891249671,50,walking
1783066775442444800,5.2201853,-0.1317614630684256,0.9815607213437556,-0.0786544345200061,-0.521756649017334,-0.8595581650733948,0.2005588561296463,0.9893342779546976,-9.756458274376392,0.0557596802153624,50,walking
1783066775462368800,5.2401093,-0.2316397412724792,1.0723100828051566,-0.1584726521223783,-0.4404917657375335,-0.905587673187256,0.1530143022537231,0.954090165289864,-9.759970081889628,-0.0555092445516725,50,walking
1783066775482293800,5.2600343,-0.2990773468598723,0.936492330083251,-0.1089952122479677,-0.3373612463474273,-0.8514982461929321,0.0811855271458625,0.9296501360382884,-9.761370011815428,-0.1476335521946661,50,walking
1783066775502217700,5.2799582,-0.1764578061461448,0.7911252432495355,-0.0706704500287771,-0.2288845777511596,-0.833619236946106,0.030661255121231,0.9162660460691898,-9.761301038232444,-0.2187286025773733,50,walking
1783066775522141700,5.2998822,0.1311006610721349,0.5891220769584179,-0.0755441935449838,-0.0712538808584213,-0.8627756834030151,0.0396920256316661,0.905888006048277,-9.76115899941325,-0.2636844368414953,50,walking
1783066775542066700,5.3198072,0.1739137476865202,0.3175572986632585,-0.135417921483051,0.1453014314174652,-0.9534538984298706,0.0530214756727218,0.891356280414015,-9.762233935168386,-0.2732423743848688,50,walking
1783066775561990700,5.3397312,-0.0353770913947373,-0.0587725069642066,-0.1002542536432854,0.3418657481670379,-0.9766224026679992,0.0532710887491703,0.8757418010443448,-9.764486682531237,-0.2413681034793146,50,walking
1783066775581914600,5.3596551,-0.1897322982609272,-0.4040975179970264,-0.03530627291454,0.445158988237381,-1.0117336511611938,0.0290168076753616,0.863251079718396,-9.766919462636112,-0.1801719495647586,50,walking
1783066775601839900,5.3795804,-0.0848543120734393,-0.7230594227612018,-0.0588935121285263,0.4495120048522949,-1.1051381826400757,0.0502568483352661,0.8539915953986347,-9.768782333898544,-0.1095981374440249,50,walking
1783066775621763600,5.3995041,0.2255480733338743,-1.1578455090105533,-0.3124175976872444,0.4032536447048187,-1.2895090579986572,0.1540520638227462,0.8331379002012312,-9.771087103709576,-0.0462637796241091,50,walking
1783066775641687600,5.4194281,-0.0724127636514604,-1.6211019029408693,-0.5381377396523952,0.2754063308238983,-1.416863203048706,0.1867057979106903,0.7965091282449662,-9.77425053617656,-0.0005574454044197,50,walking
1783066775661612800,5.4393533,-0.7144450314119458,-1.622808706858754,-0.4863198741316795,0.0735902488231659,-1.420693039894104,0.0340312868356704,0.7729532614167779,-9.77613445022702,0.011369818404084,50,walking
1783066775681536800,5.4592773,-0.7909603350114077,-1.468451673361659,-0.6124526836633681,-0.1152824684977531,-1.4476584196090698,-0.188948169350624,0.7887158440202474,-9.774870129379629,-0.0157258022485475,50,walking
1783066775701461800,5.4792023,-0.1598582612618803,-1.3306138129889964,-0.7107055526226759,-0.2043259739875793,-1.5806323289871216,-0.2820717990398407,0.8357713905099778,-9.770701903784277,-0.0726471888952655,50,walking
1783066775721385700,5.4991262,0.3994698581963777,-1.247386663725972,-0.6781055977910757,-0.2648031413555145,-1.7290853261947632,-0.2118339240550995,0.882176291071251,-9.765791335389018,-0.1465471086648292,50,walking
1783066775741309700,5.5190502,0.3081835403140634,-1.0514116716831925,-0.3454313940167426,-0.2808977663516998,-1.745564579963684,-0.1000198647379875,0.9055270637813956,-9.762000126412511,-0.2318704082231968,50,walking
1783066775761234700,5.5389752,-0.0505073674440383,-0.9631956280916928,-0.2320891290077939,-0.2117929011583328,-1.75271475315094,-0.0482490323483943,0.9094272860903292,-9.759386729043722,-0.3125918948082253,50,walking
1783066775781158700,5.5588992,-0.7020777903351932,-1.067980529168248,-0.0954635305017232,-0.0567302443087101,-1.718901753425598,-0.0998898446559906,0.909774784353748,-9.757253224146366,-0.3724534756507724,50,walking
1783066775801083000,5.5788235,-1.341739310376346,-0.7663491139113903,0.0619680516025051,0.1527469605207443,-1.6545151472091677,-0.257406622171402,0.931134017920494,-9.7543721157521,-0.3944630628850311,50,walking
1783066775821007600,5.5987481,-1.4022212516069412,-0.2698041983634233,0.3202683111876249,0.3072429597377777,-1.5719999074935913,-0.3624113798141479,0.9811409615617244,-9.750079386994242,-0.3790758529325947,50,walking
1783066775840931600,5.6186721,-1.2318611778140067,0.1520627850800752,0.470399251422286,0.365414410829544,-1.5479042530059814,-0.3303697109222412,1.0383796830873937,-9.745479199722409,-0.343207215161249,50,walking
1783066775860855800,5.6385963,-1.6836067283011973,0.5932645835906267,0.5747352396875619,0.3456256091594696,-1.5878198146820068,-0.3522955477237701,1.0926878310538828,-9.740760939028858,-0.3065845806848257,50,walking
1783066775880780800,5.6585213,-2.29635415712744,1.4206781147956846,0.5763894001027569,0.2713492214679718,-1.688782811164856,-0.4601415991783142,1.1619517022203654,-9.733497085505723,-0.2816035216254182,50,walking
1783066775900704500,5.678445,-2.270637970460206,1.700861083832383,0.5639712690889835,0.1101243197917938,-1.7558506727218628,-0.4544717967510223,1.2439743710644542,-9.723232881122827,-0.2857950732974335,50,walking
1783066775920628700,5.6983692,-2.061441677794605,1.4010907862722872,0.5182973496833816,-0.0477392338216304,-1.781830668449402,-0.2889958620071411,1.3065198206961155,-9.713757781291008,-0.3260128096563741,50,walking
1783066775940553700,5.7182942,-2.11417972690016,1.3820482321500778,0.3956219505965709,-0.0866892635822296,-1.9731212854385376,-0.114781841635704,1.3323232472553848,-9.707884505343436,-0.3902349237959832,50,walking
1783066775960478000,5.7382185,-2.14422473655194,1.4400094227313995,0.3724550100207328,-0.040167536586523,-2.146039724349976,0.0797950625419616,1.3191229894205927,-9.70673825791776,-0.4577482980333268,50,walking
1783066775980402700,5.7581432,-2.070887697662413,1.1264508383154868,0.4103764521360397,-0.0367228500545024,-2.219582319259644,0.2902001738548279,1.26194681173712,-9.71116075053513,-0.5208091498412192,50,walking
1783066776000327000,5.7780675,-2.098526084563881,0.3415215270966291,0.4898614922612905,-0.0684297531843185,-2.171903133392334,0.4699385166168213,1.1628421482540667,-9.71990870513618,-0.5844324943700805,50,walking
1783066776020251100,5.7979916,-2.151545288698375,-0.2572387313008308,0.4285002109128981,-0.0919467806816101,-2.047405958175659,0.553209662437439,1.0368947052266448,-9.730172909519077,-0.6472703876096755,50,walking
1783066776040175900,5.8179164,-1.8625968294039368,-0.822452693927288,0.3040858226716518,-0.0266098920255899,-1.9350236654281616,0.5624476075172424,0.90042711029388,-9.740166480267048,-0.6991291696626692,50,walking
1783066776060099800,5.8378403,-1.7105828519016504,-0.8927303452461958,0.1848123775154352,0.100213311612606,-1.844228148460388,0.4102502167224884,0.7763952185641974,-9.749047121337057,-0.7236576078500598,50,walking
1783066776080024000,5.8577645,-1.4361115385100245,-0.3131336370021104,0.3439372830014676,0.2282799929380417,-1.7162386178970337,0.1977647840976715,0.6924125747587532,-9.755832251432537,-0.7174325958553701,50,walking
1783066776099948800,5.8776893,-0.5444433426026255,0.109337742075324,0.4527818347323685,0.318359375,-1.6848762035369873,0.1069902554154396,0.6414084367737174,-9.761561150473357,-0.686216496597603,50,walking
1783066776119873000,5.8976135,0.0563804607285186,0.6870405993968248,0.5888503473449498,0.3044278919696808,-1.7154335975646973,0.1552005261182785,0.5945430790938436,-9.767348501703143,-0.6448146650206297,50,walking
1783066776139797000,5.9175375,0.2474750603185966,1.3722674273699522,0.7629810987830161,0.247106671333313,-1.7345726490020752,0.2207432389259338,0.5361771436365321,-9.772921917921304,-0.6106500546881929,50,walking
1783066776159721700,5.9374622,0.4885388653554022,1.216629121890664,0.744613082921505,0.1842143386602401,-1.820111989974976,0.310407429933548,0.4637549180369824,-9.778144621005652,-0.5858475853323936,50,walking
1783066776179646000,5.9573865,0.6044916416563093,0.8028542594879865,0.7673906588535755,0.096111886203289,-1.9192734956741333,0.40013188123703,0.3726418378297239,-9.78275708323717,-0.5737594899905846,50,walking
1783066776199570000,5.9773105,0.5074150134021416,0.31662206363976,0.9172568837374449,0.0094831436872482,-1.9828441143035889,0.453727126121521,0.2659122506924904,-9.786137957847115,-0.575484560217522,50,walking
1783066776219495200,5.9972357,0.2091031162231229,-0.207922034946084,0.9575514847248792,-0.0920503586530685,-2.056694984436035,0.4210399985313415,0.1558630541458726,-9.78757062099874,-0.5912387768514454,50,walking
1783066776239419000,6.0171595,-0.1664512480524368,-0.7213666473686695,1.151991522285342,-0.2198483049869537,-1.9863789081573489,0.3225009441375732,0.0582633564322488,-9.786485163849592,-0.6258657805312424,50,walking
1783066776259342800,6.0370833,-0.3418133496500551,-1.0226157853096722,0.9731628222893924,-0.2938665449619293,-1.8889247179031368,0.1821455359458923,-0.0168680036867677,-9.783165664038062,-0.6780775407403707,50,walking
1783066776279268000,6.0570085,-0.5640367720732465,-1.0164239449322223,0.8231482749760151,-0.2956748306751251,-1.7769440412521362,-0.0052965516224503,-0.060251265146723,-9.77888170310855,-0.7350115071658044,50,walking
1783066776299192000,6.0769325,-0.4843105070706456,-0.6526818181991577,0.7338437785606831,-0.243797019124031,-1.6516910791397097,-0.154990941286087,-0.0690493561995448,-9.774815184322,-0.7865162150841206,50,walking
1783066776319116800,6.0968573,-0.1452341629027388,-0.3912210852891206,0.6038327393561601,-0.1001955568790435,-1.5530368089675903,-0.1996359527111053,-0.0585722260185983,-9.77216437755227,-0.8196098717167973,50,walking
1783066776339041000,6.1167815,-0.0104477077236399,-0.2773047832518815,0.4860767130255699,0.1059743911027908,-1.457964301109314,-0.179063618183136,-0.0459657876248005,-9.772356685253976,-0.8181223365727811,50,walking
1783066776358965000,6.1367055,0.0421370505163446,-0.2394417933255433,0.3561328938383609,0.3486736118793487,-1.3871113061904907,-0.1547783464193344,-0.0366003883952857,-9.7761017170012,-0.7725742720365524,50,walking
1783066776378890000,6.1566305,0.066614315638924,-0.4945429280757903,0.3798305072247981,0.4975168108940124,-1.322616696357727,-0.1399955600500106,-0.0277085683441371,-9.782567698144913,-0.6862881735943257,50,walking
1783066776398814000,6.1765545,-0.1183571340288966,-0.652554392427206,0.6879547185670584,0.4338724315166473,-1.2274665832519531,-0.1872801035642624,-0.013473754713661,-9.78870985416174,-0.5927849833801389,50,walking
1783066776418738000,6.1964785,-0.2496443306490778,-0.4334153824180364,0.9446716179508716,0.236464112997055,-1.118809461593628,-0.3136218786239624,0.0212972217308008,-9.792518598794937,-0.5258361476903781,50,walking
1783066776438663000,6.2164035,-0.2396106105538085,-0.0777671302914619,1.1447517072249205,-0.0122018381953239,-1.0062086582183838,-0.4594418406486511,0.0860825386941432,-9.793225870281455,-0.5056493189038709,50,walking
1783066776458587000,6.2363275,0.3821203351950272,0.3026701106548309,0.7823352030724287,-0.1060905009508133,-1.0053017139434814,-0.4904872477054596,0.1710899224374443,-9.79119056506157,-0.5231630560236051,50,walking
1783066776478510800,6.2562513,0.931571021098271,0.3373965561211109,0.3755816541412845,-0.0562867745757103,-1.0467208623886108,-0.3988912403583526,0.2478726813340559,-9.788357387462256,-0.5449715677278116,50,walking
1783066776498436000,6.2761765,1.2327864759653806,-0.2565373050332069,0.2485778704613447,0.0713276639580726,-1.0005124807357788,-0.2273685038089752,0.2983056501013226,-9.786689746510982,-0.5496488388238474,50,walking
1783066776518359800,6.2961003,1.1834604272603988,-0.5482376933842897,0.0596538929086178,0.1919667571783065,-1.088151454925537,-0.0577124953269958,0.3148610087839886,-9.787232182824612,-0.5304138308694586,50,walking
1783066776538284000,6.3160245,0.8051523072972894,-1.8564438597321509,-0.2286462585449218,0.3390412032604217,-1.23135507106781,0.123024083673954,0.2954321222253143,-9.790150700619815,-0.4858731532774865,50,walking
1783066776558209000,6.3359495,-0.3512590772569179,-2.5225731885254383,-0.4910626847445964,0.4764343202114105,-1.3103370666503906,0.0957502201199531,0.2578850663803517,-9.794547474274038,-0.4131974278409033,50,walking
1783066776578133000,6.3558735,-1.7345372895933686,-1.905191231766343,-0.5300186940720305,0.5320369601249695,-1.2611734867095947,-0.1980605572462082,0.2558183613752015,-9.798114811366796,-0.3191748168624937,50,walking
1783066776598058000,6.3757985,-2.359179300483316,-0.991594039580226,-0.2761982650483958,0.4813264310359955,-1.1716911792755127,-0.5441888570785522,0.3220129628978669,-9.798772983014585,-0.2252373999495059,50,walking
1783066776617982000,6.3957225,-2.3622630918428302,-0.1361246267139911,0.0332996092672459,0.2903255224227905,-0.998634934425354,-0.7554187178611755,0.4475004237307235,-9.795174666261673,-0.1571997095771133,50,walking
1783066776637906000,6.4156465,-2.030769914546609,0.8963046966016293,0.078464464905858,0.1871200799942016,-0.8773903846740723,-0.7858144044876099,0.5978402940083295,-9.787620889881252,-0.124253462058492,50,walking
1783066776657831000,6.4355715,-1.6154466536581515,1.4031997412502766,-0.3624707916229963,0.3001689314842224,-1.007059931755066,-0.6766127943992615,0.739917034059763,-9.77826561703682,-0.0916795275841373,50,walking
1783066776677755000,6.4554955,-1.60475370246917,1.8011644555807114,-0.4397013308197259,0.4235964715480804,-1.1417006254196167,-0.5217293500900269,0.8552187260407954,-9.76921663366258,-0.0371933424698887,50,walking
1783066776697679000,6.4754195,-1.6415961171761153,1.7548539553046223,-0.1432113701045513,0.4299424886703491,-1.1899737119674685,-0.3602973818778991,0.9409927102424204,-9.761362413030865,0.0264941556196543,50,walking
1783066776717603800,6.4953443,-1.598899131222069,1.0126976178854703,-0.2763619494438171,0.3639662265777588,-1.296527624130249,-0.1775327920913696,0.9948121248438954,-9.755722945839166,0.0812342949453741,50,walking
1783066776737527800,6.5152683,-1.9439960325874388,0.5139835416048765,-0.2053086375772952,0.214359849691391,-1.3243402242660522,-0.0421404130756855,1.017739119184017,-9.753058110544083,0.1116355067568365,50,walking
1783066776757452000,6.5351925,-2.1074723382160068,0.2551286072790623,-0.3310334508299827,0.108229674398899,-1.3756873607635498,0.0254910867661237,1.0215522477313876,-9.752626148867607,0.1143582827842328,50,walking
1783066776777376800,6.5551173,-1.9537772757589813,-0.1407353353798389,-0.5472749858319759,0.0754605308175087,-1.4716827869415283,0.0594454780220985,1.0162977612692865,-9.753304194259645,0.1030011137991677,50,walking
1783066776797301000,6.5750415,-1.8540815145149825,-0.684690236878395,-0.6747101101338863,0.0670565590262413,-1.554582953453064,0.1337931007146835,1.0006983333382755,-9.755077633672952,0.0864852377435192,50,walking
1783066776817225000,6.5949655,-2.0263804474160074,-0.9563432779788972,-0.641148032271862,0.0464962534606456,-1.5918374061584473,0.176110565662384,0.9717346161171794,-9.75815923307538,0.0668384980499278,50,walking
1783066776837150000,6.6148905,-2.1249305457562206,-1.1078086816877126,-0.7412158416986465,0.0372457168996334,-1.6562062501907349,0.1354862004518509,0.9412969538860022,-9.761266551440954,0.044652613533847,50,walking
1783066776857074000,6.6348145,-2.1701704941913484,-0.665074266782403,-0.5771908161461353,-0.0327754765748977,-1.685276746749878,-0.0466943755745887,0.9317694662798196,-9.762271344569324,0.0151524410736921,50,walking
1783066776876998000,6.6547385,-1.6764859365105629,0.2381429856866597,-0.3295481807082891,-0.1141775175929069,-1.712174415588379,-0.1799840629100799,0.9576268880486488,-9.759733350524304,-0.030778831218509,50,walking
1783066776896923100,6.6746636,-0.8891689995028078,0.6985930900245905,-0.1590162574797868,-0.2204457223415374,-1.689233422279358,-0.0680314898490905,0.9817945300996302,-9.756905433622002,-0.0962652570723555,50,walking
1783066776916847000,6.6945875,-0.5434217444699257,0.9456862748861312,-0.2404237901002168,-0.2623526453971863,-1.7078083753585815,0.0655847042798996,0.9758744193356484,-9.75634838426113,-0.1781126058821566,50,walking
1783066776936770800,6.7145113,-0.6045247402083128,1.0072948820590972,-0.3645370765030384,-0.2290063649415969,-1.7502446174621582,0.0868838876485824,0.9515343433272092,-9.756904849100112,-0.2603494106672704,50,walking
1783066776956696000,6.7344365,-0.5281213725507259,1.0031628968209028,-0.4300222328484058,-0.1523270606994629,-1.7462615966796875,0.0862977281212806,0.9257086318708956,-9.75726199197471,-0.3305857435951009,50,walking
1783066776976620000,6.7543605,-0.394953769011423,0.7208411621898412,-0.4619242685437202,-0.0366668403148651,-1.7306867837905884,0.1453858315944671,0.8911519900135696,-9.758653154072164,-0.3806848224991932,50,walking
1783066776996544000,6.7742845,-0.2358024869751185,0.4053676840633153,-0.508620516734384,0.086244486272335,-1.764881253242493,0.2194346189498901,0.8413859424561262,-9.76205624051392,-0.4058151721024886,50,walking
1783066777016468000,6.7942085,-0.3386767321247607,-0.0639215602904558,-0.4831891018252819,0.146183043718338,-1.7910404205322266,0.2280929982662201,0.7816039661884308,-9.766818924871089,-0.4107455046441405,50,walking
1783066777036392200,6.8141327,-0.5313439878590405,-0.0728618225932121,-0.3655529755473136,0.1414142847061157,-1.818742156028748,0.1444363892078399,0.7297633773792535,-9.770898303139209,-0.4091206433886661,50,walking
1783066777056317200,6.8340577,-0.425481520678848,-0.1417278535485267,-0.2497503848394379,0.0725418031215667,-1.8332611322402956,0.0849473252892494,0.6930336292665451,-9.773409409177304,-0.4129950006039813,50,walking
1783066777076241000,6.8539815,-0.2439457536812871,-0.0271896202206611,-0.135007568850182,-0.0206157173961401,-1.8174095153808596,0.0561857931315898,0.6644272010505199,-9.774521169811486,-0.4331664491582662,50,walking
1783066777096165000,6.8739055,0.0002928454667329,0.0311988558620214,-0.2873024456530809,-0.0467848554253578,-1.8728166818618772,0.0558593720197677,0.6379116076339035,-9.77485142467916,-0.4644768391033634,50,walking
1783066777116090000,6.8938305,0.1243478988762944,0.0016828385204076,-0.3505979464670643,-0.0496248640120029,-1.9321004152297971,0.0878779664635658,0.6057339333349838,-9.77526234356761,-0.4976979580406099,50,walking
1783066777136014300,6.9137548,0.0851710133397951,-0.1662555610835552,-0.4869704104622825,-0.0363242700695991,-1.989283561706543,0.0906946063041687,0.5669495907800272,-9.775965523400902,-0.5286198235921561,50,walking
1783066777155938000,6.9336785,-0.1803749795898795,-0.3372784826993942,-0.4388782874664291,-0.0572792217135429,-2.0060203075408936,0.0422450862824916,0.5317241097504273,-9.776277658089995,-0.558605467739515,50,walking
1783066777175863000,6.9536035,-0.2937950225427747,-0.4728022209107875,-0.4025444433361291,-0.1537308394908905,-2.004310131072998,-0.0399229191243648,0.5082255991326645,-9.77512907257676,-0.5991294205034151,50,walking
1783066777195787300,6.9735278,-0.3248886279320344,-0.3280564808458089,-0.2559844203907996,-0.3022547662258148,-1.9372656345367432,-0.1373225897550583,0.500563101680763,-9.771435478755832,-0.6624910453561693,50,walking
1783066777215711200,6.9934517,-0.0832661295665428,-0.1228302608549594,-0.2287853747546672,-0.4332835972309112,-1.878354549407959,-0.1997532397508621,0.5074886631602421,-9.764474407571551,-0.7535850555367767,50,walking
1783066777235636000,7.0133765,0.1446812234614044,-0.0601087240040302,-0.2326718607991933,-0.4844497740268707,-1.831850528717041,-0.2247293293476104,0.5189615492131561,-9.754771344202757,-0.8634237328715622,50,walking
1783066777255560200,7.0333007,0.2652980460505932,-0.0302583601415157,-0.3196965757142752,-0.4064873456954956,-1.8239381313323972,-0.2292011678218841,0.530175528601557,-9.744069332924484,-0.9707780460447072,50,walking
1783066777275484200,7.0532247,0.2665923601774498,-0.1002905122667551,-0.3031483956910669,-0.25124591588974,-1.8355674743652344,-0.2076793015003204,0.5354654151706024,-9.7350910766989,-1.054363653356582,50,walking
1783066777295409200,7.0731497,-0.0192007038259878,-0.1918085200130939,-0.0715313777070492,-0.0803583487868309,-1.796167492866516,-0.2108311653137207,0.5363482989523559,-9.729313662341236,-1.1059670724090187,50,walking
1783066777315333000,7.0930735,-0.2809239601297303,-0.2299614327967166,0.1701594366542995,0.1241059154272079,-1.75037944316864,-0.2044523805379867,0.5374028129739686,-9.727524440836904,-1.1211066277433186,50,walking
1783066777335257000,7.1129975,-0.6593095657758414,-0.2498375151336193,0.4543336672842502,0.3421020805835724,-1.7061090469360352,-0.2182095646858215,0.539449772099033,-9.730541742831468,-1.0935855105459689,50,walking
1783066777355182000,7.1329225,-1.1131859908118844,-0.0374801280885934,0.8143950596779584,0.457139253616333,-1.680974006652832,-0.2624978423118591,0.5499500137275084,-9.736698511895536,-1.0318182787451893,50,walking
1783066777375106000,7.1528465,-1.3604187302745878,0.2381774724781513,1.1720997328776863,0.3869352042675018,-1.706406831741333,-0.295931875705719,0.5707810952343046,-9.742259653154017,-0.9658989687662572,50,walking
1783066777395030000,7.1727705,-1.6157123188570142,0.1115910739600658,1.557302507725358,0.1563250422477722,-1.6982438564300537,-0.3016767501831054,0.5972787511354312,-9.744062903183698,-0.9310692821212112,50,walking
1783066777414955300,7.1926958,-1.826318916711956,0.1832137101471424,1.829791415128112,-0.0942487493157386,-1.6268274784088137,-0.3365766108036041,0.6275719999272376,-9.740717099887132,-0.9460321657143532,50,walking
1783066777434879000,7.2126195,-1.7565765413135288,0.1600011768639087,1.502350435832143,-0.2342796921730041,-1.6141082048416138,-0.3426495194435119,0.6637731210559606,-9.732767602187394,-1.001513302982971,50,walking
1783066777454804200,7.2325447,-1.5551134732484817,-0.0157248078763484,1.192915653347969,-0.2224924117326736,-1.622830867767334,-0.2425868064165115,0.6879634133301675,-9.723887545639275,-1.0691653550386429,50,walking
1783066777474728200,7.2524687,-1.4407362757012248,0.0270440742701292,1.0625104271940886,-0.1551450788974762,-1.6743696928024292,-0.148793950676918,0.6889571005426347,-9.717127549985053,-1.1283509728483856,50,walking
1783066777494652200,7.2723927,-1.378181327588856,-0.0387561393737792,1.052231902024895,-0.126308187842369,-1.6735987663269043,-0.082464575767517,0.6718917647775262,-9.712526778191329,-1.1771794472947716,50,walking
1783066777514577200,7.2923177,-1.427574596311152,0.0240285258412361,1.0404388806395233,-0.110763669013977,-1.6638692617416382,-0.0711546093225479,0.6461670294776558,-9.708725047820806,-1.2220987854734062,50,walking
1783066777534501000,7.3122415,-1.27777610290125,0.209165897527337,1.1801099477887154,-0.1314236968755722,-1.5967146158218384,-0.0598456114530563,0.6184728207357227,-9.705018594518304,-1.265104398985207,50,walking
1783066777554425000,7.3321655,-1.0192350568301975,0.2990665332049131,1.265277709725499,-0.1960463672876358,-1.5629560947418213,-0.0757313668727874,0.5902240468509495,-9.700048989412188,-1.3157054360620677,50,walking
1783066777574350000,7.3520905,-0.7959751674987375,0.6174889242649078,1.4332932662189006,-0.2504424452781677,-1.564044952392578,-0.1337190568447113,0.568376372180134,-9.692859954690933,-1.3768800357319413,50,walking
1783066777594274000,7.3720145,-0.3989632969137281,0.9096721276968716,1.5738696116447448,-0.3135307729244232,-1.518468737602234,-0.1430678814649582,0.5529404277151451,-9.683224111339449,-1.4490715578481554,50,walking
1783066777614198300,7.3919388,0.0373048080543056,1.0574684875041245,1.5591091187559067,-0.3128750324249267,-1.4763476848602295,-0.1013244837522506,0.5328144988030195,-9.67240578020513,-1.5267876886047422,50,walking
1783066777634123000,7.4118635,0.4721454740351066,1.1815788512974976,1.5397120521076022,-0.2402657568454742,-1.4949254989624023,-0.0311083551496267,0.4999003269230946,-9.663037063357232,-1.595676369783282,50,walking
1783066777654047000,7.4317875,0.8359463817507028,1.120174826785922,1.5191998638242483,-0.1296242028474807,-1.522212266921997,0.0821609422564506,0.4464479190031066,-9.65729939648807,-1.6454937091365456,50,walking
1783066777673971200,7.4517117,0.9754421653982251,0.986524481230974,1.4854501544356344,0.0021042097359895,-1.5587537288665771,0.1784490048885345,0.3695005806619301,-9.656377605468034,-1.6698038283981382,50,walking
1783066777693896000,7.4716365,0.8656712195374071,0.6921890682011842,1.6293576901108024,0.0670725107192993,-1.553156852722168,0.1940032094717025,0.2805527887297794,-9.65922247350514,-1.670657668748498,50,walking
1783066777713820200,7.4915607,0.832678977452591,0.106950554677844,1.828888913330436,0.0021229258272796,-1.5063772201538086,0.1698154956102371,0.1942838971506804,-9.66146119234264,-1.669974216528982,50,walking
1783066777733744000,7.5114845,1.0220647272981702,-0.2414011106997728,1.9414723593287169,-0.0597576759755611,-1.4770334959030151,0.1533229500055313,0.1136846761052962,-9.660868487146496,-1.68080394584015,50,walking
1783066777753669000,7.5314095,1.1760139837119727,-0.6063958678424358,1.949908909893036,-0.0904641449451446,-1.4516777992248535,0.1211458146572113,0.0375469508136855,-9.658444474869968,-1.698069115026295,50,walking
1783066777773593000,7.5513335,1.23873690880239,-0.9372831881999968,1.99434426394701,-0.0932694002985954,-1.36002516746521,0.0740763843059539,-0.0292161941448226,-9.655113869142532,-1.7170657841801642,50,walking
1783066777793517000,7.5712575,1.4585620013795793,-1.313520054847002,1.921141226700693,-0.0193973332643508,-1.2416496276855469,0.0498814433813095,-0.0853377482088282,-9.65297042737305,-1.7272104538366198,50,walking
1783066777813442300,7.5911828,1.5088973732575772,-1.5274831235229969,1.9738678776293992,0.0948927700519561,-1.0772041082382202,0.0036719851195812,-0.1308846985002048,-9.654186817425488,-1.7175386623889206,50,walking
1783066777833366300,7.6111068,1.6137997632339596,-1.5127724611252549,2.11935961375609,0.2333006262779235,-0.9184721112251282,-0.0656045079231262,-0.1582747731964103,-9.659619363868236,-1.684362515104562,50,walking
1783066777853290000,7.6310305,1.796289396890253,-1.8048750005364416,1.9942888804979624,0.3692293763160705,-0.85094153881073,-0.1268563866615295,-0.1688307636001147,-9.670084059259295,-1.6221398676864802,50,walking
1783066777873215200,7.6509557,1.594882004535198,-2.2475269978553056,2.0898685847252607,0.3684650063514709,-0.6555733680725098,-0.2017120718955993,-0.1619524022632278,-9.682630237099527,-1.5462353163965046,50,walking
1783066777893139200,7.6708797,1.3093828089118005,-2.2407757700294253,1.8145885852992532,0.3124467134475708,-0.4712575674057007,-0.3284732103347778,-0.1272457300764974,-9.693720955434442,-1.478502965646237,50,walking
1783066777913063200,7.6908037,1.2157157333727926,-2.3541870451539757,1.525823519747704,0.2572171986103058,-0.2543440163135528,-0.3918196558952331,-0.0666485695349751,-9.70271440922916,-1.4224243739411233,50,walking
1783066777932988200,7.7107287,1.1227132592223583,-2.456539750647545,1.0188077713288366,0.1791388988494873,-0.0586450174450874,-0.3763699531555176,0.0046564763302347,-9.70899626597762,-1.3804820057466625,50,walking
1783066777952912100,7.7306526,0.926495544464886,-2.560433840364217,0.129269061730802,0.1119948849081993,-0.1063637360930442,-0.3047283589839935,0.0700909011417301,-9.71284066644609,-1.3513593716368075,50,walking
1783066777972836000,7.7505765,0.3077710870556533,-2.5179753393411635,-0.5066209038823842,-0.0096023073419928,-0.1128118559718132,-0.2090490311384201,0.1158529691882431,-9.713701667189598,-1.34200205296576,50,walking
1783066777992763000,7.7705035,-0.3285556260069832,-1.8308815484523773,-0.797828101889044,-0.1091120094060897,0.0560789667069911,-0.1554255038499832,0.1492897127707023,-9.711565824204683,-1.3541101316496729,50,walking
1783066778012686800,7.7904273,-0.5695399360667914,-0.8128373088419437,-0.918145210879296,-0.1475059986114502,0.3030232489109039,-0.0873197019100189,0.1780879828975536,-9.707583476570248,-1.378941644436866,50,walking
1783066778032610600,7.8103511,-0.4560818626584484,0.1297732118606567,-1.031502856120467,-0.1570680141448974,0.3719541728496551,0.0120844785124063,0.1954131386426277,-9.703138187599182,-1.4075902312941848,50,walking
1783066778052535800,7.8302763,-0.440544540178217,0.7049550262719393,-1.1987789924234151,-0.079336404800415,0.1165704727172851,0.0734319761395454,0.1958870580310001,-9.69982102587521,-1.430204068031907,50,walking
1783066778072459800,7.8502003,-0.6287839330002665,1.1849135486781597,-0.9365520974464714,0.0240972265601158,0.0302773974835872,0.0360458903014659,0.1798710851883515,-9.698995096445085,-1.4378976912744343,50,walking
1783066778092383700,7.8701242,-1.1386638386785983,1.8351234238058327,-0.5811630807779729,0.0427671112120151,0.2188079506158828,-0.0552431866526603,0.1851730457876808,-9.700374568104744,-1.4278708027787506,50,walking
1783066778112308700,7.8900492,-0.9832703017406164,1.8222516672730444,-0.7439179402641951,-0.0035626639146357,0.2588255405426025,-0.1279860436916351,0.2108409180674701,-9.700371645495297,-1.4243304998233914,50,walking
1783066778132232700,7.9099732,-0.6638549541205168,1.1950462356358766,-1.0755230535022913,0.0656317099928855,0.1346462070941925,-0.1575802415609359,0.2442710949118249,-9.700596686422823,-1.4174389867439865,50,walking
1783066778152156700,7.9298972,-0.6004563582582398,0.7692056723862886,-1.148320578687638,0.12217528373003,0.0768323168158531,-0.1763953864574432,0.2800822120759636,-9.702570032322406,-1.3971648450002074,50,walking
1783066778172081700,7.9498222,-0.6744250095821916,0.7192337269932031,-0.9477057980149984,0.1003216430544853,0.13298200070858,-0.1777603775262832,0.3167911365963518,-9.704971832767129,-1.3724255405411123,50,walking
1783066778192005600,7.9697461,-0.6501318414553999,0.5913537815332413,-0.8934702038280665,-0.0794437304139137,0.1778761744499206,-0.1425163000822067,0.3523530099734663,-9.704432903584838,-1.3675541351124645,50,walking
1783066778211929900,7.9896704,-0.4920643360678106,0.4004752358466386,-0.827830441442877,-0.2838828563690185,0.1874063611030578,-0.0965100675821304,0.3799857708517462,-9.698508189710974,-1.4017701468385757,50,walking
1783066778231854600,8.0095951,-0.3537011366467922,0.5872025070726871,-0.8607961608469485,-0.473954439163208,0.1240931078791618,-0.0675344318151474,0.400537743156217,-9.686964466911554,-1.473999516747147,50,walking
1783066778251778600,8.0295191,-0.2052394082659855,0.6497761598855256,-0.466571363697201,-0.6741216778755188,0.1983612775802612,0.0367982871830463,0.409793976072967,-9.669483170756696,-1.5822667069815095,50,walking
1783066778271702800,8.0494433,0.0085213427709415,0.7591904743283987,-0.3799310449898243,-0.9301646947860718,0.2642768323421478,0.1801794171333313,0.3956497884515673,-9.644072835168242,-1.7337004003778098,50,walking
1783066778291627500,8.069368,-0.0174183139212429,0.8503969319075345,-0.3343623029917478,-1.166847825050354,0.2896623611450195,0.2606929242610931,0.3632307796774431,-9.60703986632526,-1.9347421742908653,50,walking
1783066778311551700,8.0892922,-0.2097202434744685,1.163213758045435,-0.0727308896899223,-1.1680587530136108,0.3179915249347687,0.2893659770488739,0.3209009465353563,-9.560427168232202,-2.1600117960095404,50,walking
1783066778331475700,8.1092162,-0.1821489487261511,1.663540530219674,-0.1763476237699389,-0.9688056111335754,0.1996775418519973,0.1597028225660324,0.2891398171480745,-9.513530392500758,-2.362105124802142,50,walking
1783066778351400700,8.1291412,-0.1148389698401093,1.7662644071131943,0.0501522703960537,-0.8177955150604248,0.2272419929504394,0.0755733996629715,0.2774950451269746,-9.470505489766596,-2.530395552714169,50,walking
1783066778371324700,8.1490652,0.1984123387249186,1.7497662767767903,0.1099479829281568,-0.6909916400909424,0.2439277023077011,0.0023472006432712,0.283121433641389,-9.43186157859564,-2.6702476755186915,50,walking
1783066778391248600,8.1689891,0.4066106698617339,1.6477578546762466,0.274633225955069,-0.5004755854606628,0.271373301744461,-0.0753865838050842,0.3038687093222513,-9.399134197992083,-2.781062796670198,50,walking
1783066778411173600,8.1889141,0.7823468935102224,1.326366092416644,0.1359261815324425,-0.2634948790073395,0.1770210266113281,-0.1161244735121727,0.3354460065752268,-9.376870343735812,-2.8516990521684287,50,walking
1783066778431097900,8.2088384,1.119111581468582,0.7461667421042919,0.1141170853063464,-0.1237062588334083,0.1791285276412964,0.0015706855338066,0.3579612417766824,-9.36604207572937,-2.884358335971832,50,walking
1783066778451021600,8.2287621,1.2902972924306988,0.3740577690422534,0.3900172624573111,-0.1343530118465423,0.2631011009216308,0.1639750450849533,0.3551177254464477,-9.35949543056488,-2.905874002209305,50,walking
1783066778470946800,8.2486873,1.3588947355777024,0.4652174648702144,0.469373415505886,-0.0552072525024414,0.1808957308530807,0.2163033336400985,0.3324590266536921,-9.35518750423789,-2.922382653939724,50,walking
1783066778490870800,8.2686113,1.186421615153551,-0.0576601618081331,0.2851730324089527,-0.0984661430120468,0.0549288131296634,0.2756600081920624,0.2924468593368307,-9.353198376247288,-2.933010430938005,50,walking
1783066778510794800,8.2885353,0.9688010468833148,-0.2038712982505559,0.5971797112077474,-0.2348081469535827,0.1050901859998703,0.3095168769359588,0.2423656631493009,-9.344953110471367,-2.963698414668441,50,walking
1783066778530719700,8.3084602,0.9247146523974836,-0.4012140715152025,0.4589128117680549,-0.2435146570205688,0.0371876992285251,0.2849591076374054,0.1905344266903586,-9.331365314623714,-3.0099346806645397,50,walking
1783066778550643700,8.3283842,0.728573436942324,-0.6701216132998467,0.1307645609855652,-0.1620443016290664,-0.1010491326451301,0.1584378033876419,0.1451605405441019,-9.319834451305866,-3.047949354021251,50,walking
1783066778570567700,8.3483082,0.4220531536653638,-0.7582008787691593,0.1209048457503318,-0.1205563992261886,-0.1472127735614776,0.014361772686243,0.1215802333944011,-9.311661666244268,-3.0738530260846018,50,walking
1783066778590492700,8.3682332,0.6067058105744421,-0.8938596415370702,0.0257186708852648,-0.096264973282814,-0.1593945324420929,-0.0824382156133651,0.1202336684904992,-9.305289208602904,-3.0931396180957558,50,walking
1783066778610416600,8.3881571,0.6880605900943279,-1.0855004037678242,0.1017518169909715,-0.1296099871397018,-0.0543995387852191,-0.1015756428241729,0.1307564050785731,-9.298152196329832,-3.114106710539758,50,walking
1783066778630340900,8.4080814,0.6156004071045666,-0.9873357976138591,0.0194254159599542,-0.1342821568250656,0.0145533615723252,-0.0782288312911987,0.1460549960326403,-9.289475553399324,-3.139219816747308,50,walking
1783066778650265600,8.4280061,0.8234658164925873,-0.9153776458621024,-0.0240185889691114,-0.0742286518216133,-0.0076265735551714,-0.0379074998199939,0.1586057587164454,-9.281976137554643,-3.16071853184998,50,walking
1783066778670189600,8.4479301,0.809481568673253,-1.240818391251564,-0.4367714148476719,0.0488473623991012,-0.1818410456180572,0.0040493141859769,0.154633567149844,-9.281398045405744,-3.1626109214678406,50,walking
1783066778690113800,8.4678543,0.358481648921594,-1.0953934367507696,-0.0902802826449274,0.1183597892522811,-0.093135081231594,-0.088572971522808,0.1517825616328977,-9.287061477994918,-3.1460812269493936,50,walking
1783066778710038800,8.4877793,0.17232293483112,-0.5580892253130674,0.0558452213406562,0.144708976149559,0.0311184916645288,-0.1959935128688812,0.1779786773041821,-9.29494843185246,-3.121321171963215,50,walking
1783066778729962500,8.507703,0.3755708039537072,-0.7451940976798533,-0.1952788264721632,0.1648594588041305,0.0169099308550357,-0.1901570260524749,0.2174429832136258,-9.303868820410967,-3.092109398265183,50,walking
1783066778749886700,8.5276272,0.620846198803559,-1.0128425793141127,-0.5118254867881536,0.2253655344247818,-0.1322327554225921,-0.0671130493283271,0.2401685914964414,-9.31484555697739,-3.0571807082250717,50,walking
1783066778769811700,8.5475522,0.4712432279657572,-1.2808897048771382,-0.9834241771280764,0.2847927510738373,-0.3346146047115326,0.0604186132550239,0.2253198358022607,-9.33125951616168,-3.007859627956152,50,walking
1783066778789735700,8.5674762,-0.2327605985285714,-1.4091156872957944,-0.8030141262248158,0.2205704301595688,-0.2732631266117096,0.1171277984976768,0.1890663634317927,-9.347285352811216,-2.960222262990474,50,walking
1783066778809659600,8.5874001,-0.9186575443156064,-1.010243794992566,-0.7870370971530676,0.0724809393286705,-0.1911834180355072,0.0457389019429683,0.158498535482306,-9.356350118276476,-2.93325329978317,50,walking
1783066778829584600,8.6073251,-1.3895884183965623,-0.1890758801788091,-0.4447989462196827,-0.0541066154837608,-0.0078514758497476,-0.114966981112957,0.1586694898687303,-9.35690541407168,-2.931474307411909,50,walking
1783066778849508900,8.6272494,-1.1599804752126337,0.7076631161868572,-0.2041895704194903,-0.1216263398528099,0.1313925683498382,-0.24359230697155,0.1981100130437873,-9.35013372797966,-2.950620321908593,50,walking
