time,seconds_elapsed,acc_x,acc_y,acc_z,gyr_x,gyr_y,gyr_z,grav_x,grav_y,grav_z,fs_hz,activity
1783069104701785900,0.0,-0.1214158274797722,0.0473065255761146,0.1098135428935289,-0.0104443170130252,-0.0747518762946128,0.0504343286156654,0.2655167851014994,-9.554082767641544,-2.195312826493382,100,walking
1783069104711748900,0.009963,-0.152161149154324,0.0524146623700857,0.0508566192731261,0.0169015545397996,-0.0668835639953613,0.0484518706798553,0.2593016551800072,-9.554254032555225,-2.1953132648847995,100,walking
1783069104721710800,0.0199249,-0.1417293696521781,0.1596960564374923,0.0232915898688137,0.0379863530397415,-0.0614297352731227,0.0335230715572834,0.2538079166019335,-9.554991699180006,-2.192737423047423,100,walking
1783069104731673600,0.0298877,-0.1318722482328303,0.2184942823648452,-0.0409812680773437,0.0455305576324462,-0.0518146604299545,0.012956278398633,0.250235629339423,-9.55602981005609,-2.188618735682219,100,walking
1783069104741636900,0.039851,-0.069939505405724,0.1076204167634248,0.0427940165877342,0.0205972213298082,-0.0440429523587226,-0.0104496655985713,0.2490556805735453,-9.556786181381344,-2.1854547186933457,100,walking
1783069104751598800,0.0498129,-0.0004690240175463,0.0190647659540176,0.1202589490622282,-0.0111319459974765,-0.0531637482345104,-0.0220008585602045,0.249615634277556,-9.556815991997718,-2.185258027077466,100,walking
1783069104761561900,0.059776,0.102884912674129,0.0042816228419542,0.0815764594465494,-0.0194070432335138,-0.0661429688334465,-0.0234252735972404,0.2505591256727464,-9.556398058846591,-2.186977252085507,100,walking
1783069104771527200,0.0697413,0.1457803438097238,0.0448082790195941,0.0594300940901041,-0.0191724188625812,-0.0689720436930656,-0.0294570680707693,0.2516571135099045,-9.555924011594056,-2.188922540934384,100,walking
1783069104781490400,0.0797045,0.1247783627154305,0.1219417875826358,0.0414338341504335,-0.0099257584661245,-0.0636522471904754,-0.0365881361067295,0.2533558802518062,-9.55554524140954,-2.1903797540053724,100,walking
1783069104791452400,0.0896665,0.1193384366838261,0.2205114674061536,0.031509236985445,0.0015937444986775,-0.0700832456350326,-0.0458506122231483,0.2558030359419062,-9.555354102751611,-2.190929642973095,100,walking
1783069104801415200,0.0996293,0.1632421315465122,0.330270065242052,-0.0363505395367741,0.0176054071635007,-0.0798093900084495,-0.0493963584303855,0.2587359293223358,-9.55542950607538,-2.190257296669483,100,walking
1783069104811377400,0.1095915,0.1690274186833761,0.3801899881869554,-0.0320556188218295,0.0247655808925628,-0.0832238271832466,-0.0337161980569362,0.2611806555933318,-9.555817628610134,-2.1882671457655727,100,walking
1783069104821340400,0.1195545,0.1737375508693978,0.3198158912450075,-0.0061953475087881,0.0097642615437507,-0.0989420711994171,0.0212104320526123,0.2600618441638536,-9.55619698331654,-2.1867435894601046,100,walking
1783069104831302400,0.1295165,0.1902568335916847,0.1705886218518018,0.0240760182447731,0.0016743767773732,-0.100242756307125,0.0902622044086456,0.2525208541997708,-9.55645709555745,-2.186488737916201,100,walking
1783069104841265200,0.1394793,0.1854561735779978,0.0009071779727935,0.11599398509413,-0.0008660538587719,-0.097030833363533,0.1460284888744354,0.2389160706846974,-9.556763385027647,-2.186678707530349,100,walking
1783069104851227400,0.1494415,0.1354236753704026,-0.0131043962448835,0.1213549276053905,9.53474082052e-05,-0.1124420166015625,0.1660336107015609,0.2216116472003981,-9.557118189814686,-2.1869525560356675,100,walking
1783069104861190400,0.1594045,0.0952237121301703,0.0352291342914104,0.0380523750185966,0.0109107512980699,-0.1290349960327148,0.1384917795658111,0.2040514771230518,-9.557567687147856,-2.186698581274599,100,walking
1783069104871152400,0.1693665,0.0345867812672629,0.076291797041893,0.015764847625792,0.0246193725615739,-0.1299279630184173,0.0908592864871025,0.1901688813135959,-9.55822936592698,-2.185061481592059,100,walking
1783069104881115100,0.1793292,-0.1051095481873489,0.0994908863216638,0.0182984577566385,0.0338725261390209,-0.1332907378673553,0.032878678292036,0.1814247626374475,-9.558981645599006,-2.1825071209341287,100,walking
1783069104891077400,0.1892915,-0.192158593826089,0.0591284807950258,0.017489041069895,0.035393726080656,-0.1209887936711311,-0.0241100378334522,0.1783918977475725,-9.559768996584417,-2.1793033564567565,100,walking
1783069104901040400,0.1992545,-0.2060789278300479,0.0601759440213441,0.0480260720223188,0.0412558726966381,-0.1079827025532722,-0.063138797879219,0.1801916406459175,-9.560517769125104,-2.1758726513557134,100,walking
1783069104911002400,0.2092165,-0.1299950013851747,0.0933855551838874,0.0571155335374176,0.0384670123457908,-0.1039525419473648,-0.0770650058984756,0.1847623460949398,-9.561255435749889,-2.172242916551232,100,walking
1783069104920965000,0.2191791,-0.0159222666772082,0.0888274534881115,0.1108244735017418,0.0196216441690921,-0.0887931436300277,-0.0566165037453174,0.1890530107598751,-9.561786181625724,-2.1695387721590698,100,walking
1783069104930927400,0.2291415,0.083906345432531,0.077613985556364,0.2371077974200248,2.82356049865e-05,-0.063716821372509,-0.0273821838200092,0.1914268637517467,-9.561944587057829,-2.16862998675108,100,walking
1783069104940890400,0.2391045,0.1017451132555492,0.2278004553705453,0.2758265273928642,-0.00510885566473,-0.0459123104810714,0.0152138648554682,0.1909460214322432,-9.561894902697205,-2.168891852557659,100,walking
1783069104950852400,0.2490665,0.0694311540247872,0.3235632610797881,0.1303444358773529,-0.0011077232193201,-0.0390717163681983,0.0629622116684913,0.1864491484044119,-9.561889642000198,-2.1693061324469745,100,walking
1783069104960815000,0.2590291,0.0313718012761324,0.4652268172204494,0.0112171211935579,0.0247862115502357,-0.0263245422393083,0.1037362143397331,0.1778215687800198,-9.56229471566975,-2.168243033260107,100,walking
1783069104970777300,0.2689914,0.0565430856780149,0.7405261058688163,-0.0270709622770547,0.0681123808026313,-0.0320748388767242,0.1349380910396576,0.1656687376389279,-9.563458498752116,-2.1640721773162483,100,walking
1783069104980740400,0.2789545,0.1139074885431211,1.0843827979147431,-0.1608984179645776,0.115883320569992,-0.0460485555231571,0.1358789205551147,0.151848886601068,-9.565691956892609,-2.1551924130290745,100,walking
1783069104990702300,0.2889164,0.2505317444754764,1.454249545007944,-0.2083287160508334,0.1393348425626754,-0.0533259101212024,0.1210978552699089,0.1386756629036739,-9.568647299566864,-2.1429265134349462,100,walking
1783069105000665300,0.2988794,0.402641437437199,1.7615128286719322,-0.1352162796974182,0.1309567987918853,-0.0718095228075981,0.0967279821634292,0.126926051401766,-9.57169791930914,-2.129997766017914,100,walking
1783069105010628000,0.3088421,0.446526391066797,1.9116782556980847,-0.0514652526907622,0.1055158823728561,-0.0985250174999237,0.0629742816090583,0.1173080816336907,-9.574320084506272,-2.118728476245701,100,walking
1783069105020590300,0.3188044,0.3262454128358513,2.035769330269098,0.03032499563694,0.0611462481319904,-0.0881065502762794,0.0205324869602918,0.1112949222913943,-9.576157821327447,-2.1107366007089614,100,walking
1783069105030553300,0.3287674,0.0989800324563868,2.234845795458555,0.2864998970985412,0.0132293198257684,-0.0330177322030067,-0.0267599280923604,0.1100636999960057,-9.576964461535216,-2.107140768174082,100,walking
1783069105040515300,0.3387294,-0.2349251926839351,2.52033213160038,0.494224655906856,-0.0223391633480787,0.0596913062036037,-0.0848909392952919,0.1156639676884748,-9.576793781143426,-2.107617445775121,100,walking
1783069105050478300,0.3486924,-0.5761164649128914,2.83378199494481,0.5542459938883781,-0.0211458001285791,0.1332456916570663,-0.1629441827535629,0.1292985892193857,-9.576153145152327,-2.1097291772320865,100,walking
1783069105060440300,0.3586544,-0.7465162861943244,3.233413181182742,0.4587621512509882,0.034115694463253,0.1772620230913162,-0.2469488978385925,0.1521557149273809,-9.575952069622277,-2.1091149908564986,100,walking
1783069105070403300,0.3686174,-0.9241392636623234,3.573730593186617,0.3850020646438002,0.1374894827604293,0.2108008116483688,-0.3423558473587036,0.1844805882778018,-9.577190086984634,-2.1008958824351427,100,walking
1783069105080365300,0.3785794,-1.0226231648985296,3.606670739758015,0.2371341009050607,0.3081580102443695,0.2353640347719192,-0.4237427413463592,0.2256532690077088,-9.580952069866656,-2.0796220621295274,100,walking
1783069105090328300,0.3885424,-1.0756805090863255,3.3343671257942917,0.0931011852845549,0.5428138971328735,0.2813045978546142,-0.4840689301490783,0.2745207420239224,-9.588471943977474,-2.038689893890917,100,walking
1783069105100290300,0.3985044,-1.3030457148447632,2.636113058465719,0.1763976003915071,0.7883734107017517,0.3513851761817932,-0.4882000386714935,0.327558139402233,-9.60039677504897,-1.9736951514109968,100,walking
1783069105110253300,0.4084674,-1.519407661356032,1.6191595367014406,0.5112310280263423,0.9332245588302612,0.4748871326446533,-0.4414602220058441,0.3802166204655542,-9.615493806415795,-1.888944299712032,100,walking
1783069105120215300,0.4184294,-1.5554291150689123,0.5383335544854402,1.1464075846731665,0.9341786503791808,0.5730603933334351,-0.3964020609855652,0.4298550230553373,-9.631062546947598,-1.7967326106131076,100,walking
1783069105130178300,0.4283924,-1.5486279106214642,-0.2803454661220312,1.500641293826699,0.8485977053642273,0.6716253161430359,-0.3620504736900329,0.4770729935651644,-9.644967153659463,-1.7080390126377345,100,walking
1783069105140140300,0.4383544,-1.4409626318030058,-0.7793149784684181,1.7509321056857703,0.7413528561592102,0.7510798573493958,-0.3417921066284179,0.5229359327368438,-9.656409754171968,-1.6280796329990028,100,walking
1783069105150103300,0.4483174,-1.3951260326489805,-0.7779583031624555,1.7152566889315843,0.6400496959686279,0.8419637084007263,-0.2754562497138977,0.5653856293989346,-9.665698976042869,-1.5572393793612718,100,walking
1783069105160065500,0.4582796,-1.407237180072814,-0.701251495578885,1.4598599322356285,0.5893704891204834,0.9313274025917052,-0.1507836878299713,0.599792706717737,-9.673721538978814,-1.4932288256131112,100,walking
1783069105170028300,0.4682424,-1.48033456498757,-0.476044563832879,0.9191279383063315,0.5893563628196716,0.9921560883522034,0.0033723278902471,0.620965806595236,-9.681804892191291,-1.4308886892952024,100,walking
1783069105179990300,0.4782044,-1.3837518211975692,-0.2276023024499416,0.483641740963608,0.6268383860588074,1.0587449073791504,0.1274345815181732,0.6285308350220322,-9.690676765432952,-1.3660548364654184,100,walking
1783069105189953300,0.4881674,-1.1742621716085822,0.2455792731672525,0.2872003004528582,0.6835448145866394,1.0249706506729126,0.2131425589323043,0.6256906431600451,-9.700430682206154,-1.2963558618173003,100,walking
1783069105199915500,0.4981296,-0.7388308462582528,0.7485539295017719,-0.2157505366146564,0.7577990293502808,0.9043431878089904,0.2595832347869873,0.6147813458066433,-9.710948569089174,-1.2206211141362786,100,walking
1783069105209878300,0.5080924,-0.3061658072834834,1.2119354111164808,-0.4528168329805135,0.8016653060913086,0.8157638311386108,0.2903193235397339,0.5981087722187861,-9.721826521456242,-1.1396266923613845,100,walking
1783069105219840300,0.5180544,-0.1460973373370245,1.5516268001765012,-0.2842553330421447,0.814319372177124,0.7826732397079468,0.3225028216838836,0.5773529479052871,-9.732464235326647,-1.0564976697105914,100,walking
1783069105229803300,0.5280174,-0.1204139934934675,1.6899930683374405,-0.1303500619005412,0.7924942374229431,0.8019787669181824,0.386992871761322,0.5510709440488368,-9.742590492543576,-0.9739756730422378,100,walking
1783069105239765500,0.5379796,-0.105313710723631,1.7678496304780245,0.1349555829346179,0.7538214325904846,0.9146059155464172,0.4641030728816986,0.5177149832181632,-9.752062669765948,-0.8942164921507239,100,walking
1783069105249728300,0.5479424,-0.1531406069120392,1.9446476283639669,0.6447569434840231,0.6797029972076416,1.0617090463638306,0.5274348855018616,0.4778540974728762,-9.760667416504026,-0.8193840270716697,100,walking
1783069105259690200,0.5579043,-0.3614296850722283,2.270919563880563,0.8564186033498495,0.5683274865150452,1.1628830432891846,0.5573124289512634,0.4334054455459117,-9.76806395649612,-0.7533182212941348,100,walking
1783069105269653200,0.5678673,-0.5521327645940706,2.493217914703488,0.6437297923933715,0.4493313133716583,1.2076635360717771,0.5354284644126892,0.388429226080887,-9.773985747760534,-0.699095778849721,100,walking
1783069105279615500,0.5778296,-0.6582070113614201,2.733611309665441,0.5192202732145786,0.3661626875400543,1.203959345817566,0.4573232233524322,0.3478586576962843,-9.778549694675206,-0.6552407089017331,100,walking
1783069105289578200,0.5877923,-0.5956437703447416,3.24496099563539,0.5541426065791398,0.3240636885166168,1.1509621143341064,0.3304970860481262,0.3167192038713023,-9.782028768962622,-0.6180376441888511,100,walking
1783069105299540200,0.5977543,-0.3785591721147298,3.8033927507758136,0.5403759470332413,0.3148382306098938,1.0554494857788086,0.1774336993694305,0.2985030175706371,-9.784705879217386,-0.583770742525719,100,walking
1783069105309503200,0.6077173,-0.323892456501536,4.204606822291017,0.1420610310256481,0.3303253352642059,0.9640857577323914,0.0541501156985759,0.2933664036008529,-9.786838215070963,-0.5496739732651039,100,walking
1783069105319466200,0.6176803,-0.4562704075004905,4.207904694792628,-0.2271049473870545,0.3780544102191925,0.9596143364906312,0.012483219616115,0.2957092221336439,-9.788789933660626,-0.512404053861089,100,walking
1783069105329428200,0.6276423,-0.5278630869407206,3.978220909893512,-0.0405506946403533,0.4303168058395386,1.0545258522033691,0.0801850333809852,0.296673062197119,-9.790894212463495,-0.4698630256537348,100,walking
1783069105339391200,0.6376053,-0.6325768955424428,3.551262740790844,0.3358522492885589,0.4366661012172699,1.1825993061065674,0.1940572261810302,0.2882607144922949,-9.793245744025707,-0.4238394160276278,100,walking
1783069105349353200,0.6475673,-0.7831376054964959,3.008307371723652,0.3730733976474031,0.3653208315372467,1.2682244777679443,0.2978629767894745,0.2688331431078724,-9.79557097210288,-0.3807047693086788,100,walking
1783069105359316200,0.6575303,-0.8750447586908936,2.5910598647743464,0.1559223831176757,0.2149173468351364,1.3101569414138794,0.3435743451118469,0.2417784378458745,-9.797457808762788,-0.3489549650330096,100,walking
1783069105369278200,0.6674923,-1.0489347601756454,2.263654541313648,-0.0215173832705244,0.0390674956142902,1.3537472486495972,0.3262355625629425,0.2132087066447362,-9.798655494114756,-0.333572869647108,100,walking
1783069105379241200,0.6774553,-1.4010638982653616,2.083268748068809,-0.168279139333032,-0.1476893573999405,1.3681559562683103,0.2155138999223709,0.1906453214526176,-9.799031926211716,-0.3361490037454292,100,walking
1783069105389203200,0.6874173,-1.813337708455324,2.294249586063623,-0.5000228207916021,-0.3451289236545563,1.4287647008895874,0.0301682725548744,0.1830361068242229,-9.79842577701211,-0.3574004660887643,100,walking
1783069105399166500,0.6973806,-2.1011064564459025,2.6120745957523583,-0.8567290575385094,-0.5206261873245239,1.5387170314788818,-0.2109152823686599,0.1971176410055719,-9.796624865069983,-0.3970846800928935,100,walking
1783069105409128400,0.7073425,-2.364612577578425,2.803538832372426,-1.5060703331381082,-0.5544422268867493,1.7471249103546145,-0.4909916520118713,0.2379630625424906,-9.793560801324247,-0.4471490530097857,100,walking
1783069105419091200,0.7173053,-2.4350636857680974,2.379257189002633,-2.1850684958547357,-0.4393287897109985,1.9645196199417116,-0.8052118420600891,0.3096112350296229,-9.789460964789988,-0.4909010644420981,100,walking
1783069105429053200,0.7272673,-2.221435840395838,1.3033213169157505,-3.343561655119061,-0.3278461992740631,2.064446210861206,-1.1389775276184082,0.4147113395351916,-9.784031925478578,-0.520679824373126,100,walking
1783069105439016400,0.7372305,-1.5040904113672673,-0.2874526677787303,-4.613183531528711,-0.2946197390556335,2.0013656616210938,-1.4722051620483398,0.5528440181359648,-9.776125097876786,-0.5404850699635222,100,walking
1783069105448978400,0.7471925,-0.4329544869080186,-2.029407978543639,-5.373677489671111,-0.4065505266189575,1.9451833963394165,-1.7553203105926514,0.7211565848145634,-9.763979317530987,-0.5612492237139493,100,walking
1783069105458941200,0.7571553,-0.0087315149229019,-3.8729192914664745,-5.638759920209646,-0.541461706161499,2.053611516952514,-1.929404020309448,0.9120938018858432,-9.746197577124834,-0.5917011701988056,100,walking
1783069105468903400,0.7671175,0.0757457074664533,-6.185071029445528,-5.685614025843143,-0.4628087282180786,2.435835599899292,-2.048755884170532,1.1188115025434642,-9.722903795298931,-0.6195161192435771,100,walking
1783069105478866400,0.7770805,0.5945226208277047,-9.3238337500751,-6.211312555161118,-0.1583124995231628,2.6769795417785645,-2.150524377822876,1.3377477565221487,-9.695255325394868,-0.6187465231105684,100,walking
1783069105488828400,0.7870425,1.9971030611358584,-12.875114026522636,-7.088170208492874,0.1015198677778244,2.651531219482422,-2.2705657482147217,1.5669653852142391,-9.663151045125725,-0.5818041551604867,100,walking
1783069105498791200,0.7970053,4.075729682487249,-16.3125703553915,-6.711778443545103,0.1566913276910781,2.5012571811676025,-2.3430981636047363,1.8032326401568948,-9.625161798471211,-0.5243969452001154,100,walking
1783069105508753400,0.8069675,6.245130069088935,-20.095076970005035,-5.758586907595396,-0.1058460175991058,2.2519750595092773,-2.32527494430542,2.038957458785921,-9.580603110298512,-0.4744178028812632,100,walking
1783069105518716400,0.8169305,8.044604087364673,-24.250513226413727,-4.6154994072556494,-0.6118791103363037,2.0630311965942383,-2.1916375160217285,2.2643793484568597,-9.530473343995212,-0.4615545949811115,100,walking
1783069105528678400,0.8268925,9.757752405840158,-27.741811035585403,-2.8505431601315734,-1.2123782634735107,1.8674129247665403,-2.128316164016724,2.477515318658948,-9.475305583524705,-0.500890251275897,100,walking
1783069105538641200,0.8368553,10.687798044002056,-29.59033579275608,-1.6431927387177945,-1.8417993783950808,1.473366618156433,-2.165125608444214,2.687709097929299,-9.41195802372992,-0.6013716099396348,100,walking
1783069105548603400,0.8468175,11.726266647481918,-29.165797544276717,-1.129735339878872,-2.4361696243286133,0.8607551455497742,-2.3961169719696045,2.9069439695283767,-9.334312473991512,-0.7685675206132233,100,walking
1783069105558566400,0.8567805,12.50298167258501,-26.59839269585609,-0.7457166602492332,-3.002002000808716,0.1339571923017501,-2.8042221069335938,3.1515061746075745,-9.231883780652284,-1.0053424328170717,100,walking
1783069105568528400,0.8667425,12.808527630937098,-23.060866219472885,0.0375869494639337,-3.472769498825073,-0.4910691380500793,-3.07845139503479,3.4190719463944435,-9.097750620016456,-1.3081601352490484,100,walking
1783069105578491100,0.8767052,12.606853550469877,-20.1948852517128,0.656856035143882,-3.713112592697144,-1.0449458360671997,-3.108842134475708,3.686884970940649,-8.934319468703865,-1.659876893145591,100,walking
1783069105588453400,0.8866675,11.86257715215683,-17.713944050258398,0.8193290089488029,-3.681368350982666,-1.3667705059051514,-2.929152250289917,3.931074251054227,-8.75111160377562,-2.0334886719860137,100,walking
1783069105598416400,0.8966305,11.154314316511153,-14.957819295489788,1.049035882462561,-3.368337869644165,-1.6611533164978027,-2.6949026584625244,4.139994357126951,-8.559974114891887,-2.399514964133501,100,walking
1783069105608378400,0.9065925,10.878266839843988,-11.724819371283054,0.6821832224935293,-2.852543830871582,-2.1020586490631104,-2.525102376937866,4.311895230621099,-8.37031371282339,-2.741495633174478,100,walking
1783069105618341000,0.9165551,10.879135439372062,-8.944992838409542,0.8088952932178973,-2.2753360271453857,-2.5566611289978027,-2.3522543907165527,4.445550252351165,-8.189859530517458,-3.055105363255739,100,walking
1783069105628303400,0.9265175,10.74349713487029,-7.361351774334907,2.392248188000917,-1.747899293899536,-2.648824691772461,-2.1467127799987797,4.543480465227365,-8.025284469866753,-3.334965383948385,100,walking
1783069105638266400,0.9364805,10.217802697205544,-6.144912037536502,5.2481636888206005,-1.3706525564193726,-2.8386247158050537,-1.8911513090133667,4.610236956682801,-7.87972390628755,-3.5813512973234056,100,walking
1783069105648229400,0.9464435,9.27788039267361,-5.263218634611368,5.406964257723093,-1.128454089164734,-3.093308448791504,-1.5990221500396729,4.636471175874769,-7.753456656721234,-3.815418704134226,100,walking
1783069105658191000,0.9564051,8.440190966647863,-4.482893602317572,6.087628307825327,-0.967264711856842,-3.334052562713623,-1.2929619550704956,4.621675173281133,-7.645832732826471,-4.043728570331633,100,walking
1783069105668154000,0.9663681,7.352047354894876,-3.3126533066362143,7.153593405517936,-0.850778341293335,-3.4875502586364746,-1.0575381517410278,4.568383435815573,-7.554927304020524,-4.268879972498119,100,walking
1783069105678116400,0.9763305,6.068696812862157,-1.6227239511847495,7.709623360213637,-0.7814327478408813,-3.5326507091522217,-0.9845236539840698,4.490630041788518,-7.473895618975162,-4.4883746640771625,100,walking
1783069105688079400,0.9862935,4.62022497447282,0.6743991444885731,8.125316623458266,-0.7104451060295105,-3.571371793746948,-1.0837948322296145,4.404119633071124,-7.394324654132127,-4.700859769155085,100,walking
1783069105698041000,0.9962551,3.4270953861132263,2.510256727787852,7.983177851021289,-0.6640536785125732,-3.6622371673583984,-1.223120093345642,4.315602852967381,-7.311379244419932,-4.908124509236217,100,walking
1783069105708004400,1.0062185,2.837910473051667,3.2946663990467786,8.303787522992492,-0.6674265265464783,-3.8013861179351807,-1.314579725265503,4.22184232699126,-7.223999651652574,-5.114710911664367,100,walking
1783069105717966300,1.0161804,2.5523341205388306,4.025792223885655,8.73415871540904,-0.7055999040603638,-3.968635320663452,-1.344275712966919,4.114918952581286,-7.132867428353428,-5.3254135172396895,100,walking
1783069105727929300,1.0261434,2.100211115041375,5.294934207823872,9.233976369017364,-0.7082553505897522,-4.093434810638428,-1.355175256729126,3.9918347169652577,-7.03955903005898,-5.53897501937747,100,walking
1783069105737891000,1.0361051,1.3663339456677437,6.757586254996061,9.901879137223958,-0.5850513577461243,-4.11791467666626,-1.318720459938049,3.8540731366992,-6.950319488638639,-5.745394833067059,100,walking
1783069105747854300,1.0460684,0.2673901229590177,7.464120659413933,10.973851366376875,-0.4007222652435303,-4.070944309234619,-1.2541824579238892,3.704290571510792,-6.873201177644729,-5.933608543458581,100,walking
1783069105757816300,1.0560304,-0.5890016654491425,7.696950925645232,12.14668986185789,-0.2794615626335144,-3.99706768989563,-1.230312466621399,3.546438973896205,-6.808252612394094,-6.102527770793437,100,walking
1783069105767779300,1.0659934,-1.204706044384837,8.167451299354434,13.267767774963378,-0.1967283189296722,-3.9205923080444336,-1.279045343399048,3.387320132824778,-6.7503826072275634,-6.255299580925703,100,walking
1783069105777737500,1.0759516,-2.310831887552142,8.690655673769117,13.960879803228378,-0.1752926707267761,-3.961215019226074,-1.3731297254562378,3.227811123391985,-6.695237643110752,-6.397296899065375,100,walking
1783069105787700500,1.0859146,-4.003273810346425,9.1611513713032,13.887141197800636,-0.1690070778131485,-3.9537434577941895,-1.4876775741577148,3.0674399441719054,-6.63945847274363,-6.532900716775655,100,walking
1783069105797662200,1.0958763,-5.634348533508181,9.226510855442283,13.823975424313543,-0.241380512714386,-3.803080558776856,-1.586197018623352,2.913637621948123,-6.58046910815835,-6.661721157956123,100,walking
1783069105807625200,1.1058393,-6.526362839439511,8.66019039287865,13.947566732668877,-0.4219953119754791,-3.6713340282440186,-1.5980017185211182,2.767615578337013,-6.513489329341054,-6.78860390907228,100,walking
1783069105817587500,1.1158016,-6.694985129654407,8.491267658412456,14.013687848830225,-0.6475183963775635,-3.596256256103516,-1.5773653984069824,2.6224478134676814,-6.434199519526958,-6.920566155409812,100,walking
1783069105827550500,1.1257646,-6.633444911542535,8.599131236281991,13.696815025299786,-0.7510898113250732,-3.5478179454803467,-1.5226787328720093,2.4721727885872125,-6.345439286056161,-7.056496720856428,100,walking
1783069105837512200,1.1357263,-6.678590459692478,9.004122488248347,13.596608099663255,-0.6706671714782715,-3.4739830493927,-1.479997992515564,2.317402498114109,-6.2582724592566485,-7.185684241783618,100,walking
1783069105847475200,1.1456893,-6.525403054496645,9.5777190792948,13.39337100766301,-0.415756344795227,-3.3285207748413086,-1.4546494483947754,2.1625689331464466,-6.185883514872193,-7.295788292056321,100,walking
1783069105857437400,1.1556515,-6.402840504667163,10.01030444062948,13.481370778155329,-0.033283095806837,-3.0698938369750977,-1.469760537147522,2.018758135844022,-6.139178462320566,-7.376006907153129,100,walking
1783069105867400400,1.1656145,-6.162478673887253,10.139434678411485,13.717742077994346,0.3728185892105102,-2.7797908782958984,-1.4855448007583618,1.8936169676981864,-6.123011171373725,-7.422488087821006,100,walking
1783069105877362200,1.1755763,-5.881059441053867,9.887823723864557,13.531321680760383,0.7522817254066467,-2.4118545055389404,-1.3949732780456543,1.7898174243971705,-6.138204064330458,-7.435683084958791,100,walking
1783069105887325200,1.1855393,-5.712851576858759,8.906952738350629,13.771046967202423,1.0629762411117554,-2.13491153717041,-1.110308051109314,1.6994212602876126,-6.183997262734175,-7.418930687600373,100,walking
1783069105897287400,1.1955015,-5.818327382808923,7.331103351065516,13.56832893064022,1.272799730300903,-1.8397839069366453,-0.7066987752914429,1.609171372780949,-6.25565847736597,-7.378868141803145,100,walking
1783069105907250400,1.2054645,-6.145594759103656,6.124824358275532,13.7574404666543,1.3295738697052002,-1.5260661840438845,-0.3054267168045044,1.517602803891152,-6.3438938101798295,-7.322723645254969,100,walking
1783069105917212200,1.2154263,-6.5494532076478,5.344903815129399,13.534454718089105,1.2375675439834597,-1.2164638042449951,0.001904388424009,1.4270590480044485,-6.435312449204921,-7.260897595939039,100,walking
1783069105927175200,1.2253893,-6.909294235289097,5.017875508287549,13.116596385765074,1.1232266426086426,-0.9192745685577391,0.1651148945093155,1.3441221138596533,-6.521433566343784,-7.199626257896423,100,walking
1783069105937138400,1.2353525,-7.039740816366672,5.251375052082539,12.731041071152688,1.087859272956848,-0.6090287566184998,0.1551145613193512,1.2785432878814638,-6.602153116700053,-7.137736495694518,100,walking
1783069105947100400,1.2453145,-7.0043328183770175,5.753032196077704,12.431789244508742,1.1435118913650513,-0.3145299851894378,0.0243927706032991,1.239693771135807,-6.68183221809268,-7.07012484871447,100,walking
1783069105957063200,1.2552773,-7.019390686777234,5.831049501737952,12.072063952201605,1.2660638093948364,-0.0727433338761329,-0.145671010017395,1.2303605639927089,-6.765536337217688,-6.991717666953802,100,walking
1783069105967025200,1.2652393,-7.09793289309442,5.630404179796576,11.780510278844831,1.3590859174728394,0.1732930690050125,-0.2985511124134063,1.2487485997289418,-6.85399086574018,-6.901725845861434,100,walking
1783069105976988400,1.2752025,-7.243588733741641,5.16718461074531,11.41249062092304,1.3828225135803225,0.4598105251789093,-0.428312599658966,1.295493838160485,-6.943233329769969,-6.803204096832871,100,walking
1783069105986950400,1.2851645,-7.284699327287077,4.829959904059767,10.908854870331286,1.3235480785369873,0.7375513315200806,-0.5330520272254944,1.369524558402598,-7.028285940894484,-6.700595955273509,100,walking
1783069105996913200,1.2951273,-7.225506549084186,4.694752976712584,10.677964047729969,1.2107781171798706,0.942303478717804,-0.6467362642288208,1.467002643597126,-7.103918397244811,-6.599441519653797,100,walking
1783069106006875400,1.3050895,-6.6298974481940265,4.855003159901499,10.33000751914978,1.1387149095535278,1.0500400066375732,-0.7739930152893066,1.582771003241837,-7.169597030335664,-6.500930876541137,100,walking
1783069106016838400,1.3150525,-5.753153776630759,5.379086655238271,9.705130822721124,1.190267562866211,1.0775902271270752,-0.8764248490333557,1.7108435486644509,-7.23025403587222,-6.400533981290459,100,walking
1783069106026800400,1.3250145,-5.291358687424659,5.3904637892991305,8.559056415525077,1.3012100458145142,1.1284661293029783,-0.9446057677268982,1.846102206198871,-7.293104752060771,-6.290699980130792,100,walking
1783069106036763100,1.3349772,-4.951116678744555,5.148042103379964,7.5939821340799325,1.3109655380249023,1.2176278829574585,-0.9713258743286132,1.9891899499237533,-7.356393859666586,-6.1722752607584,100,walking
1783069106046725400,1.3449395,-4.300703682260215,4.957175248131156,6.452426081091165,1.2375041246414185,1.2394756078720093,-0.9292420744895936,2.134549730233848,-7.414374339470267,-6.05319295426011,100,walking
1783069106056688400,1.3549025,-3.415969304203987,4.637371631845832,5.204582321247458,1.2500547170639038,1.2063038349151611,-0.8387647271156311,2.273486053367704,-7.468814370188117,-5.934514552387594,100,walking
1783069106066650400,1.3648645,-2.525617378526926,4.098348926052451,3.738113346135616,1.3026026487350464,1.0912166833877563,-0.7337291240692139,2.399921791368723,-7.525199105232954,-5.812239587327838,100,walking
1783069106076613400,1.3748275,-1.6624781616851687,3.429381743484736,1.634642352515459,1.354343056678772,0.8453659415245056,-0.6295561790466309,2.50733236477375,-7.584518724685907,-5.688474675971269,100,walking
1783069106086575400,1.3847895,-0.7146598432064056,2.6501170338988302,-0.8467407474875449,1.4617201089859009,0.5143179893493652,-0.49025559425354,2.588122642278671,-7.6487611874938,-5.564931298410892,100,walking
1783069106096538400,1.3947525,0.3928744054540991,1.485113469827175,-3.2712212260514497,1.6798959970474243,0.2311164587736129,-0.208699882030487,2.6362396074548364,-7.724851909005642,-5.435742023918032,100,walking
1783069106106500400,1.4047145,1.658012706708908,-0.2187140625953674,-4.50551810657978,2.00567364692688,-0.0731600821018219,0.3184608519077301,2.6377836220264435,-7.824007864284515,-5.291255811572075,100,walking
1783069106116463400,1.4146775,3.2550741011098023,-2.459896075338125,-5.670753141319752,2.3887264728546143,-0.4221976399421692,1.0538655519485474,2.5724127397105097,-7.95562991888225,-5.124552506721019,100,walking
1783069106126425300,1.4246394,4.353354783734679,-4.7846319850802415,-7.177635375362634,2.6432414054870605,-0.7374333739280701,1.9062875509262085,2.4237321444146334,-8.119217722061276,-4.93702502502799,100,walking
1783069106136388400,1.4346025,3.461182072371244,-7.051231347674131,-8.960176963537931,2.648167371749878,-0.5292178988456726,2.54114294052124,2.207389340995252,-8.299192596417665,-4.735105445367098,100,walking
1783069106146350300,1.4445644,0.7566596406765281,-8.881035037761926,-11.201842960405347,2.7240993976593018,0.4583823084831238,2.78796648979187,1.978416480844468,-8.477973877075314,-4.514444048096239,100,walking
1783069106156313300,1.4545274,-1.6985430161483586,-11.50085747116208,-14.318646947205066,3.2601826190948486,1.916672945022583,2.5692617893218994,1.7986505730636415,-8.658170869749783,-4.239259617999196,100,walking
1783069106166275300,1.4644894,-1.045201418866217,-15.3489275680542,-16.096407146322726,3.9086661338806152,2.806823492050171,2.011557102203369,1.6961249952211974,-8.843882241931556,-3.883205707681179,100,walking
1783069106176238300,1.4744524,2.599699682825804,-19.49178958957195,-13.934768041372298,3.912285327911377,2.556681871414185,1.3939834833145142,1.6461178323842585,-9.017914866757392,-3.483947154147923,100,walking
1783069106186200300,1.4844144,5.550006701001524,-24.024452892708776,-7.943701580679416,2.8653602600097656,1.560110330581665,0.8893826603889465,1.6117986525446175,-9.1500542232275,-3.138309716165065,100,walking
1783069106196163300,1.4943774,5.078098798581958,-27.865304144263263,-2.525207628682256,1.3306820392608645,0.952642023563385,0.5838574171066284,1.5827198575764894,-9.224770149254798,-2.927287377116084,100,walking
1783069106206125300,1.5043394,2.137218657182157,-30.806999401438237,-1.2149199798852204,0.310676246881485,0.800679624080658,0.4701130092144012,1.5595783437028523,-9.255176977956294,-2.8425033537998794,100,walking
1783069106216088300,1.5143024,-0.4398939307823777,-31.447074251520636,-3.6569033819139,-0.1344380378723144,0.7727805376052856,0.5090560913085938,1.537485608229786,-9.26437969058752,-2.824500079597533,100,walking
1783069106226051300,1.5242654,-1.743496987248957,-30.22044337557554,-6.284242766815424,-0.3703294098377228,0.9475986957550048,0.7252805233001709,1.5055731972709296,-9.2663758328408,-2.8351217191159725,100,walking
1783069106236013300,1.5342274,-2.510974520668387,-29.00551696594953,-6.929992155402898,-0.6498817801475525,1.202031493186951,1.0920144319534302,1.4527372407488524,-9.26534707431495,-2.8658833526045084,100,walking
1783069106245976300,1.5441904,-3.841039467602968,-26.78773336445093,-7.044093750879168,-0.8853766322135925,1.5321228504180908,1.4127583503723145,1.3754608165837825,-9.260863791421055,-2.918030011688173,100,walking
1783069106255938300,1.5541524,-5.012319627726078,-23.27814469630718,-6.616025574707985,-1.0239471197128296,1.8649803400039675,1.5815167427062988,1.286193656504154,-9.252771670380234,-2.983675911553204,100,walking
1783069106265901300,1.5641154,-5.22108337419331,-19.49591748315692,-5.8471612631052725,-1.232990860939026,2.081307888031006,1.5610597133636477,1.20017110436894,-9.238841344705223,-3.061663114336133,100,walking
1783069106275863300,1.5740774,-4.392452868413925,-16.48236227390766,-4.637614208430051,-1.7018873691558838,2.146694660186768,1.4280829429626465,1.1282580338679251,-9.211161895141004,-3.170476248015463,100,walking
1783069106285826300,1.5840404,-3.2720158835604787,-14.142742098766565,-3.218875829525292,-2.3201966285705566,2.133074283599853,1.1710370779037476,1.0775803513582796,-9.160471572345497,-3.3309111401215192,100,walking
1783069106295788300,1.5940024,-2.329433712169528,-10.889114397072792,-2.570140995386242,-2.863535165786743,2.115859031677246,0.7364671230316162,1.062601758739352,-9.081669253787398,-3.5446500446528195,100,walking
1783069106305751300,1.6039654,-1.887113431023061,-6.081197982516884,-2.318833407700062,-3.260824918746948,2.14241623878479,0.1874751150608062,1.097924635728821,-8.974140606960654,-3.798651109206676,100,walking
1783069106315713300,1.6139274,-2.3387789020113647,-1.2040642393499612,-2.583995333215594,-3.394455909729004,2.34164834022522,-0.4273097515106201,1.1959965220980346,-8.841557013854384,-4.070238976116478,100,walking
1783069106325676300,1.6238904,-3.038278731617331,3.0754204215317964,-2.507541331349313,-3.1757800579071045,2.6203179359436035,-0.9988558292388916,1.3624870609812438,-8.693862945377827,-4.327904408396781,100,walking
1783069106335638300,1.6338524,-3.068664225269854,6.838050369286536,-1.819579233193397,-2.626368522644043,2.9244613647460938,-1.3997137546539309,1.5891972368970513,-8.54721107943058,-4.53762443267554,100,walking
1783069106345601300,1.6438154,-2.337318035678565,8.929393118217586,-0.7485586056768894,-2.0019969940185547,3.228762626647949,-1.491125226020813,1.854886401157081,-8.415986499717832,-4.679845038177072,100,walking
1783069106355563500,1.6537776,-1.4027239404320715,9.218344500121471,0.7343772278502583,-1.603429079055786,3.390434741973877,-1.1811177730560305,2.124725232442468,-8.305105619853734,-4.762471591198444,100,walking
1783069106365526300,1.6637404,-0.1381535021930933,7.751750437325239,2.73918881753683,-1.5407798290252686,3.28598427772522,-0.5015812516212463,2.35563315230906,-8.212035706490278,-4.814961656892299,100,walking
1783069106375488300,1.6737024,1.1034621769160031,5.399108283525705,4.623185870105028,-1.8058059215545652,3.2287304401397705,0.2413775324821472,2.5216584117680787,-8.129096726518869,-4.871285309399664,100,walking
1783069106385451300,1.6836654,1.4403835167407988,4.238940469047427,7.49557144421041,-2.150198221206665,3.292720079421997,0.7313511967658997,2.640682558338344,-8.045271611362695,-4.946794139370322,100,walking
1783069106395413500,1.6936276,0.4980880533367395,5.009850607264042,8.719454482752084,-2.2664809226989746,3.2388641834259038,0.8041430711746216,2.73917186640203,-7.955766112482547,-5.037172329431772,100,walking
1783069106405376300,1.7035904,-0.4723381105303764,6.660163991641998,7.785238865429163,-2.091844320297241,3.250133514404297,0.4061357676982879,2.853670936763286,-7.862651775455475,-5.119145679241418,100,walking
1783069106415338200,1.7135523,-1.7375281419724224,8.948096649643778,7.37609867708981,-1.827415943145752,3.03399658203125,-0.3257141709327698,3.011692045725882,-7.763415156155824,-5.17971734458208,100,walking
1783069106425301200,1.7235153,-3.189436384551227,10.110966124296189,5.559878106674551,-1.4966779947280884,2.815260410308838,-0.9724678993225098,3.2133781088918445,-7.656309118655323,-5.217806544479728,100,walking
1783069106435263500,1.7334776,-4.531995194616914,9.4310023314178,4.7096144457578655,-1.0748971700668335,2.860494375228882,-1.3331165313720703,3.448918510864675,-7.550358096408844,-5.221824547949433,100,walking
1783069106445226200,1.7434403,-5.227983070579171,8.19103325047195,4.92855939449966,-0.6794913411140442,3.0961835384368896,-1.342469573020935,3.704522334440053,-7.45661130669713,-5.181296722728014,100,walking
1783069106455188200,1.7534023,-5.134109439617395,6.220543324843049,5.486943803367018,-0.373166024684906,3.2916245460510254,-1.0533347129821775,3.957359031389653,-7.384574244490265,-5.09683857036531,100,walking
1783069106465151200,1.7633653,-4.243651423217356,3.5718063471257686,6.283101195564866,-0.2546556293964386,3.322514057159424,-0.6244368553161621,4.185741670562327,-7.335341134765744,-4.984245625886321,100,walking
1783069106475113500,1.7733276,-2.7775337457612155,2.8181594783991573,6.883769333410263,-0.33529132604599,3.0075225830078125,-0.2595661282539367,4.373418497598171,-7.303247375890612,-4.868898414263129,100,walking
1783069106485076500,1.7832906,-2.1399252857923505,3.0253800870776173,6.888761150348186,-0.6034103631973267,2.5434141159057617,-0.0898202434182167,4.51841470529288,-7.274190208232403,-4.779170504803956,100,walking
1783069106495039200,1.7932533,-1.993437670496106,3.1972534880429504,7.111416059523821,-1.0066977739334106,2.1330060958862305,-0.045518435537815,4.633344276025891,-7.233278352129459,-4.730981058913469,100,walking
1783069106505001200,1.8032153,-2.23717774553746,3.992647494652867,7.269821491628885,-1.2972304821014404,1.9741510152816768,0.0279083773493766,4.729990586571395,-7.177982581365108,-4.719548103012144,100,walking
1783069106514964200,1.8131783,-2.427009412519633,4.64425613066256,7.200666706860065,-1.3463475704193115,1.868170022964477,0.101137563586235,4.815823534418643,-7.118214049100875,-4.72326624675244,100,walking
1783069106524926500,1.8231406,-2.720104177838564,4.710122979801893,6.303890885615348,-1.2036972045898438,1.8107905387878416,0.2014891952276229,4.891794136682153,-7.065119003251194,-4.724914598481357,100,walking
1783069106534889200,1.8331033,-2.445651861408353,4.281688308405876,5.738354266905784,-0.9992859959602356,1.772118330001831,0.3018160760402679,4.958216281616688,-7.025742686152458,-4.714383267594874,100,walking
1783069106544851200,1.8430653,-2.102657923671603,3.9010751263707872,5.735642085337639,-0.8341681957244873,1.7222516536712646,0.3330765068531036,5.017597860389948,-6.999171490091085,-4.69102168122977,100,walking
1783069106554814500,1.8530286,-1.8881594329446556,3.700765904515981,5.962407936963439,-0.7959854006767273,1.6029258966445925,0.2693237662315368,5.073794379386306,-6.97708123883605,-4.663403898724913,100,walking
1783069106564776400,1.8629905,-1.57902567923367,3.972277491319179,6.087713648021221,-0.8342904448509216,1.4924036264419556,0.1090688556432724,5.132020942905545,-6.9491679805159565,-4.641316570079327,100,walking
1783069106574739200,1.8729533,-1.3992770148485898,4.255680591446161,6.385383173909783,-0.8372063040733337,1.410844802856445,-0.0894755572080612,5.198426136705279,-6.910850232559442,-4.624597782729566,100,walking
1783069106584701200,1.8829153,-1.3381038764834403,4.468161312609911,6.545435204178094,-0.7996118068695068,1.267098069190979,-0.2636215388774872,5.272375754535198,-6.864008401885628,-4.610620987564325,100,walking
1783069106594664400,1.8928785,-1.315728378546238,4.638011683315038,6.210106101980805,-0.7732143402099609,1.0959726572036743,-0.4164700508117676,5.349808538305759,-6.810001501888037,-4.6015018615633245,100,walking
1783069106604626400,1.9028405,-1.3206634968608617,4.822314942264557,6.208875683403015,-0.7705354690551758,0.9691701531410216,-0.5045900344848633,5.428514995273948,-6.749796916294097,-4.598026586668193,100,walking
1783069106614589200,1.9128033,-1.454255390226841,4.60928710861206,6.519690522068738,-0.8901488780975342,0.8390122652053833,-0.4734863936901092,5.50314908823669,-6.685059947967529,-4.6038799888715145,100,walking
1783069106624551400,1.9227655,-1.5028636460512876,3.9388007536530494,6.737845197215676,-1.096367597579956,0.7094571590423584,-0.382048636674881,5.567320239374041,-6.615667847311497,-4.626907520976663,100,walking
1783069106634514400,1.9327285,-1.5618144321918486,3.983377562004328,6.737372319006919,-1.2587559223175049,0.5571157336235046,-0.2725076973438263,5.618191179433465,-6.542630083629488,-4.669081652100384,100,walking
1783069106644476400,1.9426905,-1.7144079631477591,4.140264406239986,6.38863311561644,-1.2942755222320557,0.3735057115554809,-0.1677394807338714,5.654366070142388,-6.469972259175777,-4.726309267710149,100,walking
1783069106654439200,1.9526533,-1.713899429103732,4.525218832349777,6.014455519586801,-1.1900267601013184,0.2409082353115081,-0.0743269622325897,5.676453398787975,-6.403919532075524,-4.789372749866545,100,walking
1783069106664401400,1.9626155,-1.7490134125828742,4.884572368735075,5.721967195728421,-0.9513993263244628,0.1338052302598953,0.0218072924762964,5.687175868332385,-6.350571972769498,-4.847335401752591,100,walking
1783069106674364400,1.9725785,-1.7251199112981557,4.908354810860753,4.955369075492024,-0.6602817177772522,0.0621202327311039,0.1097499728202819,5.68752307433486,-6.3153971990138285,-4.892671211777627,100,walking
1783069106684326400,1.9825405,-1.235880934849381,4.681310726815462,4.155800998067855,-0.4700084328651428,-0.0273129753768444,0.1569297462701797,5.68011776651442,-6.295900471383333,-4.926285019826889,100,walking
1783069106694289200,1.9925033,-0.4075210627049207,3.9173622443050142,3.62191623968482,-0.4813341200351715,-0.2112818658351898,0.1788602918386459,5.663841169974208,-6.28268384693563,-4.961771343749762,100,walking
1783069106704251400,2.0024655,0.4898422030389309,3.078427202132344,3.2380800039499995,-0.6626812219619751,-0.4519144296646118,0.1645902693271637,5.636770207697153,-6.264361423781514,-5.015475461408496,100,walking
1783069106714214400,2.0124285,1.067556750798225,2.617881236204505,2.612739197140932,-0.8903247117996216,-0.7344421744346619,0.0737232863903045,5.598948134303092,-6.232378139543533,-5.097023279282451,100,walking
1783069106724176400,2.0223905,1.4772843836367129,2.2293372611701487,1.4528724114358424,-1.096290946006775,-0.899405837059021,-0.1550105512142181,5.5583764699399465,-6.179321672138571,-5.204885688108205,100,walking
1783069106734139100,2.0323532,1.9298218151539563,2.3034341785162686,0.0548170473366975,-1.1269739866256714,-1.0717103481292725,-0.4823215305805206,5.526021429780125,-6.103031628662348,-5.327896566227079,100,walking
1783069106744101400,2.0423155,2.7867846814483404,2.518696639353037,-1.948192753624916,-0.9599062204360962,-1.182428956031799,-0.8363651037216187,5.504634942880273,-6.010190847879648,-5.45408022916317,100,walking
1783069106754064400,2.0522785,4.04182156766653,2.1148843680381773,-3.330160906276107,-0.7207830548286438,-1.2040627002716064,-1.071254849433899,5.496528793314099,-5.911190375423431,-5.5692363021284335,100,walking
1783069106764026400,2.0622405,5.605003781080246,0.6121206752300262,-4.329855834725499,-0.5587603449821472,-1.2210392951965332,-1.003453254699707,5.490325262498855,-5.817863272428513,-5.672669788596034,100,walking
1783069106773988600,2.0722027,7.26153063314557,-2.0050795929729937,-4.66143347543478,-0.6249145865440369,-1.215621829032898,-0.5439798831939697,5.467392130678892,-5.7416591536700725,-5.771598949381708,100,walking
1783069106783952000,2.0821661,9.304052360284327,-5.368367692825198,-3.7523511303246018,-1.0175249576568604,-1.3671447038650513,0.2395399510860443,5.402331337225437,-5.685960647323728,-5.88685439106822,100,walking
1783069106793913900,2.092128,11.265116285920142,-8.039291952431201,-3.291390738376975,-1.5142226219177246,-1.7085175514221191,1.1077876091003418,5.273730091753602,-5.646562702915072,-6.03941109714508,100,walking
1783069106803876600,2.1020907,12.631489979076385,-8.494715753039717,-4.256937313508987,-1.7159541845321655,-2.2414660453796387,1.6965962648391724,5.073032747364044,-5.619551946392655,-6.233406898069381,100,walking
1783069106813838800,2.1120529,13.10250473204851,-6.689473088234663,-6.571442336615919,-1.4514899253845217,-2.6458499431610107,1.9038130044937132,4.815400925092399,-5.607594966617226,-6.4449336795091625,100,walking
1783069106823801900,2.122016,12.256285378086568,-4.612033192449808,-8.898433916330337,-0.907720983028412,-2.6319143772125244,1.9044369459152224,4.534999637129903,-5.618989051812886,-6.6355947830528015,100,walking
1783069106833763800,2.1319779,10.38922075561881,-3.963857453498244,-10.550473978370428,-0.2863174378871918,-2.3498921394348145,1.9238920211791992,4.2604499978050585,-5.662628871574998,-6.7789072754442685,100,walking
1783069106843726600,2.1419407,8.386529519087075,-5.10991081790626,-12.291820801848171,0.2809667587280273,-1.8814611434936523,1.9609379768371584,4.0058579816207285,-5.74315494518578,-6.86583269470334,100,walking
1783069106853688800,2.1519029,7.235416533201932,-6.943823696878552,-12.868314867901802,0.5710567831993103,-1.497370958328247,1.929076075553894,3.777910811255872,-5.849741927248239,-6.904947145995497,100,walking
1783069106863651800,2.1618659,6.693908440333605,-8.91713452514708,-12.541408141613006,0.5152252316474915,-1.2372263669967651,1.7437922954559326,3.57542103049159,-5.955944878429174,-6.921955563941598,100,walking
1783069106873613800,2.1718279,6.585500672584772,-10.596911904418468,-11.17679269030094,0.3104415535926819,-1.112345814704895,1.3464510440826416,3.40176162289232,-6.038897886925936,-6.937586848315596,100,walking
1783069106883576600,2.1817907,6.360988737365603,-11.507398271107672,-9.593725042200088,0.1291759014129638,-1.031216025352478,0.7437866926193237,3.263851574066281,-6.089085520896315,-6.959934873723984,100,walking
1783069106893538800,2.1917529,6.048633098998666,-12.043713471508026,-7.830708823227882,0.002734355861321,-1.0637407302856443,-0.0305359307676553,3.1691929302066564,-6.105831488513946,-6.988950540328025,100,walking
1783069106903501800,2.2017159,6.041701838430762,-11.886229245901108,-5.939363745984434,-0.1550086736679077,-1.2160229682922363,-0.8875848650932312,3.1182147303804757,-6.0864428974330425,-7.028679908648133,100,walking
1783069106913463800,2.2116779,5.991400222691893,-10.704809969079491,-3.978182331448793,-0.367782324552536,-1.470021367073059,-1.6407674551010132,3.1005805817514656,-6.028863984167575,-7.085871868422627,100,walking
1783069106923426600,2.2216407,6.190754335778951,-9.17323694589436,-2.427599487367272,-0.4758952260017395,-1.5326706171035769,-2.237045288085937,3.1092230301514268,-5.937766832181811,-7.158633737772703,100,walking
1783069106933388800,2.2316029,6.228370657467842,-6.692794926133751,-0.5228478160619735,-0.33193239569664,-1.6377599239349363,-2.603221654891968,3.13909326775819,-5.831872508558631,-7.23227063639164,100,walking
1783069106943351800,2.2415659,5.6325686643540855,-4.2794080885142085,-0.4873626611828803,0.0529217906296253,-1.6785638332366943,-2.696498155593872,3.1719585955277085,-5.736883609831333,-7.293643096721172,100,walking
1783069106953313800,2.2515279,4.696708786955475,-2.141546749514341,-0.3999731315433978,0.609697699546814,-1.5631545782089231,-2.555290937423706,3.20340850354135,-5.676569134122133,-7.327014035925269,100,walking
1783069106963276500,2.2614906,3.398962055301666,-0.2033902367353439,0.0461702150225639,1.2985315322875977,-1.381028175354004,-2.2448935508728027,3.231779150240123,-5.668688610005378,-7.32065268419981,100,walking
1783069106973238800,2.2714529,2.48283592915982,1.437953074723482,0.4194599223017692,1.9996566772460935,-1.256139636039734,-1.8793402910232544,3.253671248574555,-5.722227307969331,-7.26912123440504,100,walking
1783069106983201800,2.2814159,2.204646472027897,2.9613714330255982,1.7968126901119947,2.631193161010742,-1.3184250593185425,-1.526089787483215,3.2596696122065185,-5.833964512401819,-7.177032733294367,100,walking
1783069106993163800,2.2913779,2.253121456861496,4.653976145166158,3.544883853408694,3.208892822265625,-1.557023286819458,-1.121903657913208,3.2372312781661745,-5.998320377343893,-7.050593634292483,100,walking
1783069107003126500,2.3013406,2.2074945549353955,5.6536973771005865,5.43680994541049,3.5937838554382324,-1.9339258670806885,-0.6536498665809631,3.169882373775541,-6.207356511011719,-6.89861969653964,100,walking
1783069107013088800,2.3113029,1.9638690461844204,6.504923161047697,7.6271344620972865,3.770545959472656,-2.272002458572388,-0.2132099121809005,3.053779375348985,-6.444768844336271,-6.73125412838757,100,walking
1783069107023051800,2.3212659,1.2188406604602933,7.727579872664808,9.494369180434942,3.8084311485290527,-2.5448131561279297,0.1561777144670486,2.8954452549144625,-6.695230044326186,-6.554439179366827,100,walking
1783069107033013800,2.3312279,-0.2205304643675684,8.706284620055555,10.55502038962841,3.814013719558716,-2.6815826892852783,0.3698711693286896,2.708105989269912,-6.94819182896018,-6.368609149241447,100,walking
1783069107042976500,2.3411906,-1.979560244052112,9.914468569684027,10.86688736769557,3.876051664352417,-2.7495036125183105,0.381829023361206,2.510923082742095,-7.1980971486330025,-6.168714937928319,100,walking
1783069107052939800,2.3511539,-3.612491700996458,11.279047780638932,10.167000730729102,4.04643440246582,-2.760348320007324,0.1740728467702865,2.3235133822098373,-7.443985633879899,-5.946322479081154,100,walking
1783069107062901800,2.3611159,-4.949667064458131,12.540444849538805,9.528158052790165,4.257232189178467,-2.6951069831848145,-0.1614143401384353,2.164611691020429,-7.685153520345687,-5.69414395377934,100,walking
1783069107072864800,2.3710789,-5.9596542543411255,13.400678700327871,9.008606940186024,4.473763465881348,-2.622795343399048,-0.536106526851654,2.044685042652488,-7.919303637003898,-5.410570173260569,100,walking
1783069107082826500,2.3810406,-6.50044221624136,13.766276099538802,8.385075228625535,4.702437877655029,-2.5320370197296143,-0.8449794054031372,1.9656749265626072,-8.145587258070707,-5.09469395955205,100,walking
1783069107092789800,2.3910039,-6.623461862188577,13.403665607184172,7.769042348387837,4.90221118927002,-2.400562286376953,-1.016983985900879,1.9218486443176863,-8.363122924536466,-4.74711094045937,100,walking
1783069107102751700,2.4009658,-6.688907271045446,11.992881109893322,7.340950791341066,5.046931266784668,-2.235783338546753,-1.055309772491455,1.9043945284307,-8.569322373473645,-4.371541305549442,100,walking
1783069107112714800,2.4109289,-6.717315619406103,10.617563062781096,7.115683653840423,5.142234325408936,-1.9960092306137085,-0.9799472093582152,1.9046710072845217,-8.761907138556241,-3.971348686036468,100,walking
1783069107122676700,2.4208908,-6.604087299633026,9.457646008193493,7.360887079432606,5.19196891784668,-1.6446491479873655,-0.8128091096878052,1.9156421908929944,-8.938552576228975,-3.5500665167436,100,walking
1783069107132639700,2.4308538,-6.736717069968581,8.046541192907094,7.661531821739673,5.157444477081299,-1.3357584476470947,-0.546657919883728,1.9279628894142808,-9.097444915068149,-3.112848234911263,100,walking
1783069107142601700,2.4408158,-7.153388238334656,6.57425797855854,7.256872578206658,5.052498817443848,-1.0537924766540527,-0.2240276485681533,1.9283422441206872,-9.237208775067328,-2.669432559743524,100,walking
1783069107152564700,2.4507788,-7.680390835988521,5.247326068952679,6.590906915542483,4.928704261779785,-0.6721991300582886,-0.0137742767110466,1.9170982349202037,-9.356823581007122,-2.223733595944196,100,walking
1783069107162526700,2.4607408,-8.362678103378414,4.4646851609319445,6.148437289053201,4.812894821166992,-0.3420808911323547,0.0274788867682218,1.9055163720674813,-9.454201420697569,-1.776924186684936,100,walking
1783069107172489700,2.4707038,-8.679508841332792,3.855594647178054,5.09933623239994,4.680752754211426,-0.0911719352006912,-0.0370004884898662,1.902271983318776,-9.52775765529573,-1.3317609371975063,100,walking
1783069107182451700,2.4806658,-8.397088322502373,3.0973031675159928,4.288407387527824,4.458548069000244,0.1188880875706672,-0.0994723886251449,1.909100806425512,-9.577210545250772,-0.8959735649511218,100,walking
1783069107192414700,2.4906288,-7.840912821856141,2.1563427521079777,3.695437987491488,4.14223575592041,0.3252260684967041,-0.1448633074760437,1.9222971187375484,-9.604406010690331,-0.4801746128423139,100,walking
1783069107202377000,2.5005911,-7.688195956781506,1.1732885773360728,3.066372607201337,3.716228723526001,0.512624204158783,-0.2020501643419265,1.9398671160891647,-9.612399932053684,-0.0951685935426037,100,walking
1783069107212339700,2.5105538,-7.863949998572468,0.4346943163126707,2.14151284724474,3.2352828979492188,0.7010974884033203,-0.3111737966537475,1.96373928232491,-9.604785949918629,0.2493969682918861,100,walking
1783069107222301700,2.5205158,-7.848091335183382,0.4646300203710794,1.0281798491775989,2.771895408630371,0.9278947114944458,-0.4526593089103699,1.996811823104322,-9.585341244736313,0.5516939713180065,100,walking
1783069107232264700,2.5304788,-7.617347812098264,0.7457604993909597,0.0980909563958644,2.4640791416168213,1.1554031372070312,-0.6379491090774536,2.041401783198118,-9.556572246369718,0.8215814640507102,100,walking
1783069107242227000,2.5404411,-6.953449018836021,0.9978367333620786,-1.004118443980068,2.2196743488311768,1.2388505935668943,-0.8422649502754211,2.100252616095543,-9.51925052371323,1.0692106554850935,100,walking
1783069107252189700,2.5504038,-5.702172361934185,0.8729349269300699,-2.23011452915296,1.8973349332809448,1.2087491750717163,-1.044352650642395,2.1750644037127493,-9.474853748103977,1.2909893663480878,100,walking
1783069107262151700,2.5603658,-4.533333749744296,0.5248375285744666,-2.6140418041720985,1.4762015342712402,1.105457425117493,-1.168556571006775,2.2637794828675686,-9.426926460281011,1.4760473891876638,100,walking
1783069107272114700,2.5703288,-3.479226263105869,-0.1772159310370683,-2.775830156713724,0.9800294637680054,0.9509857892990112,-1.1885040998458862,2.358739886152744,-9.38073695603609,1.615091556610167,100,walking
1783069107282077000,2.5802911,-2.629376443687081,-0.4619160852372646,-3.2717490493178367,0.493297129869461,0.7692727446556091,-1.1299004554748535,2.453103638719022,-9.340694868505,1.704145512330532,100,walking
1783069107292039700,2.5902538,-2.1211054345101115,-0.3466547983318567,-3.8004537747144695,0.0878485515713691,0.6392387747764587,-1.0066946744918823,2.5405396378487346,-9.3091604970783,1.748024255415052,100,walking
1783069107302002700,2.6002168,-1.8611171122401955,0.1590712025374174,-4.210834903025627,-0.2574712932109833,0.5731862187385559,-0.8569789528846741,2.6161884608119723,-9.28681539427936,1.755281825327873,100,walking
1783069107311964700,2.6101788,-1.9516238971173765,0.8755734587401152,-4.511080416882038,-0.5841665267944336,0.6585083603858948,-0.8019902110099792,2.6814061983928084,-9.272487009197471,1.7324601910583677,100,walking
1783069107321927700,2.6201418,-1.8336410762935875,1.8682038556307556,-4.481040667927265,-0.9178329110145568,0.8374823927879333,-0.8934322595596313,2.7461308917596936,-9.262546045419572,1.683566104029864,100,walking
1783069107331889700,2.6301038,-1.158295298604667,2.4448352843284606,-4.555467840141057,-1.2173480987548828,0.8330525755882263,-1.0494917631149292,2.8215175566554067,-9.253197786837816,1.6086540709085762,100,walking
1783069107341852700,2.6400668,0.2183347078889608,2.036109522008896,-5.015687642854452,-1.5784293413162231,0.6906405687332153,-1.242717742919922,2.9149273694977165,-9.242059137707948,1.502645765516907,100,walking
1783069107351814700,2.6500288,1.6986781868353484,1.5765554897278546,-5.144723188090324,-2.0394558906555176,0.3793840110301971,-1.3956907987594604,3.0289722663506864,-9.228573633190988,1.3524571037456392,100,walking
1783069107361777700,2.6599918,2.662133927167952,0.7030868943125009,-5.287136101293563,-2.4460809230804443,0.032804749906063,-1.4684622287750244,3.158469291618466,-9.212377700671553,1.1517517952453344,100,walking
1783069107371739600,2.6699537,3.182553054778278,-0.1709393349856138,-5.722489173775911,-2.633198499679565,-0.2437762767076492,-1.424116134643555,3.292714680457115,-9.192033416301012,0.9137356508087366,100,walking
1783069107381702700,2.6799168,3.4834348207116124,-1.1148510014146569,-6.267565188258886,-2.607562780380249,-0.4792079627513885,-1.2862529754638672,3.4199463911414143,-9.167197665730118,0.6609434505879879,100,walking
1783069107391664600,2.6898787,3.7759666914507743,-1.94784963927567,-7.001987716555595,-2.4655187129974365,-0.6857941150665283,-1.0423074960708618,3.5296401070475576,-9.140295630279184,0.4086556196928024,100,walking
1783069107401628000,2.6998421,3.9479724866241215,-2.891889900520444,-7.393907305502891,-2.1666290760040283,-0.6936839818954468,-0.6972035765647888,3.611569325454533,-9.11577902866006,0.1717975592501461,100,walking
1783069107411589600,2.7098037,3.9011666040465234,-4.549487012165785,-7.027505019649863,-1.691067814826965,-0.5997568964958191,-0.1411222666501999,3.651342240655422,-9.101501496982571,-0.0271596657571033,100,walking
1783069107421552600,2.7197667,4.240238984425366,-7.891448246350884,-7.25629039440453,-1.189886212348938,-0.4926456212997436,0.6251003742218018,3.6298008554548025,-9.108430419462918,-0.1772568293030373,100,walking
1783069107431514600,2.7297287,4.563569313532113,-11.741315748053788,-6.470147615742683,-0.8322890400886536,-0.234082892537117,1.566818356513977,3.530029398626089,-9.144951347130537,-0.2813511908321641,100,walking
1783069107441478000,2.7396921,4.297138390994072,-15.045571228700876,-3.965475994610786,-0.5936674475669861,0.1125435084104538,2.5171356201171875,3.3423101937532422,-9.212928904813529,-0.3482770292388275,100,walking
1783069107451439600,2.7496537,3.930634398332238,-17.644111220097543,-0.8875590800881386,-0.4204499721527099,0.4661112129688263,3.1634249687194824,3.078989219929278,-9.302776933521033,-0.3854079420309513,100,walking
1783069107461402600,2.7596167,3.7055142680868505,-18.90924104578495,2.3233172751158477,-0.2970777153968811,0.7045274972915649,3.419475078582764,2.7725965816199776,-9.398003148135542,-0.4007734516082331,100,walking
1783069107471364900,2.769579,3.3151629513695835,-19.61152539154291,4.637831066051125,-0.385191410779953,0.964563012123108,3.2982661724090576,2.45740659660995,-9.484906355562806,-0.4099699536943808,100,walking
1783069107481327900,2.779542,2.360535829658806,-19.857644178414343,7.43760791554153,-0.6908664107322693,1.255319118499756,2.729432821273804,2.173483272001147,-9.55287865254879,-0.4345680595844984,100,walking
1783069107491289600,2.7895037,1.2971692240267991,-19.05396515854001,9.339535177075865,-1.1338343620300293,1.5598974227905271,1.7371747493743896,1.9646315549895168,-9.595202129015323,-0.4926606579931452,100,walking
1783069107501252600,2.7994667,0.3218532422915101,-17.153138551723956,10.382495246756076,-1.5501139163970947,1.7534929513931274,0.4815137684345245,1.8667466425597667,-9.609249359068274,-0.5899118756292387,100,walking
1783069107511215600,2.8094297,-0.706813952011615,-14.691375513470172,9.055486764782666,-1.7537130117416382,1.7873953580856323,-0.7699899077415466,1.8925421780735252,-9.595555764758586,-0.7169311491392553,100,walking
1783069107521177900,2.819392,-1.3659325252600014,-13.384126209455728,6.138841193190217,-1.6921926736831665,1.8808506727218628,-1.84440016746521,2.033465583371371,-9.55606605041325,-0.8467576986223458,100,walking
1783069107531140900,2.829355,-1.761259730693698,-12.842853094387054,4.926248194947839,-1.567389726638794,2.024416923522949,-2.508843183517456,2.260151355498284,-9.494300791373847,-0.9593551000807434,100,walking
1783069107541102600,2.8393167,-1.6677429503455756,-12.895125717937946,4.625274366816878,-1.5565961599349976,2.151172637939453,-2.6967055797576904,2.5289073599830267,-9.415991224768756,-1.0555194723282009,100,walking
1783069107551065600,2.8492797,-1.0209089813917875,-13.35245564442873,4.743282906603813,-1.7300156354904177,2.1773297786712646,-2.462007761001587,2.7957605995863672,-9.329013783061503,-1.1504839672666043,100,walking
1783069107561027800,2.8592419,-0.3466632738992571,-13.072979362356662,4.563424936625361,-1.941205620765686,2.162714719772339,-1.9420405626297,3.026522827371955,-9.242775177022814,-1.2576308482341467,100,walking
1783069107570990800,2.8692049,-0.1293757369756698,-11.74812075189352,3.580733749946952,-1.9851963520050049,2.167914390563965,-1.3283922672271729,3.204727769446373,-9.16612857519388,-1.3719327885881063,100,walking
1783069107580952600,2.8791667,-0.2217962465196847,-9.57223626396954,2.0931571048766373,-1.7472034692764282,2.176884174346924,-0.7988485097885132,3.3315652201160786,-9.105080524513124,-1.4726101082153618,100,walking
1783069107590915600,2.8891297,-0.3903764511585235,-6.76722969713211,0.6955407167166471,-1.2498905658721924,2.073447227478028,-0.4357091784477234,3.4185926384449004,-9.062035163512826,-1.5372522378653286,100,walking
1783069107600877800,2.8990919,-0.59473173353374,-4.130534454864264,-0.309812968146801,-0.7713322043418884,1.9573397636413572,-0.1910392493009567,3.4773505323618648,-9.036078884479403,-1.558113093455881,100,walking
1783069107610840800,2.9090549,-0.7218605683654546,-2.703825827732682,-0.3093769148170948,-0.5940608382225037,1.857133388519287,0.0141308568418025,3.51484644254148,-9.02282426610887,-1.5507678452596068,100,walking
1783069107620802600,2.9190167,-0.725097650590539,-2.0160411319702862,0.1035559438034892,-0.7088958024978638,1.7422443628311155,0.1651957333087921,3.5340941638469694,-9.016288726860283,-1.5450146885603666,100,walking
1783069107630765600,2.9289797,-0.783197957381606,-0.873173411861062,0.3466508528091013,-0.977778434753418,1.595603346824646,0.2469761371612548,3.540719427205622,-9.010838644760849,-1.561558119343221,100,walking
1783069107640727800,2.9389419,-1.0826271864190695,1.2772674227267502,-0.4099345535874366,-1.2162290811538696,1.506334900856018,0.209813043475151,3.5438662007987496,-9.00171016640961,-1.6064320109449326,100,walking
1783069107650690800,2.9489049,-1.4885592263668774,4.1114942388296125,-1.2836715906806289,-1.1936914920806885,1.485378980636597,0.0868752375245094,3.5546056214779616,-8.987137451177835,-1.66329167002514,100,walking
1783069107660652500,2.9588666,-1.8565844372466205,7.049578319770097,-1.9604643523074683,-0.8972228765487671,1.538110375404358,-0.0427767597138881,3.577866085556149,-8.970178133070469,-1.704459838976711,100,walking
1783069107670615600,2.9688297,-2.3293705838054417,9.082360743182898,-2.283914654532075,-0.4832968711853027,1.6499407291412354,-0.1667336076498031,3.6144586171552535,-8.954570229572058,-1.7093145855315028,100,walking
1783069107680577800,2.9787919,-2.759395447002351,10.523264484405518,-2.3393613780744373,-0.1390353590250015,1.7651267051696775,-0.1656662076711654,3.6591666506707674,-8.943092557746171,-1.6739190086320042,100,walking
1783069107690540800,2.9887549,-2.960475360968709,10.39610291634798,-1.5017536389827728,-0.1126331910490989,1.8899322748184204,-0.0415583476424217,3.698637660315633,-8.937434970375895,-1.6163946020327506,100,walking
1783069107700502500,2.9987166,-2.8117668547526,9.449861345666646,0.3083294515907764,-0.369526743888855,2.054980516433716,0.1779630929231643,3.72425696247965,-8.93615545195937,-1.5637888010047376,100,walking
1783069107710465800,3.0086799,-2.51286106506735,8.011422533252835,1.445483324097842,-0.646063506603241,2.0998308658599854,0.4414816796779632,3.728666887876391,-8.9397753960222,-1.5322735726699233,100,walking
1783069107720428800,3.0186429,-2.0209011392220853,7.267465868413448,1.3657874177008866,-0.8143265843391418,2.0932042598724365,0.6621527671813965,3.710609253138304,-8.949393119195102,-1.5199140034429728,100,walking
1783069107730390800,3.0286049,-1.9196683776691557,7.310704706159234,2.059886118915677,-0.9765132069587708,2.0660605430603027,0.7138124108314514,3.679256668019295,-8.961806026044487,-1.5229865427561105,100,walking
1783069107740353800,3.0385679,-2.3541721398457884,8.23402074380517,2.4062926415748893,-1.069084644317627,2.097841262817383,0.6026406288146973,3.6507816841632126,-8.970686667114496,-1.5391425816565751,100,walking
1783069107750315800,3.0485299,-3.097560357147455,9.103700468331574,2.4607401249468324,-1.0503911972045898,2.2220680713653564,0.3857983648777008,3.639098552893102,-8.97246770531237,-1.5563305939532817,100,walking
1783069107760278800,3.0584929,-3.960187532813847,9.357642496174574,2.3722787282921374,-0.9779215455055236,2.332820415496826,0.0859157890081405,3.6534298605844375,-8.965292114594579,-1.5640861765161156,100,walking
1783069107770240800,3.0684549,-4.716506251098215,9.07519216672778,2.280945283332467,-0.919033706188202,2.4271602630615234,-0.1700965464115142,3.694631055022776,-8.948898029154538,-1.5611885553784668,100,walking
1783069107780204300,3.0784184,-5.035392460277676,7.760571457162499,2.6920009499043225,-0.9063397645950316,2.529317855834961,-0.3247484564781189,3.755392397716641,-8.925499617910384,-1.5501165417440237,100,walking
1783069107790166300,3.0883804,-5.120547362732887,6.399279012793302,2.94752937015593,-0.8872894644737244,2.582725763320923,-0.4117436707019806,3.827678173987567,-8.897627860644459,-1.5334537223652005,100,walking
1783069107800129500,3.0983436,-4.952480952835082,5.410000848940014,2.8218296913445,-0.8026493787765503,2.5691940784454346,-0.4357770979404449,3.904717866787314,-8.868274924910068,-1.5090588474296032,100,walking
1783069107810091300,3.1083054,-4.7436152072981,4.565104268014431,2.762568524080515,-0.7359468936920166,2.589006900787353,-0.3969917893409729,3.980014223051071,-8.840399660512805,-1.4755354941427707,100,walking
1783069107820054300,3.1182684,-4.742709782890975,3.964998440226912,2.9156413629859683,-0.6802338361740112,2.617424726486206,-0.3028431832790375,4.048690576653183,-8.816099331992865,-1.4334806054845453,100,walking
1783069107830016300,3.1282304,-4.632941248182952,3.684693306115269,3.066288436049222,-0.6953628063201904,2.669150829315185,-0.1771711260080337,4.106964778706431,-8.796762178838252,-1.3857082159623504,100,walking
1783069107839979500,3.1381936,-4.180482142598927,3.1695547492563723,3.352424760532379,-0.8111458420753479,2.683258056640625,-0.0369849801063537,4.152798893642426,-8.78216140655577,-1.340996236924082,100,walking
1783069107849941200,3.1481553,-3.635723815762996,2.7534078970253466,3.5619670901566742,-0.9448341727256776,2.695448398590088,0.1096753031015396,4.185193096768856,-8.77198195784688,-1.306479488685727,100,walking
1783069107859904300,3.1581184,-3.1210473234578964,2.783414912754297,3.7711587066471575,-0.9754831194877625,2.6789820194244385,0.3100009262561798,4.201880027675628,-8.768171459648013,-1.27819608187899,100,walking
1783069107869866500,3.1680806,-2.672038650588691,2.720541400212049,3.382466847574711,-0.9187265634536744,2.630794048309326,0.53985595703125,4.198192279073596,-8.773981022709608,-1.250131140128523,100,walking
1783069107879829500,3.1780436,-2.103262903827429,3.127512427818775,2.9842437745690344,-0.8284363150596619,2.5151774883270264,0.80621337890625,4.171404225391149,-8.791146092522144,-1.2188192523460837,100,walking
1783069107889791200,3.1880053,-1.377998664498329,4.108769782301783,2.567188575321436,-0.7906031012535095,2.3045597076416016,1.1166390180587769,4.11606753809452,-8.821156615382433,-1.1897745057780296,100,walking
1783069107899754200,3.1979683,-0.4901268651992082,4.7309056555897,2.3890075986444947,-0.8021194338798523,2.035545825958252,1.4751393795013428,4.027560110341012,-8.864345184245705,-1.1715559083245697,100,walking
1783069107909717200,3.2079313,0.5899737253516912,5.055467280057072,2.110213453617692,-0.7616510987281799,1.6800307035446167,1.7835391759872437,3.9045416334375735,-8.91970817502737,-1.167795825138688,100,walking
1783069107919679500,3.2178936,1.6410156869396566,5.537544694313406,1.6501900502592324,-0.663608968257904,1.2943086624145508,2.001974105834961,3.752522102977335,-8.983847761982679,-1.1744921079069377,100,walking
1783069107929642200,3.2278563,2.404628361624479,6.084641985490918,1.6390648451328276,-0.6628182530403137,0.8450571298599243,2.123401403427124,3.579229482863844,-9.051806030443313,-1.1934439150057732,100,walking
1783069107939604200,3.2378183,2.5984990748643875,5.95289308964312,1.908272977299243,-0.8927167057991028,0.3566145002841949,2.1664390563964844,3.39209216953218,-9.117128689703344,-1.2417872362837197,100,walking
1783069107949567200,3.2477813,2.767079571764171,5.755667805278301,2.3398833561219274,-1.1499876976013184,-0.0870916545391082,2.2040414810180664,3.1946316151067613,-9.175634070163964,-1.3313256145201622,100,walking
1783069107959529500,3.2577436,2.7620000765427943,5.675232917082309,2.640588742575049,-1.228581786155701,-0.3777082860469818,2.289867639541626,2.9857296292126176,-9.228077958628536,-1.4485755910247564,100,walking
1783069107969492200,3.2677063,2.6272043603450057,5.11390193336904,2.651806886681914,-1.2484889030456543,-0.6239445805549622,2.460132598876953,2.7595997374027967,-9.277268982777,-1.5771099087402225,100,walking
1783069107979454200,3.2776683,2.5416724412709475,4.340208301913738,2.375354920867085,-1.3399707078933716,-0.7346982359886169,2.599799633026123,2.5132351590767503,-9.322841231906413,-1.7142561335869133,100,walking
1783069107989417200,3.2876313,2.2701386426359416,3.934216348472237,2.816365872980654,-1.5533100366592407,-0.8484232425689697,2.578697681427002,2.257147497507185,-9.3590295666188,-1.8666162941783664,100,walking
1783069107999379500,3.2975936,1.657163250272721,4.142649255549907,2.524952777138352,-1.8143492937088013,-0.9928829669952391,2.353266954421997,2.0079104324847457,-9.378767701789736,-2.043867588789761,100,walking
1783069108009342200,3.3075563,1.0277207072332502,4.070400011897087,1.1103633346065878,-1.9097468852996824,-1.0169169902801514,2.0427567958831787,1.780977261468023,-9.380139574664833,-2.238630574694276,100,walking
1783069108019304200,3.3175183,0.0170734460063278,2.9593823050349948,-0.3369860756240785,-1.7672277688980105,-0.7838081121444702,1.7600300312042236,1.5822531168475746,-9.368958839958903,-2.42682031968832,100,walking
1783069108029267200,3.3274813,-0.8030863146781921,1.14143973313272,-0.8815677307188511,-1.5568945407867432,-0.4193987548351288,1.433883786201477,1.4179472285270691,-9.35130686341226,-2.5909225021302698,100,walking
1783069108039229400,3.3374435,-0.6329479208119213,-0.461568294712901,-1.2330202847212552,-1.329302430152893,-0.1848421990871429,1.0454691648483276,1.294346129430085,-9.329818669703602,-2.729383462837338,100,walking
1783069108049192200,3.3474063,0.7110519549075514,-2.382241173249483,-2.460213470724225,-1.0803898572921753,-0.162458598613739,0.6174681186676025,1.212689005962759,-9.306849882048368,-2.842942914260924,100,walking
1783069108059154200,3.3573683,2.155196066290885,-4.848461775434017,-4.341050013434887,-0.8822066187858582,-0.2049125880002975,0.2543480098247528,1.1675069251947103,-9.283763020971415,-2.935826657402515,100,walking
1783069108069117200,3.3673313,2.749928238216042,-7.194661328965425,-4.572159447222948,-0.5892203450202942,-0.1235328838229179,0.0972431153059005,1.1476823538493364,-9.263679433363675,-3.006236995190382,100,walking
1783069108079080400,3.3772945,2.9883640693694358,-9.663625092378258,-3.5727345678865907,-0.268338531255722,-0.01509216055274,0.1127578914165496,1.1363966974642128,-9.251914761289951,-3.046484834426641,100,walking
1783069108089042400,3.3872565,3.820015384274721,-12.501597524750231,-3.328609292919934,0.0183179900050163,0.1055634915828704,0.2199001163244247,1.1234124204676597,-9.249874195373058,-3.057474138213694,100,walking
1783069108099005200,3.3972193,4.279152652448415,-14.544925892096757,-2.328742515034973,0.3017747402191162,0.2237969189882278,0.4527575671672821,1.0977751442555337,-9.25852511934042,-3.040553690811992,100,walking
1783069108108967400,3.4071815,4.153478108078241,-16.71852665299773,-1.1621195330679417,0.4211370944976806,0.3047005236148834,0.697721004486084,1.0524141267240046,-9.276068959337472,-3.00289323772043,100,walking
1783069108118930400,3.4171445,3.803623929183185,-17.665154008126258,-0.2167816332280635,0.3418715596199035,0.3052829802036285,0.8060232400894165,0.990914459818229,-9.295501974081992,-2.9634660672172903,100,walking
1783069108128892400,3.4271065,3.1437980844482776,-16.675717438840866,0.4246168666735291,0.1801937073469162,0.2300204485654831,0.7065378427505493,0.9276916954468936,-9.310498467683791,-2.936733543114364,100,walking
1783069108138855200,3.4370693,2.5524045554265378,-14.771017789983748,0.2055278332859277,0.1900830864906311,0.1367402970790863,0.4510218799114227,0.878486350512132,-9.320636999860405,-2.9196546902805567,100,walking
1783069108148817400,3.4470315,1.978638014640659,-12.890861046230793,-0.9815613058656454,0.4943990409374237,0.1571587473154068,0.1534913927316665,0.8543010266739874,-9.332717898276448,-2.8880668351009486,100,walking
1783069108158780400,3.4569945,1.247862464544177,-11.38606555533409,-2.055895295713842,0.9644749760627748,0.2651030719280243,-0.1165627241134643,0.8587356481205671,-9.353405881518125,-2.8189982673108576,100,walking
1783069108168742400,3.4669565,0.6420759607717395,-10.2208316896379,-2.6661449163749813,1.4558935165405271,0.4436003863811493,-0.3135250210762024,0.8887166526254267,-9.384836208048462,-2.7028517220035195,100,walking
1783069108178705200,3.4769193,0.3090294165536761,-9.472201187768578,-2.068930133853853,1.8702385425567627,0.6018560528755188,-0.5300559997558594,0.9414919650014488,-9.424633380907771,-2.541703128670156,100,walking
1783069108188667400,3.4868815,0.5558242760557681,-8.280873095872998,-1.1056111716434358,2.2641489505767822,0.6357424855232239,-0.8168757557868958,1.0189617197815328,-9.46853974265158,-2.3406918960258363,100,walking
1783069108198630400,3.4968445,1.4978706600695848,-6.777405054187774,-0.3640829029947519,2.7344954013824463,0.5543903708457947,-1.0721266269683838,1.1221340710949153,-9.513640867137909,-2.098054083137959,100,walking
1783069108208592400,3.5068065,2.773725877910852,-5.609478296145796,0.3556492750398815,3.1633589267730717,0.3950470983982086,-1.1967971324920654,1.2400037138678133,-9.557789805465935,-1.8114733758881687,100,walking
1783069108218555100,3.5167692,4.076854887124896,-4.977773215001821,1.1242119733475149,3.416271686553955,0.2753071188926697,-1.167531132698059,1.359030783047527,-9.59678092263937,-1.491721782051027,100,walking
1783069108228518100,3.5267322,4.572726725716889,-4.376110805422067,2.3500024529457093,3.4672060012817383,0.1107956767082214,-0.9979240894317628,1.4661977569550275,-9.62697556989491,-1.1584382872719317,100,walking
1783069108238480400,3.5366945,4.152847993481159,-3.894313377150893,2.1576023967802525,3.4280452728271484,-0.0589355640113353,-0.7344974875450134,1.5498406474120914,-9.648038816189766,-0.8268752596098929,100,walking
1783069108248443400,3.5466575,3.3244337608009573,-3.034817777508497,1.6282944447934626,3.3478031158447266,-0.1480784118175506,-0.4966058135032654,1.6079207881979642,-9.660884853759407,-0.5022718052947893,100,walking
1783069108258405000,3.5566191,2.169013871502131,-1.6767957331120966,1.2397037080079316,3.2704615592956543,-0.237435445189476,-0.3602860569953918,1.6476427038639785,-9.665435356670615,-0.1871529127595946,100,walking
1783069108268368100,3.5665822,1.0122530889883636,0.2028320183306932,0.0321510420203208,3.283988237380981,-0.3145230114459991,-0.3509078621864319,1.6812234864264726,-9.66067676396668,0.1233225652833934,100,walking
1783069108278330400,3.5765445,0.2718773513756692,2.1352689844191075,-1.2804361158907414,3.29017186164856,-0.3958452939987182,-0.3915905654430389,1.7177045204751191,-9.645281041914224,0.4340858290255069,100,walking
1783069108288293400,3.5865075,-0.0918234204337,3.140789842543006,-1.9067419683396816,3.115373134613037,-0.5245179533958435,-0.4381940960884094,1.760282848485559,-9.619349897322058,0.7347802556931972,100,walking
1783069108298255000,3.5964691,-0.3512522091247141,3.7726375470280646,-2.0782560344733296,2.7274820804595947,-0.6919814944267273,-0.4216340482234955,1.8072259475767607,-9.58620692165494,1.0044559323061255,100,walking
1783069108308218400,3.6064325,-0.7777551818057894,4.016985232573747,-1.9414849265493448,2.2785792350769043,-0.8549251556396484,-0.3256731629371643,1.8518536093324425,-9.55148047618866,1.2289106574453412,100,walking
1783069108318180400,3.6163945,-1.6212543170236051,4.299564156836271,-2.412207418576628,1.887328147888184,-0.8856969475746155,-0.2280275523662567,1.8892551192268727,-9.519072244536876,1.4100843861974774,100,walking
1783069108328143400,3.6263575,-2.739930868075788,4.870343352374435,-3.1786604312539097,1.5986965894699097,-0.7615336775779724,-0.2359283119440078,1.9224610771276056,-9.489208436670898,1.5586838790811597,100,walking
1783069108338105000,3.6363191,-3.681601477579772,6.041732818090916,-3.7054222058892248,1.4026511907577517,-0.6083654165267944,-0.404422253370285,1.962714469321817,-9.459006190630792,1.6868107850395142,100,walking
1783069108348068400,3.6462825,-4.197816431498527,7.258165540626645,-4.608129755270481,1.263947367668152,-0.4718157052993774,-0.6797669529914856,2.022683784855157,-9.425217318275571,1.801227437814325,100,walking
1783069108358030300,3.6562444,-4.503080650299787,7.968002493721246,-5.74446135160923,1.2000527381896973,-0.3245359659194946,-0.9551295638084412,2.106335443140566,-9.385670320785046,1.9086505784399803,100,walking
1783069108367993300,3.6662074,-4.85468459547162,7.871840459561348,-6.22218173969984,1.1569321155548096,-0.1662474870681762,-1.1520367860794067,2.210138785833865,-9.33978359887898,2.0134750808745623,100,walking
1783069108377955000,3.6761691,-5.085429287600517,7.291379243442416,-6.349217051029205,1.0321928262710571,0.0116671212017536,-1.2051784992218018,2.321772091500461,-9.290389161112904,2.1138748987346885,100,walking
1783069108387918300,3.6861324,-5.031296715396643,6.520977054747939,-6.179283678215742,0.782932698726654,0.1184375137090683,-1.114229679107666,2.428201398783177,-9.243036458307504,2.2001205190360547,100,walking
1783069108397881300,3.6960954,-4.749262273274362,5.987824702292681,-6.215043558382988,0.4609242975711822,0.1616497039794922,-0.8781554102897644,2.517118137989938,-9.2044346327126,2.2611690081082285,100,walking
1783069108407843300,3.7060574,-4.546199953319132,5.328907789096236,-6.044282502573728,0.146390289068222,0.1698225885629654,-0.6054816246032715,2.58115894074589,-9.178784058627484,2.293017706181109,100,walking
1783069108417806300,3.7160204,-4.5792494054839015,5.185545027822256,-6.002566344350576,-0.1053617894649505,0.1463646590709686,-0.4133995175361633,2.623486216604709,-9.16545754406452,2.298288047799468,100,walking
1783069108427768300,3.7259824,-4.809763795988261,5.506251145905256,-6.127652859699726,-0.2238927036523819,0.1932165622711181,-0.3439237475395202,2.653784908756613,-9.159653241699932,2.2866056471817195,100,walking
1783069108437731300,3.7359454,-5.257943324556947,5.834529745069146,-6.116489660650491,-0.1953508108854293,0.348150223493576,-0.3705457746982574,2.6799861024618146,-9.155137225580216,2.2740955635681748,100,walking
1783069108447693300,3.7459074,-5.7005836314380165,5.976679038900136,-5.885055232691765,-0.1394859850406646,0.4626133143901825,-0.4180103838443756,2.706634455412626,-9.14824805058837,2.270259054145217,100,walking
1783069108457656300,3.7558704,-5.716534064763784,5.63297198445797,-5.802576855969429,-0.1995557099580764,0.5340867042541504,-0.4454308450222015,2.735154155193269,-9.140026750209929,2.269184410651028,100,walking
1783069108467618300,3.7658324,-5.424236879563331,5.007538238668442,-5.1563306237757205,-0.3804582953453064,0.5717452764511108,-0.4041922688484192,2.761734995865821,-9.134691818922756,2.258449227755517,100,walking
1783069108477581300,3.7757954,-5.032303846612573,4.478339592275023,-4.3396728798627855,-0.5779955983161926,0.5829928517341614,-0.2978266775608063,2.7811557356506587,-9.135660956215858,2.230530562607944,100,walking
1783069108487543300,3.7857574,-4.758674244742095,4.355182583683729,-3.7152421736359593,-0.7393390536308289,0.6213504672050476,-0.1580573916435241,2.788695191244781,-9.143885179203748,2.18699376482889,100,walking
1783069108497506300,3.7957204,-4.687493214842677,4.687240701386332,-3.3667209969103333,-0.8471373915672302,0.6802284121513367,-0.0100114662200212,2.782456881377101,-9.158711576935648,2.1322106197617945,100,walking
1783069108507468300,3.8056824,-4.786214578096568,5.193938762158155,-3.3488802197933194,-0.8762421011924744,0.794129490852356,0.1574431657791137,2.7605700437396763,-9.178787565758824,2.073519069079309,100,walking
1783069108517431300,3.8156454,-4.756052956327796,5.307115059483051,-3.094143242180347,-0.8761904239654541,0.9122797846794128,0.3342352509498596,2.720682269987464,-9.203378986179828,2.016453073772043,100,walking
1783069108527393300,3.8256074,-4.623298098307847,5.4437108108401295,-2.9718016416251656,-0.8258903622627258,1.0391077995300293,0.510526180267334,2.6625965762436388,-9.231637112414836,1.9641424562983212,100,walking
1783069108537356300,3.8355704,-4.194542816655337,5.622483908191323,-2.923067421333492,-0.7217309474945068,1.188779354095459,0.6773215532302856,2.586088506102562,-9.26227015108764,1.9216928692340849,100,walking
1783069108547319300,3.8455334,-3.4383658449292183,5.818862804859877,-3.0593992610573766,-0.6184551119804382,1.358806014060974,0.7844849824905396,2.494002343079448,-9.293597017243505,1.8919269687846303,100,walking
1783069108557281300,3.8554954,-2.275285796266049,5.664886879634857,-3.225015355193615,-0.5439302921295166,1.4190670251846311,0.8716720938682556,2.390955663972348,-9.324573170265555,1.872441493200511,100,walking
1783069108567244300,3.8654584,-0.8721598509043454,5.057848622235656,-3.17562091742754,-0.5392900109291077,1.4508541822433472,1.0000783205032349,2.277855500623584,-9.356188205713034,1.8556676146626472,100,walking
1783069108577206300,3.8754204,0.4540668330416083,3.798334298342466,-2.3988966861046848,-0.5858508348464966,1.507948875427246,1.2158958911895752,2.147682037398964,-9.390739879134296,1.8362597343593836,100,walking
1783069108587169500,3.8853836,1.125307221238315,2.48334884711802,-0.7487303089819848,-0.7597453594207764,1.49991774559021,1.4924370050430298,1.99358935392648,-9.430575045916438,1.8056207043372092,100,walking
1783069108597131300,3.8953454,1.021866720508039,1.3527543331265448,-0.0191056824862957,-1.104981780052185,1.4371832609176636,1.7980555295944214,1.8122696408323944,-9.478225854885578,1.746222758951038,100,walking
1783069108607094300,3.9053084,0.4300156569771468,0.0695136812090873,-0.104888799842447,-1.5154402256011963,1.4757062196731567,1.9803361892700195,1.6077493771538138,-9.532746549624203,1.6469043065868316,100,walking
1783069108617056300,3.9152704,-0.506370582383126,-0.0265168355256319,0.4118940170921385,-1.8195098638534544,1.5353858470916748,1.973284125328064,1.3944701990887522,-9.588897475913166,1.5096027450479566,100,walking
1783069108627019500,3.9252336,-1.34049164840281,0.86429978505373,0.5552314977943897,-1.9098485708236692,1.5934666395187378,1.7150577306747437,1.1939964343219995,-9.639647419941424,1.3498051279321313,100,walking
1783069108636981200,3.9351953,-1.5125354374989866,1.8560118980556728,0.3166159261599183,-1.821567177772522,1.5648010969161987,1.2406456470489502,1.030552861919254,-9.679815764200686,1.1872429414737968,100,walking
1783069108646944300,3.9451584,-1.5624004153862594,2.4289660995453595,-0.6788461870253085,-1.7166218757629397,1.4239299297332764,0.7032051086425781,0.920155966179818,-9.708834937936068,1.0306437550731002,100,walking
1783069108656906200,3.9551203,-1.4202721643432974,1.5518781445890664,-1.8718658852696417,-1.6126326322555542,1.3672703504562378,0.2115112543106079,0.8633212223451584,-9.728676533481478,0.8820132825292646,100,walking
1783069108666869500,3.9650836,-1.1213522000022231,0.051309915998578,-2.126017171949148,-1.5437273979187012,1.3294343948364258,-0.1691793501377105,0.8511066876120865,-9.74154186027348,0.7405220872808247,100,walking
1783069108676831200,3.9750453,0.0112245007824152,-1.4723340677529573,-2.4937714569330214,-1.4819918870925903,1.1813236474990845,-0.4084989726543426,0.8714875776659696,-9.749139475795626,0.6042978726498782,100,walking
1783069108686794200,3.9850083,1.7377409079402684,-2.7075737820893524,-2.7501182078301905,-1.3232245445251465,0.9384785890579224,-0.4587475061416626,0.9094980132389812,-9.75274889846444,0.4765242736412212,100,walking
1783069108696757200,3.9949713,3.1697932341873645,-4.2464632657676935,-2.736782925438881,-1.020734190940857,0.7195268273353577,-0.2693956792354584,0.94284674061127,-9.754230661454796,0.3693661040946841,100,walking
1783069108706719500,4.0049336,3.6097716283828016,-6.522099336776137,-1.8652701402664185,-0.5567067265510559,0.8222930431365967,0.1571961045265197,0.9472916642561554,-9.756226803708076,0.2984146269011311,100,walking
1783069108716682200,4.0148963,3.031305677734315,-9.434192067369818,-0.1764075555299408,0.1198133900761604,1.248952031135559,0.7865729928016663,0.8992251140929758,-9.761169520807266,0.285194276126381,100,walking
1783069108726644200,4.0248583,2.6154759286284444,-13.580503352558612,0.6123275594463572,0.9724096059799194,1.8528761863708496,1.4417701959609983,0.7860861531037837,-9.768798700511455,0.3507401314167305,100,walking
1783069108736607200,4.0348213,3.267290316343307,-17.929915536147355,1.7317969048440456,1.7043440341949463,2.153721332550049,2.090771198272705,0.6045830827994272,-9.775337162369487,0.4976534247791394,100,walking
1783069108746569500,4.0447836,3.801429634009301,-21.27409970707893,4.403386934882402,1.821670413017273,2.1423354148864746,2.482959985733032,0.367174694997631,-9.775853879719971,0.6842914468191563,100,walking
1783069108756532200,4.0547463,2.7662092186704275,-22.455930487310884,7.605709981274605,1.17206072807312,2.08843994140625,2.564751386642456,0.1038401493060402,-9.770174665039775,0.8386392740964889,100,walking
1783069108766494200,4.0647083,0.2599353134410456,-21.927987978458404,8.981656973940133,0.3141955733299255,2.239258050918579,2.393604516983032,-0.1577326656763441,-9.763160986885428,0.9089397948343306,100,walking
1783069108776457500,4.0746716,-3.1273493462115525,-19.75904468797445,7.907963912343979,-0.0289618037641048,2.6366868019104004,2.0877974033355717,-0.398112781031616,-9.756075412538648,0.9115266695223748,100,walking
1783069108786419500,4.0846336,-6.222832312563061,-17.31117339695096,4.61197240217328,0.2247763723134994,3.114029884338379,1.7419583797454834,-0.6105186103282496,-9.74584920207858,0.9033706163998692,100,walking
1783069108796382500,4.0945966,-7.997585731080174,-14.875163224112988,0.9509177457988262,0.8278854489326477,3.643588066101074,1.4075875282287598,-0.7936232706103473,-9.730196290394662,0.9294286022420972,100,walking
1783069108806344400,4.1045585,-8.754780063155293,-13.404305074131488,-0.8760567122124135,1.4473309516906738,4.206197738647461,1.1989368200302124,-0.9577482494059948,-9.707822546023127,1.0056431693293153,100,walking
1783069108816307500,4.1145216,-8.773954134702683,-12.70257251703739,-0.9016600861549376,1.8553736209869385,4.750877380371094,1.059593915939331,-1.1143976316239683,-9.678574824228882,1.119681563376263,100,walking
1783069108826269400,4.1244835,-8.526595576903224,-12.142415837800502,-0.0357598801672458,2.1204521656036377,5.075794219970703,0.7547900080680847,-1.2614995063610377,-9.644071081602572,1.2533603313080963,100,walking
1783069108836232400,4.1344465,-8.3968714648813,-10.71186865541935,0.7006428621612489,2.3074252605438232,5.194279670715332,0.2018365412950515,-1.3764092033497988,-9.608467268779874,1.3975748871058224,100,walking
1783069108846195500,4.1444096,-8.365638706749678,-8.63003724667728,1.1408207244515418,2.540196180343628,5.207490921020508,-0.4466868042945862,-1.4411607847236096,-9.574574351528286,1.5559478782460092,100,walking
1783069108856157400,4.1543715,-8.412710839048028,-8.031568664702773,1.7993173664093016,2.5892465114593506,5.224547386169434,-1.003313064575195,-1.4563378955893218,-9.54291898407042,1.7268921816676854,100,walking
1783069108866120400,4.1643345,-7.990950823110341,-8.531779117020964,3.805894504463673,2.286261558532715,5.485750198364258,-1.4791597127914429,-1.4350212590552869,-9.516610822859406,1.8828776931494475,100,walking
1783069108876082400,4.1742965,-7.172647065556049,-7.655403109726309,6.860259863007069,1.8389275074005127,5.66438627243042,-2.048059463500977,-1.3767474953934549,-9.501296349349618,2.0000814924247563,100,walking
1783069108886045400,4.1842595,-6.0870274193227285,-5.467522479060292,7.370743872058391,1.435670256614685,5.616408348083496,-2.68869948387146,-1.2678105892039837,-9.499381455639003,2.079618847259134,100,walking
1783069108896007400,4.1942215,-4.653858656266332,-2.689896086579561,6.331045434522628,1.1323388814926147,5.506763935089111,-3.3612923622131348,-1.098360615993291,-9.508262096709013,2.134702582708001,100,walking
1783069108905970400,4.2041845,-3.033997693297267,0.5044003052234649,5.283136802524328,0.8977598547935486,5.283459663391113,-3.987739562988281,-0.8657077521555125,-9.52260977101326,2.177345646517724,100,walking
1783069108915932400,4.2141465,-1.341814859830588,3.744555361881852,3.4400714798033234,0.7600517868995667,4.994297981262207,-4.529384136199951,-0.5733968672232702,-9.535230767655372,2.218324722637981,100,walking
1783069108925895400,4.2241095,0.2197813082343898,6.734501147484779,1.6403810422979297,0.6939447522163391,4.637733459472656,-4.935535907745361,-0.2302559039649553,-9.538110707005858,2.267555202013999,100,walking
1783069108935857400,4.2340715,1.5311667804718017,9.016455315598844,0.0436216995835304,0.6100724935531616,4.230576515197754,-5.118241786956787,0.1473183487656526,-9.525223168382048,2.3278341680184007,100,walking
1783069108945820400,4.2440345,2.380954932831228,10.260118574887514,-0.816217160538584,0.4099934995174408,3.829211950302124,-4.97257661819458,0.5327884875789285,-9.4959187479645,2.390405336613208,100,walking
1783069108955782400,4.2539965,2.612858439606428,10.158677139019966,-0.8976423749461769,0.0608994141221046,3.4713854789733887,-4.549017906188965,0.8956945288140327,-9.456128004845976,2.4392094072707,100,walking
1783069108965745400,4.2639595,2.2404843858674166,9.957980379152298,-1.0243287267073988,-0.3746074438095093,3.142402410507202,-3.945038080215454,1.2150968708220868,-9.415096906277537,2.4596532064929604,100,walking
1783069108975708400,4.2739225,1.5143797501914202,10.117523290854692,-1.2426152115404605,-0.8057138919830322,2.911837339401245,-3.247152090072632,1.478222833530605,-9.381305695834754,2.4446537902817127,100,walking
1783069108985670400,4.2838845,0.34351533126235,10.691908401930332,-1.6285837831288574,-1.109347939491272,2.7905070781707764,-2.54811954498291,1.6795846331782638,-9.3592335647583,2.3987672145061194,100,walking
1783069108995633400,4.2938475,-0.9916684199906886,11.555437787133457,-2.3974586161255838,-1.194314956665039,2.759596824645996,-1.9404428005218504,1.822606033668667,-9.347684581261872,2.3386510378479954,100,walking
1783069109005595400,4.3038095,-2.097396934403479,12.44973640460968,-3.0749931360304354,-1.12262225151062,2.736793279647827,-1.4320863485336304,1.915586953574419,-9.343259750556946,2.281314993427693,100,walking
1783069109015558400,4.3137725,-3.022182752341032,13.090905479669573,-3.6414565141960975,-0.967772901058197,2.6747961044311523,-1.057411551475525,1.9697814850986,-9.3429335873425,2.236060870336741,100,walking
1783069109025520400,4.3237345,-3.727967799696326,13.360919521391391,-3.789991709671914,-0.8140570521354675,2.603776454925537,-0.8067540526390076,1.9971097831375892,-9.34464740552306,2.2044318063639103,100,walking
1783069109035483400,4.3336975,-3.99389135723412,13.248046006405351,-3.804669346582889,-0.7680530548095703,2.4592814445495605,-0.6432074308395386,2.0089485433608294,-9.347443173721432,2.181700042334944,100,walking
1783069109045445400,4.3436595,-4.156790593627095,12.756276050174236,-3.921493937282264,-0.7388670444488525,2.264412641525269,-0.5210145115852356,2.011885327465087,-9.352171955808997,2.158612742866576,100,walking
1783069109055408400,4.3536225,-4.5597857033401725,12.115427293109892,-3.654283554804325,-0.7268516421318054,2.116570234298706,-0.39201819896698,2.007866008821129,-9.358653719043732,2.134114553686976,100,walking
1783069109065370400,4.3635845,-5.138233826071024,11.193921519756316,-2.805794794605672,-0.7078307271003723,2.042201280593872,-0.2467072755098343,1.993749220663309,-9.367445512786508,2.108632468036562,100,walking
1783069109075333400,4.3735475,-5.732229646545648,10.216657034301758,-2.1445897704720496,-0.6357293725013733,2.05582594871521,-0.0724119171500206,1.9661501428589223,-9.37838776256144,2.085782630585879,100,walking
1783069109085295400,4.3835095,-6.141807057258486,9.08295169481337,-1.5679206401124597,-0.5126073360443115,2.134854555130005,0.153686374425888,1.9193325698435304,-9.391054351910949,2.072348710125685,100,walking
1783069109095258400,4.3934725,-6.2524821854174135,7.81713447138369,-1.0222243017740549,-0.4019517004489898,2.268867254257202,0.4108404219150543,1.8476004819326104,-9.40568961098492,2.0711841963909565,100,walking
1783069109105220400,4.4034345,-6.061695994189381,6.851988878268003,-0.6462427250623702,-0.3261091113090515,2.429630994796753,0.6574111580848694,1.7489909084901212,-9.422762910860776,2.079172126404941,100,walking
1783069109115183400,4.4133975,-5.728114612442255,6.383102369496226,-0.5273230617798864,-0.2582669556140899,2.578321933746338,0.8754585385322571,1.6247525344029068,-9.441694405823943,2.094029357666522,100,walking
1783069109125146400,4.4233605,-5.323278843298554,6.058126319009065,-0.4351715784355998,-0.2544215619564056,2.674235820770264,1.0930815935134888,1.4771435138612985,-9.462083698379994,2.111261939757317,100,walking
1783069109135108400,4.4333225,-4.74465127234757,5.339713845270872,0.064448068382591,-0.3807070553302765,2.750560522079468,1.3069493770599363,1.3062784131556748,-9.485273435309528,2.1198115953072905,100,walking
1783069109145071600,4.4432857,-3.893692322643101,4.921049457260966,0.5239617686532437,-0.6081938743591309,2.7351419925689697,1.417919635772705,1.118513396379724,-9.512229831296205,2.1063689070187506,100,walking
1783069109155033300,4.4532474,-3.0145801683828237,5.421766690057516,0.5836264021515846,-0.8063437342643738,2.721275329589844,1.3754196166992188,0.928482407433167,-9.541289921563862,2.0669035964623093,100,walking
1783069109164996400,4.4632105,-2.619242587685585,6.237647604379058,0.9540447917781768,-0.961461305618286,2.742276191711426,1.241109848022461,0.7481739902734756,-9.570226093190907,2.0053379516482357,100,walking
1783069109174958600,4.4731727,-2.4348263698808847,6.641714142715931,1.1975716624602677,-1.051763653755188,2.74397873878479,1.0883435010910034,0.5833602620286866,-9.59780383594632,1.926711574178934,100,walking
1783069109184921600,4.4831357,-2.3031474705293773,6.988133963248133,0.8560675248898565,-1.085353970527649,2.755882978439331,0.9774999022483826,0.4329766987398266,-9.623103696897626,1.8381572385437783,100,walking
1783069109194883300,4.4930974,-2.3020506152033806,7.034788162395357,0.920455825909227,-1.1374530792236328,2.73239541053772,0.8865481615066528,0.2946620511682704,-9.646263038688897,1.7415969988465307,100,walking
1783069109204846300,4.5030604,-2.223075862687826,6.973450188857316,0.8286591473519802,-1.2186049222946167,2.749434471130371,0.8097817301750183,0.1673543891709298,-9.667974519759415,1.6348253078669308,100,walking
1783069109214808600,4.5130227,-2.2028685025699435,6.773108233776688,0.850976193100214,-1.3116346597671509,2.7875826358795166,0.7744724750518799,0.0477877240886446,-9.688647305431962,1.5159911309108136,100,walking
1783069109224771600,4.5229857,-2.296196190086752,6.0850102342814205,0.7771709521770477,-1.370733380317688,2.841738700866699,0.7201675176620483,-0.0655340780875878,-9.708035896512865,1.3856906803056597,100,walking
1783069109234733300,4.5329474,-2.1676072195746,5.179230437847972,0.5813875371836126,-1.3810352087020874,2.885145902633667,0.6208715438842773,-0.1683854127191007,-9.72536989315152,1.2486797722764311,100,walking
1783069109244696300,4.5429104,-1.9868141607031224,4.128443035542965,0.1050678096711635,-1.3515352010726929,2.843847751617432,0.4620950222015381,-0.2546075425470248,-9.740302089345455,1.1099899712495505,100,walking
1783069109254659300,4.5528734,-1.819825901430845,2.7653689684540037,-0.873369226694107,-1.3139100074768066,2.710474967956543,0.3541456758975982,-0.3222364694554358,-9.752996151223778,0.9724291011873633,100,walking
1783069109264621600,4.5628357,-1.8229580619767307,0.675797905370593,-1.5351859529852867,-1.254141330718994,2.675006151199341,0.3959318697452545,-0.381802464884892,-9.763290750744938,0.8383234130803495,100,walking
1783069109274584600,4.5727987,-1.9745333558008076,-1.8318992010623216,-1.329419050246477,-1.1859428882598877,2.7322545051574707,0.5819520354270935,-0.4495958251073956,-9.770701319262384,0.7082741607572883,100,walking
1783069109284546300,4.5827604,-2.5184642919018865,-4.566275649881363,-1.6898972067475315,-1.0821270942687988,2.8459198474884038,0.8288156986236572,-0.5362378243152052,-9.774543381643294,0.5840759725499898,100,walking
1783069109294509300,4.5927234,-2.83437031622678,-7.198333879998326,-2.141116541403532,-0.9877174496650696,2.967317581176758,1.024863839149475,-0.6426089716698974,-9.774460964056848,0.4662232078466564,100,walking
1783069109304471600,4.6026857,-2.7040245651751755,-9.51709188437462,-2.822270420849323,-0.8901949524879456,2.992075204849243,1.0808963775634766,-0.7581405999492854,-9.77089596505165,0.3538482169672846,100,walking
1783069109314434600,4.6126487,-2.385853518527746,-11.482478933906554,-3.0591666213452813,-0.7985963225364685,2.935145139694214,1.0585713386535645,-0.8714578401148318,-9.764713477024436,0.2476256843030452,100,walking
1783069109324396300,4.6226104,-2.0991472852021453,-13.254696696466208,-1.91595754045248,-0.6472519040107727,2.7717745304107666,1.0683915615081787,-0.9797961958892644,-9.75642554115057,0.150234373209672,100,walking
1783069109334359300,4.6325734,-1.4852783050000666,-15.44859322642088,-0.6151414843559265,-0.3350876271724701,2.646754741668701,1.1833258867263794,-1.0914812317430973,-9.74544062127769,0.0737530403784709,100,walking
1783069109344321500,4.6425356,-0.9159585875552148,-18.18955899050236,1.4119932885587214,0.0491900257766246,2.475745439529419,1.3108296394348145,-1.213982991296053,-9.73117127290666,0.0308124252441455,100,walking
1783069109354284500,4.6524986,-1.1818050612688065,-20.249084459412096,2.91017432975173,0.2646096646785736,2.373483419418335,1.359128475189209,-1.344377111534029,-9.71405121127963,0.0164371265723893,100,walking
1783069109364246300,4.6624604,-2.330587850640714,-20.99004311147928,4.26808414594531,0.3298156857490539,2.4100255966186523,1.2976468801498413,-1.4739482249513267,-9.695242465913296,0.0119995437004545,100,walking
1783069109374209300,4.6724234,-3.801365628862381,-20.482883862936497,5.484729049926996,0.4125356078147888,2.437575101852417,1.064417600631714,-1.5891795551098882,-9.677023503133654,0.0104125542118679,100,walking
1783069109384172500,4.6823866,-4.4885184564620255,-18.970053534144164,5.645379046088457,0.4869360625743866,2.402797222137451,0.6808786988258362,-1.6743061082534492,-9.66265244795382,0.0149625182669609,100,walking
1783069109394134500,4.6923486,-4.249076370875537,-17.259349686211348,6.011764380806684,0.3985270857810974,2.214476585388184,0.1543043702840805,-1.7157776440657675,-9.655367551642655,0.0190796541375399,100,walking
1783069109404097300,4.7023114,-3.6795199951305984,-14.782593661487102,6.377931104338169,0.2482763826847076,1.9014497995376587,-0.4799146056175232,-1.700849977916479,-9.658017189368604,0.014736650788947,100,walking
1783069109414059500,4.7122736,-3.0410628093779084,-11.606353150856494,6.375166315799951,0.2053896337747573,1.58932626247406,-1.1596264839172363,-1.6223934040561316,-9.671514968845248,0.0061289888621104,100,walking
1783069109424022500,4.7222366,-1.973207952415943,-8.245314875757694,5.767938088786602,0.3409452140331268,1.3077811002731323,-1.8477123975753784,-1.4772855526804922,-9.694737439000606,0.0088214119920827,100,walking
1783069109433984500,4.7321986,-0.8522250241175293,-4.786471475467086,4.705447973728179,0.5980377793312073,1.0798115730285645,-2.481329679489136,-1.2673919254004955,-9.724337042972444,0.0374659899653866,100,walking
1783069109443947300,4.7421614,0.0662329790379852,-1.4936562572449446,3.4611551843643187,0.9274625182151794,1.005308747291565,-2.92945408821106,-1.0041612602084875,-9.754601832854748,0.0988727726896293,100,walking
1783069109453909500,4.7521236,0.9860830941390244,0.8984773644655942,2.681093186920881,1.4062895774841309,1.1369123458862305,-3.1337039470672607,-0.7092536002486943,-9.778870597192643,0.2025723079485818,100,walking
1783069109463872500,4.7620866,1.5182532306239007,2.2615946861743925,2.4390040939569477,1.8966264724731443,1.3173283338546753,-3.09678316116333,-0.4076428989863023,-9.791658182573318,0.3572743189584463,100,walking
1783069109473834500,4.7720486,1.894622637609392,2.872903460499644,2.2668226499557496,2.188151836395264,1.4738329648971558,-2.8775343894958496,-0.1215666158610023,-9.79020096950233,0.5545944419998675,100,walking
1783069109483797500,4.7820116,2.2906819567099213,3.354153776282072,2.6108593747437,2.1804025173187256,1.5504637956619265,-2.4900004863739014,0.1309034214669838,-9.775552266424894,0.7693043104551732,100,walking
1783069109493759500,4.7919736,2.508373105998337,3.257538737657666,3.2336230245411395,1.9333516359329224,1.6486555337905884,-1.9805747270584104,0.3348910030409693,-9.752408706724642,0.97403675557971,100,walking
1783069109503722500,4.8019366,2.461921443685889,3.0826334216505287,3.481168044823408,1.595181941986084,1.7963427305221558,-1.4766560792922974,0.4839941345978528,-9.726691497144104,1.1522102065373212,100,walking
1783069109513684500,4.8118986,2.350558333262801,3.749224522736669,2.8809564185738563,1.3350930213928225,1.884195327758789,-1.096888542175293,0.5847328290235251,-9.702107090985775,1.3029111286796629,100,walking
1783069109523647500,4.8218616,2.3642779387965795,5.253232078126072,1.8344003702282905,1.2170249223709106,1.789494514465332,-1.009044170379639,0.6588506430272013,-9.678464934113622,1.4365274258345364,100,walking
1783069109533610200,4.8318243,2.271396972133964,7.249068041935563,0.7102129468001425,1.2586709260940552,1.508336901664734,-1.2399282455444336,0.7409577022191136,-9.652398764964936,1.56607355094105,100,walking
1783069109543572500,4.8417866,2.114161314460635,8.987527327278256,-0.3905214125871658,1.3541179895401,1.3028314113616943,-1.6335468292236328,0.8559954095017165,-9.619746203163263,1.7023944308795034,100,walking
1783069109553535500,4.8517496,1.7165768316194414,9.89460300874114,-1.1881612984277308,1.3577274084091189,1.181512713432312,-1.976019263267517,1.0078748008389025,-9.578867080286145,1.8438729858420788,100,walking
1783069109563497500,4.8617116,0.9798108089365064,9.869549231505394,-1.979422296886146,1.2993539571762085,1.2032790184020996,-2.142042398452759,1.1823030739188194,-9.530919918718933,1.9834630967095488,100,walking
1783069109573460200,4.8716743,0.1361355864994227,9.511703177073596,-2.041914993417263,1.1728745698928833,1.2475591897964478,-2.112483024597168,1.3599410297602414,-9.47848362903893,2.116435250741988,100,walking
1783069109583422500,4.8816366,-0.5265029775686562,9.13046923279166,-2.348099688064307,0.951469898223877,1.2698012590408323,-1.8883670568466189,1.522041663121432,-9.426450659462809,2.2351228588342664,100,walking
1783069109593385500,4.8915996,-1.1003896376028657,8.523529759591817,-2.553681735755503,0.6715114712715149,1.335685968399048,-1.5520050525665283,1.654048625383526,-9.380652784883976,2.3319189531140028,100,walking
1783069109603347500,4.9015616,-1.6645026532500982,7.91514125662744,-2.602238845914602,0.4303980767726898,1.406485080718994,-1.1625447273254397,1.7484492028288543,-9.344778338426352,2.4059138713903723,100,walking
1783069109613310500,4.9115246,-2.347563243100047,7.5654714943885795,-3.009166618901491,0.2953081727027893,1.468968391418457,-0.7471453547477722,1.8024333064727485,-9.319224210453031,2.464485448954999,100,walking
1783069109623272400,4.9214865,-2.995418079534173,7.206410218948125,-3.379472926455736,0.2050174176692962,1.5350314378738403,-0.3578541576862335,1.816123978172988,-9.303132322829962,2.514718091110885,100,walking
1783069109633235500,4.9314496,-3.5123347519814967,7.128211126980185,-3.848173265005648,0.0940416380763053,1.597303867340088,-0.0551337040960788,1.7952431027077138,-9.29571064839661,2.5568007445588705,100,walking
1783069109643197400,4.9414115,-3.9629543671786784,7.492859262642264,-4.328255121530592,0.0098880818113684,1.6499652862548828,0.1101545691490173,1.7504126118563117,-9.295093977802992,2.5899144941315053,100,walking
1783069109653160400,4.9513745,-4.329775170704722,8.110641616895794,-4.722083758969605,-0.0307331122457981,1.7222800254821775,0.1492380499839782,1.6942080556839705,-9.297716143000123,2.617729552774131,100,walking
1783069109663123500,4.9613376,-4.682286001588404,8.574678932070732,-5.013404500353336,-0.0240240786224603,1.8036144971847532,0.1351539343595504,1.6347667095474898,-9.300871392160651,2.644192904546857,100,walking
1783069109673085400,4.9712995,-5.08374644908011,8.691797245019673,-5.180675960481167,0.0677140951156616,2.017836570739746,0.1053837835788726,1.573547686214,-9.302319837403298,2.676040871967375,100,walking
1783069109683048400,4.9812625,-5.565091457408666,8.673678820005058,-4.8648576144397255,0.2590930461883545,2.2768845558166504,0.1623952686786651,1.504226312706619,-9.299912191739676,2.723843072105944,100,walking
1783069109693010400,4.9912245,-5.846804704752564,7.999139974784851,-4.883003511983156,0.4463164806365967,2.5696537494659424,0.3606465458869934,1.4143890976540745,-9.293804522514344,2.791967929305136,100,walking
1783069109702973400,5.0011875,-5.679031140321493,6.892801365649699,-4.802758301140368,0.5384088158607483,2.8587563037872314,0.6554295420646667,1.2906088425979017,-9.286552943950891,2.874827414299548,100,walking
1783069109712935400,5.0111495,-5.124211145937442,5.630182061478496,-4.421287333232164,0.5559284090995789,3.075140476226806,0.8499428033828735,1.133525891268253,-9.27984321717918,2.961421994169056,100,walking
1783069109722898400,5.0211125,-4.286885877048969,4.882717680779099,-3.939332960833609,0.5262061357498169,3.2071428298950195,0.8785392642021179,0.95849651049003,-9.272635477757454,3.04465031247586,100,walking
1783069109732860400,5.0310745,-3.4590853923529385,4.624740698331594,-3.578055178387463,0.4603983461856842,3.173261880874634,0.741645336151123,0.7843129328861832,-9.264552709066868,3.1182185297727583,100,walking
1783069109742823400,5.0410375,-3.020854718607664,4.824392917582393,-3.4454616484090685,0.379427045583725,3.019925832748413,0.4932537972927093,0.629645664396137,-9.255762084367872,3.178807730770111,100,walking
1783069109752785400,5.0509995,-2.6008491451218725,4.674970417878032,-3.536646186417341,0.2827101051807403,2.8618321418762207,0.2346078306436538,0.5026305921372026,-9.24714740075767,3.2261478663548826,100,walking
1783069109762748400,5.0609625,-2.169400971123576,4.048119206506014,-3.362887702357769,0.158265084028244,2.797999382019043,0.0672723725438118,0.3982903660882264,-9.24069369457364,3.259038620826602,100,walking
1783069109772710400,5.0709245,-1.9425760827869176,3.132583155211806,-2.828526266373694,0.0329210236668586,2.849452018737793,0.0577521026134491,0.3015006832829676,-9.237796219566464,3.2775887152567504,100,walking
1783069109782676700,5.0808908,-1.6889697166390716,2.058576789882779,-2.272927396571636,-0.1097254827618599,2.899024724960327,0.1185119897127151,0.1993273164116777,-9.239236481502653,3.2813357928305864,100,walking
1783069109792638700,5.0908528,-1.0933736213609575,1.4233452881783246,-2.375285070501268,-0.2809251844882965,2.7692666053771973,0.189070850610733,0.0922981344065163,-9.245801831367611,3.26757468624264,100,walking
1783069109802601500,5.1008156,-0.3942633025292307,0.9081839349657296,-3.3623078566432,-0.4532040059566498,2.5073885917663574,0.3010842204093933,-0.0152946819639299,-9.257812587156891,3.234666688375175,100,walking
1783069109812564700,5.1107788,-0.1367721217041369,-0.0250000012218952,-3.806338741099834,-0.6133700013160706,2.2911477088928223,0.5210690498352051,-0.1289843447715975,-9.274528159636258,3.1838463094592093,100,walking
1783069109822526700,5.1207408,-0.3085686671741307,-1.5442378589689731,-3.867481192065775,-0.7515279650688171,2.160792112350464,0.7974596619606018,-0.2596053325680084,-9.29476080032587,3.1161513681098816,100,walking
1783069109832489700,5.1307038,-0.8783624318715184,-2.9674264952808618,-4.333970576567948,-0.741969883441925,2.178576231002808,1.0527344942092896,-0.4119625888163223,-9.31482743679881,3.0388568237662312,100,walking
1783069109842451500,5.1406656,-1.7401371554270386,-4.226312458142638,-4.493780030252039,-0.6019071340560913,2.327293157577514,1.1868544816970823,-0.5844829824483022,-9.32950653501451,2.964632188387215,100,walking
1783069109852414700,5.1506288,-2.3509958478972317,-5.453230334335565,-4.554104150572419,-0.4248822927474975,2.3944711685180664,1.122786045074463,-0.7623637706022709,-9.33664880798459,2.9010563727945087,100,walking
1783069109862376700,5.1605908,-2.785996745941042,-6.626560997247696,-4.650761274772882,-0.2542914748191833,2.378175973892212,0.8868407607078552,-0.925165391839668,-9.337975672674178,2.8489748879015444,100,walking
1783069109872339700,5.1705538,-3.600313479685783,-7.982083626043796,-3.1558582323372364,0.0309069752693176,2.312790870666504,0.5704463124275208,-1.0591022992510348,-9.3342791562438,2.814236167475581,100,walking
1783069109882301700,5.1805158,-4.879922789363563,-10.309329472780227,-0.4224328006327152,0.3518842756748199,2.268491506576538,0.3150934278964996,-1.1634912598125635,-9.32387174399793,2.8075062746986745,100,walking
1783069109892264700,5.1904788,-5.986309037032723,-13.862621673572065,3.043013066662848,0.454430878162384,2.30869722366333,0.2101316004991531,-1.251362289358675,-9.308911490753292,2.819340212616324,100,walking
1783069109902226700,5.2004408,-6.362246628472208,-17.794403488373757,6.630690059876442,0.1481555551290512,2.148369550704956,0.2116196602582931,-1.332867144873738,-9.29703634404242,2.821168597087264,100,walking
1783069109912189700,5.2104038,-6.620681291559338,-20.76238352588415,8.2250471637547,-0.4572419226169586,2.215388059616089,0.3705659210681915,-1.4191973747186362,-9.297716727522015,2.776459102267027,100,walking
1783069109922151700,5.2203658,-8.268957617151736,-21.42608007457256,10.245991849857568,-0.779058575630188,2.50689959526062,0.622100830078125,-1.5296120983757078,-9.307987361645695,2.681799873885512,100,walking
1783069109932114700,5.2303288,-9.662665307435391,-21.123395935392377,11.000615454661846,-0.6744711399078369,2.969266414642334,0.5398557782173157,-1.6578683298021557,-9.317679319098591,2.5695707942828534,100,walking
1783069109942076700,5.2402908,-10.420468126797676,-18.53291766989827,11.17949785760641,-0.428989976644516,3.299485921859741,-0.0591515339910984,-1.761678394497186,-9.327059141862392,2.4643098001271486,100,walking
1783069109952039700,5.2502538,-11.089756211882827,-14.871901591968536,11.082501126188038,-0.1154818683862686,3.51380467414856,-0.980132818222046,-1.7965848727054894,-9.342755308166144,2.3781499584130943,100,walking
1783069109962002700,5.2602168,-11.109048941373825,-12.588953152120112,10.785672727298737,0.0993774607777595,3.740168571472168,-1.9398847818374636,-1.7445228231653571,-9.368571301946044,2.314501077584177,100,walking
1783069109971964700,5.2701788,-10.607470707833766,-11.355468172496556,11.164405502414702,0.0891096442937851,4.0046892166137695,-2.70993971824646,-1.6140315261632203,-9.405402026215196,2.2591350180625915,100,walking
1783069109981927700,5.2801418,-9.010501960152387,-10.50018872924447,11.328539249038696,0.016071243211627,4.2135186195373535,-3.222782850265503,-1.4252246721841395,-9.449496604007482,2.201393315450847,100,walking
1783069109991889700,5.2901038,-6.527599687758087,-9.136746997886895,10.722192481034991,0.0005338280461728,4.264107704162598,-3.4214067459106445,-1.201931318974495,-9.493136423769592,2.146192967884988,100,walking
1783069110001852700,5.3000668,-4.056156090228259,-7.360915721005201,9.64323755338788,0.0420870743691921,4.1722846031188965,-3.3575961589813232,-0.9688245008241384,-9.529578440982103,2.1021170947931704,100,walking
1783069110011814700,5.3100288,-2.104167743712664,-5.6376534202724695,8.557013511520625,0.1465322524309158,4.039474487304688,-3.088929414749145,-0.7465780263189226,-9.555350595620274,2.075635768972337,100,walking
1783069110021777700,5.3199918,-0.8887119033850729,-4.30611255556643,8.005901724004746,0.2965143322944641,3.9229211807250977,-2.6794724464416504,-0.5534950293906032,-9.569481996825337,2.070994372907281,100,walking
1783069110031739600,5.3299537,0.0837665533693507,-3.346623965299129,7.224512861871719,0.4950380623340606,3.8434436321258554,-2.2612459659576416,-0.3987537092836573,-9.573087912362814,2.0898291294977067,100,walking
1783069110041702700,5.3399168,1.0997094002537429,-1.6878811907500029,6.456403168028593,0.7647765874862671,3.688399314880371,-1.937698006629944,-0.2784982490864582,-9.566962707480789,2.136834918561578,100,walking
1783069110051664600,5.3498787,2.125875717651844,0.4373006994187832,5.1946670764327045,1.0005278587341309,3.4628241062164307,-1.6499613523483276,-0.1850758690235205,-9.551727144426106,2.213741340370476,100,walking
1783069110061627600,5.3598417,2.8169769906163213,1.425840027603507,4.572795407038927,0.9368221163749696,3.1015987396240234,-1.3438211679458618,-0.1164671646969858,-9.531709023270013,2.3029027019880712,100,walking
1783069110071589600,5.3698037,3.253487708701193,1.7929922550410031,4.594666170324385,0.6856977343559265,2.7255680561065674,-1.030389428138733,-0.0717433445238741,-9.51384486527741,2.3773988477848467,100,walking
1783069110081552600,5.3797667,3.377706793566048,2.931712792342901,4.274581691271067,0.5168823003768921,2.3915610313415527,-0.7318631410598755,-0.0497666868782602,-9.500205046981572,2.431876580164581,100,walking
1783069110091514600,5.3897287,2.995736936224997,4.3837844087898725,3.107208183197677,0.4777266979217529,2.180850982666016,-0.5092816948890686,-0.0472776054423069,-9.488520454406736,2.477117259252071,100,walking
1783069110101477600,5.3996917,2.370714986106753,6.172613114410638,1.7675155762180683,0.5266373157501221,2.021937370300293,-0.377695232629776,-0.0582154119375627,-9.476310961174963,2.5231930739894506,100,walking
1783069110111440600,5.4096547,1.945299954792857,7.890536976724863,0.2984498626112937,0.575356662273407,1.8099924325942995,-0.3016907274723053,-0.0751291647369973,-9.4624800042212,2.5741435090258715,100,walking
1783069110121402600,5.4196167,1.7948932663567363,9.078380149114132,-0.9568582417637108,0.5944311618804932,1.562175750732422,-0.2285130769014358,-0.0938128132857848,-9.447534364023804,2.627860778427124,100,walking
1783069110131366000,5.4295801,1.5987271356560289,9.964225411021708,-1.7797466967597604,0.6246625781059265,1.3636418581008911,-0.1123585179448127,-0.1158185554619878,-9.431664594718812,2.68340789360404,100,walking
1783069110141327600,5.4395417,1.176753623098135,10.35119059243202,-2.335216679485142,0.6382560133934021,1.2477927207946775,0.1157113388180732,-0.1503893628419842,-9.41445802385211,2.741482481431961,100,walking
1783069110151290600,5.4495047,0.7782996639460324,9.842614462828635,-2.502654728351533,0.5439878702163696,1.1744636297225952,0.4299214780330658,-0.2089285268411971,-9.397444345209,2.795496395692229,100,walking
1783069110161252900,5.459467,0.6954091992914676,9.168722683340311,-2.616649648582935,0.4156017005443573,1.1703002452850342,0.7524861097335815,-0.2970740076808258,-9.382555403634903,2.8372151842638846,100,walking
1783069110171216000,5.4694301,0.9091633013918996,8.96674289792478,-2.3783836210384965,0.3584321439266205,1.2094130516052246,0.9862676858901978,-0.4131145353304222,-9.368518694975972,2.868895686163008,100,walking
1783069110181177600,5.4793917,1.081063298103213,9.06346373501122,-2.316893087287247,0.3535207211971283,1.1368039846420288,1.0457627773284912,-0.5428167643141001,-9.353460826575756,2.8962893045231697,100,walking
1783069110191140600,5.4893547,1.131785623472184,9.208340407979488,-3.1066125553920863,0.3630737364292145,1.0523314476013184,0.9516040682792664,-0.6680585432901978,-9.337027578169106,2.923007215578854,100,walking
1783069110201102800,5.4993169,1.0745226442880929,9.148547325795889,-3.375940952937305,0.357923299074173,0.972078800201416,0.8188093304634094,-0.7797365648813546,-9.32003318874836,2.949474659004807,100,walking
1783069110211065900,5.50928,0.9069831078086048,8.600302618148923,-3.4090155395433306,0.2884621918201446,0.932720184326172,0.7114120125770569,-0.8785521092247217,-9.30404943767488,2.972074613347649,100,walking
1783069110221027600,5.5192417,0.9179800103802234,7.63966135071516,-3.262766116917133,0.1520734280347824,0.9084656238555908,0.6549940705299377,-0.9688566495280712,-9.291210998889804,2.9841411909773945,100,walking
1783069110230990600,5.5292047,1.0765206131722778,6.8499681860953565,-3.139672236689925,-0.012701935134828,0.8923470973968506,0.6315721273422241,-1.054972652100399,-9.282625541374086,2.981654634858668,100,walking
1783069110240952800,5.5391669,1.2938333576023575,6.1906345087915655,-3.0230864231824874,-0.1558184921741485,0.8772670030593872,0.5938308835029602,-1.137761263815686,-9.278556099978088,2.963830224354565,100,walking
1783069110250915800,5.5491299,1.504914441101253,5.776905239096283,-3.0363723134741187,-0.2454256117343902,0.84626305103302,0.5491185784339905,-1.2159642282411456,-9.27782778570354,2.934918602646887,100,walking
1783069110260878800,5.5590929,1.735909162468463,5.6070297339499,-3.072082509280741,-0.3339152336120605,0.8182789087295532,0.4855796992778778,-1.2880436682850125,-9.279734496107697,2.8979046307653187,100,walking
1783069110270840600,5.5690547,2.002231948456913,5.446890025398135,-2.9240970566421747,-0.4919956624507904,0.7419250011444092,0.4375698268413543,-1.3531043156079947,-9.2853961751312,2.849728044356405,100,walking
1783069110280803600,5.5790177,2.281561807795614,5.187705420726537,-2.788952380876243,-0.7038994431495667,0.6364725232124329,0.4181723892688751,-1.411868054743856,-9.296306276202202,2.784912750096619,100,walking
1783069110290765800,5.5889799,2.443530193079263,5.122834012365341,-2.6796795207306743,-0.8742123246192932,0.5773628354072571,0.4332317411899566,-1.4677435250923037,-9.31193989866376,2.7025737818449733,100,walking
1783069110300728800,5.5989429,2.3955207799308003,5.18904456037581,-2.674112826514244,-0.9388916492462158,0.5731556415557861,0.429199606180191,-1.523283041484654,-9.329517056408523,2.60961931155473,100,walking
1783069110310690600,5.6089047,2.3014177241273224,5.5720823392093175,-2.777034564067423,-0.909818470478058,0.5752387642860413,0.3428159952163696,-1.5743286074586211,-9.347288275420665,2.513971656657755,100,walking
