time,seconds_elapsed,acc_x,acc_y,acc_z,gyr_x,gyr_y,gyr_z,grav_x,grav_y,grav_z,fs_hz,activity
1783066723264180000,0.0,-0.6890707900501787,0.0820230341702699,0.7229360886424779,-0.2383513450622558,0.4917635917663574,0.0394167378544807,0.9579694909412412,-9.755046654012798,-0.3029032070246525,50,walking
1783066723284104200,0.0199242,-0.9141272804748266,0.2885819640696048,0.5187123602250591,-0.2830237150192261,0.5033742785453796,0.0058488426730036,0.9560256633970886,-9.75390800537169,-0.3430379230089485,50,walking
1783066723304029000,0.039849,-0.8221306954313069,0.2570546069055796,0.1337760177612304,-0.3273202776908874,0.434777557849884,-0.0044031273573637,0.96069511651285,-9.751560565462707,-0.3930978024138137,50,walking
1783066723323953200,0.0597732,-0.7972873460758477,0.1282803429543972,0.1813186901807784,-0.3432077467441559,0.4284603297710418,0.0072949943132698,0.9644324764102696,-9.748631526273488,-0.4521628260511904,50,walking
1783066723343877000,0.079697,-0.7590046694327145,0.2123299145162105,0.0304132584422826,-0.2459817975759506,0.4813008308410644,0.0602151714265346,0.9616140579886734,-9.746489838069676,-0.5016220726817846,50,walking
1783066723363801900,0.0996219,-0.8538583244077861,0.5170569577008486,-0.1127999382931739,-0.1561750471591949,0.48792365193367,0.0395947135984897,0.9560610269714146,-9.745508425816894,-0.5304923394657671,50,walking
1783066723383726000,0.119546,-0.9532248536974192,0.7471469853132963,-0.1225917759239673,-0.1832012832164764,0.425121396780014,-0.0189852397888898,0.9589110826402902,-9.743958273765443,-0.5533216090524569,50,walking
1783066723403651000,0.139471,-1.0500728242948651,0.7690063504219055,-0.0023211364239454,-0.1751371622085571,0.4437306225299835,-0.0601510517299175,0.9721116327360272,-9.740977796649933,-0.5820139619862661,50,walking
1783066723423575000,0.159395,-1.0983177997648714,0.7950935623586177,0.0590993277657777,-0.1274725645780563,0.4836823642253876,-0.1017124280333519,0.9926735784452408,-9.737734869205951,-0.6012364027200267,50,walking
1783066723443499000,0.179319,-1.1050251884490252,0.7737707883447408,-0.1021819520365446,-0.1461388319730758,0.4604743123054504,-0.1460239440202713,1.0227245794463902,-9.733621004146338,-0.6172757929708809,50,walking
1783066723463424000,0.199244,-1.126995393520966,0.6193219849109649,0.0748849259186536,-0.1681753545999527,0.4620247781276703,-0.1619561910629272,1.0583116603299976,-9.728510529264808,-0.6375225352510809,50,walking
1783066723483348200,0.2191682,-1.186591784088686,0.6679594668298959,-0.0537823705267161,-0.2445642799139022,0.4278669059276581,-0.2068083733320236,1.100550234992057,-9.721782097792625,-0.6679195001456886,50,walking
1783066723503273000,0.239093,-1.2375506216272711,0.468345826023817,0.1226286738682538,-0.209451749920845,0.4638371467590332,-0.1847437173128128,1.1453737115807832,-9.714003280484675,-0.7047189524937421,50,walking
1783066723523197200,0.2590172,-1.2286240955889225,0.2719265973448753,-0.025914193457365,-0.0833242014050483,0.4615882337093353,-0.1355568319559097,1.1828349888384342,-9.708223528039454,-0.7222739714719355,50,walking
1783066723543121200,0.2789412,-1.3978579418309032,0.1668009200066328,-0.1902840138595551,0.0051264278590679,0.4151745438575744,-0.1216626986861229,1.2136539785373954,-9.704701199132204,-0.7184650807082653,50,walking
1783066723563046000,0.298866,-1.6580825570747255,0.1355962189257145,0.0141402420986443,0.0403831079602241,0.3649417161941528,-0.1663332879543304,1.2462798715278505,-9.701627783036232,-0.7039693762354552,50,walking
1783066723582970000,0.31879,-1.6923584822945297,-0.1009381625205278,0.0873422564316541,0.0705424323678016,0.3254043161869049,-0.1822403967380523,1.2862418795600532,-9.697780459958317,-0.6848449159834533,50,walking
1783066723602895000,0.338715,-1.4918839868754148,-0.6486018554091453,0.3989057945728301,0.0419321283698082,0.3439189195632934,-0.1058205887675285,1.3193519758708774,-9.694798229277133,-0.6637643532276153,50,walking
1783066723622819000,0.358639,-1.4652059694387018,-0.9537328032195568,0.6439537373423576,-0.0320093035697937,0.3530962467193603,-0.047607485204935,1.3386127027884125,-9.692833066684008,-0.6538299653209746,50,walking
1783066723642743000,0.378563,-1.4501825878299772,-1.0707137535244229,0.8132664209742099,-0.0743480771780014,0.3779683709144592,0.0266085546463727,1.345885031878948,-9.69182009024918,-0.6539021537743508,50,walking
1783066723662668000,0.398488,-1.3855647158384323,-0.9817863467931748,0.6755191614944488,-0.0837369710206985,0.3423255681991577,0.0481362156569957,1.3423193022213875,-9.691863344869017,-0.6605552549879997,50,walking
1783066723682592300,0.4184123,-1.5491870058089494,-0.8804653224349022,0.8894014930844306,-0.0365120135247707,0.3847836554050445,0.0216374993324279,1.339993635752797,-9.69202993360758,-0.6628501609921456,50,walking
1783066723702517000,0.438337,-1.411615687417984,-1.147471414512396,1.0168950695753096,-0.014695243909955,0.4197154939174652,0.0113092558458447,1.3435304315768182,-9.691977326637506,-0.6564182282485067,50,walking
1783066723722441000,0.458261,-0.9728910926759242,-1.5276988121002912,1.0451707314670085,-0.0167710557579994,0.4433879256248474,0.1058913096785545,1.3380068458497525,-9.693325234115123,-0.6477331828158348,50,walking
1783066723742366000,0.478186,-0.9120575615286828,-1.2723802352070808,0.9009658202804623,-0.0393072217702865,0.4015844166278839,0.1253673285245895,1.319071405363828,-9.69635364202559,-0.6411950862839818,50,walking
1783066723762290000,0.49811,-1.1360529255278409,-0.9230202695697546,0.6895926950324326,-0.1106922179460525,0.328947901725769,0.0646309554576873,1.3052929092496632,-9.69795640104711,-0.6451501075200736,50,walking
1783066723782214100,0.5180341,-1.021833110499382,-0.8709978213876486,0.4012245929092168,-0.1740857064723968,0.3011163175106048,0.0001682664151303,1.3037503559827803,-9.69670903133452,-0.6666815558485686,50,walking
1783066723802139100,0.5379591,-0.4781612637259065,-0.8655705356419086,0.2512473088663071,-0.0863888189196586,0.3682868480682373,8.34732782095e-05,1.3104457619681953,-9.6945053838104,-0.6853459973733872,50,walking
1783066723822062800,0.5578828,0.669072688768804,-1.3679659307837486,-0.1653122158188373,0.0458844974637031,0.35309699177742,0.1802636831998825,1.2994102809518575,-9.69638871333897,-0.6796914056777954,50,walking
1783066723841988000,0.577808,1.4186341878779232,-1.083928624406457,-0.5379290653377771,0.2072520852088928,0.25663623213768,0.3655661642551422,1.2500026914432645,-9.705091659754514,-0.6473505401737988,50,walking
1783066723861912000,0.597732,1.327882049937546,-0.6304623876065015,-0.3812648874094709,0.3022771775722503,0.1846621632575988,0.4470860064029693,1.1712155704542997,-9.718473119375108,-0.5915293572958559,50,walking
1783066723881836300,0.6176563,1.0324415252100676,0.3207289144366979,-0.2257065883638337,0.4325591921806335,0.251932144165039,0.3786347806453705,1.0925618665866552,-9.731884974133967,-0.516795128426887,50,walking
1783066723901761000,0.637581,0.8650134862810372,1.0296037445008754,0.0480950456053018,0.547930121421814,0.3674125373363495,0.22354057431221,1.0361321964215486,-9.743001995953916,-0.41321079877913,50,walking
1783066723921685000,0.657505,1.239221769709885,1.39543495246768,-0.1033785414099693,0.5234315395355225,0.4240057170391083,0.1005392670631408,1.0092328643843531,-9.750001061061024,-0.298847465360444,50,walking
1783066723941610000,0.67743,1.4665160291239618,1.291019469225407,-0.1018844851936213,0.3728880882263183,0.4412499368190765,0.0588038563728332,0.9971174791768193,-9.753774149858952,-0.2000841626609675,50,walking
1783066723961534000,0.697354,1.3055056752175092,0.8508610422879457,0.0573982777352444,0.0083952853456139,0.4966724514961242,0.018536701798439,0.9902345147300512,-9.755347098264098,-0.1518193773787934,50,walking
1783066723981458000,0.717278,1.064474566873908,0.714815910550952,0.1697597515459172,-0.3608466684818268,0.5596562027931213,-0.066272996366024,0.9951376304712146,-9.754424722722172,-0.1769423199937679,50,walking
1783066724001383200,0.7372032,1.0390076787926257,0.6613841800928115,-0.289174669265747,-0.602738082408905,0.592616856098175,-0.1800896823406219,1.0216518356483428,-9.749773682045936,-0.2617909512450918,50,walking
1783066724021307000,0.757127,1.1777424880050122,0.5206225412279367,-0.6573726063638925,-0.6162484884262085,0.6115961670875549,-0.2992834150791168,1.0717596093155444,-9.740842187571523,-0.3710869000053033,50,walking
1783066724041232100,0.7770521,1.4702131300762296,0.2053770266383886,-1.053670848786831,-0.3939982652664184,0.6314769983291626,-0.3574112057685852,1.143357257191837,-9.7289132648468,-0.4597638025742024,50,walking
1783066724061156000,0.796976,1.9051590830624103,-0.4001952498614788,-1.1033552824754267,-0.0614375732839107,0.7040191888809204,-0.2417294681072235,1.210146481873095,-9.71949778624773,-0.4871425886914133,50,walking
1783066724081080000,0.8169,2.01798379047066,-0.5034305834084749,-0.96594229645133,0.0230812709778547,0.6299118399620056,-0.1416860967874527,1.25114893886894,-9.71517173974216,-0.4695311998834833,50,walking
1783066724101005000,0.836825,1.3743075548954309,0.0167278474390506,-0.6489882243782281,-0.1053194180130958,0.5552751421928406,-0.1965051889419555,1.2881941826716066,-9.710700731807949,-0.4617714891348033,50,walking
1783066724120929000,0.856749,0.9646956573911012,0.2424123335689306,-0.0270101720005273,-0.2525921165943146,0.5795767903327942,-0.2008503526449203,1.3337379363588988,-9.703549106487632,-0.4823560485346242,50,walking
1783066724140854000,0.876674,0.8736497972011565,0.4814817864507436,0.1467524037122726,-0.3792768120765686,0.5967009663581848,-0.1477475762367248,1.3727099104404448,-9.695715928643942,-0.5283281106365845,50,walking
1783066724160778000,0.896598,0.4513483678631484,0.9368512265235184,0.0510199931412935,-0.3953809440135956,0.6393254995346069,-0.17549829185009,1.4092454511553048,-9.687059743979573,-0.5876208786152303,50,walking
1783066724180703200,0.9165232,0.0830614373072981,1.092251631593704,-0.1416413443088531,-0.3611631393432617,0.6368512511253357,-0.2582617998123169,1.4589540694370864,-9.67621277127266,-0.6424598455227911,50,walking
1783066724200627200,0.9364472,0.1254028878219425,0.9987924266517162,-0.3226952460736036,-0.3137236535549164,0.6032900810241699,-0.2870652675628662,1.5209101748734712,-9.663408234757185,-0.6897528540302068,50,walking
1783066724220551000,0.956371,0.2820538774751127,0.7909130618035792,-0.211347917741537,-0.1977141797542572,0.6097341179847717,-0.2221722602844238,1.5795875509001314,-9.65170435295999,-0.7210442835465073,50,walking
1783066724240476200,0.9762962,0.207945269691199,0.7223451370120048,-0.1979296332418918,-0.0851068720221519,0.6257438063621521,-0.1679773777723312,1.6246664635546504,-9.64373848864734,-0.7274293814737349,50,walking
1783066724260400000,0.99622,-0.2304426404424011,0.9045324267208577,-0.2728898163538426,-0.052567321807146,0.5849549770355225,-0.2250506281852722,1.669657113403827,-9.636634209600093,-0.7196566285803914,50,walking
1783066724280325000,1.016145,-0.450187215129286,0.9312602746486665,-0.2235896327424794,-0.0364072620868682,0.5837277173995972,-0.2756058871746063,1.7264464837267994,-9.627450786191224,-0.7085027818813919,50,walking
1783066724300249000,1.036069,-0.5074230140455067,0.6591326017737388,0.0099595954131335,-0.0073325596749782,0.6614604592323303,-0.2742065787315368,1.78862017743662,-9.617338557499648,-0.6914093160003423,50,walking
1783066724320173000,1.055993,-0.5690196385197341,0.5234878675311804,0.105989527625963,0.0229417234659194,0.7571942806243896,-0.2725104987621307,1.8497680352300403,-9.607688685622811,-0.6641377165846526,50,walking
1783066724340098000,1.075918,-0.6042217386737465,0.3800958801627159,0.0742267542708665,-0.0042370250448584,0.7864542007446289,-0.2719614505767822,1.9128025835528968,-9.597472412034868,-0.6325245077680796,50,walking
1783066724360022000,1.095842,-0.5274240379363299,0.1468061797261238,0.134867904651165,-0.0735256820917129,0.8108285665512085,-0.2148004919290542,1.9691820579007264,-9.587591654011607,-0.6089195776337757,50,walking
1783066724379947000,1.115767,-0.7648002770341933,0.0947574280589819,0.2915203556090593,-0.1674788892269134,0.9077844023704528,-0.1903234124183654,2.017117382899672,-9.578339841541649,-0.5975291456999257,50,walking
1783066724399871200,1.1356912,-1.0824933309063314,0.1149164189904928,0.280921731640026,-0.2763711810111999,0.9923053979873656,-0.2235551625490188,2.0674081849835813,-9.567374795413016,-0.6012958412896842,50,walking
1783066724419795000,1.155615,-1.0529065864160656,-0.1526303558349609,0.1239057811319827,-0.3838331699371338,1.0218558311462402,-0.233487382531166,2.123414149843901,-9.553761865124104,-0.6221992939129471,50,walking
1783066724439720200,1.1755402,-1.0007618270285428,-0.3645838382542133,0.0360300023455172,-0.4639407992362976,1.057422161102295,-0.2227362394332885,2.1799057062640785,-9.538582416170836,-0.658671706263721,50,walking
1783066724459644200,1.1954642,-0.9675304424256086,-0.6848708541423082,-0.1133387213449925,-0.5250420570373535,1.0492289066314695,-0.202330082654953,2.2345118873290715,-9.522507479682565,-0.7065254173938185,50,walking
1783066724479569000,1.215389,-0.855645207824558,-0.9182862267851828,-0.365084188991785,-0.5025908350944519,1.0141812562942505,-0.1303362995386123,2.282289975939691,-9.507115264761447,-0.7591429819248616,50,walking
1783066724499493000,1.235313,-0.7200913667358457,-1.1346002425014972,-0.4897077630043029,-0.4100173711776733,0.9590659737586976,-0.0142013765871524,2.311337498986721,-9.49670317634046,-0.8004678027428687,50,walking
1783066724519418000,1.255238,-0.9396316510222852,-1.0173317074269057,-0.4617272846668958,-0.3172797262668609,0.8898105621337891,0.0417579226195812,2.3227323148347434,-9.491717204621434,-0.8262034247629344,50,walking
1783066724539342000,1.275162,-1.1752515479721128,-0.8963321691304444,-0.3737988258451223,-0.2390923649072647,0.8183534145355225,0.0778405591845512,2.3258150832809505,-9.489864270231129,-0.8387146774202585,50,walking
1783066724559266000,1.295086,-1.2272877324186264,-0.8659089738160372,-0.1489448722552508,-0.1800706386566162,0.7629573941230774,0.1165769845247268,2.320390281753242,-9.490957910686731,-0.8413567894268781,50,walking
1783066724579191000,1.315011,-1.246055122861266,-0.7989999221473931,-0.0134768097538501,-0.1231458187103271,0.7215981483459473,0.1502353549003601,2.3068365343056616,-9.494721062612532,-0.8361655043940991,50,walking
1783066724599115000,1.334935,-1.4225804412856695,-0.6108809043020009,0.095527900974825,-0.0563760474324226,0.7075686454772949,0.1336696147918701,2.290628034565598,-9.499981175097822,-0.8208211472027003,50,walking
1783066724619040000,1.35486,-1.5689159347601234,-0.4098264170378446,0.1313164227146655,-0.0008619411382824,0.6643818616867065,0.051915057003498,2.2835849841862914,-9.503963522732258,-0.7939114399019628,50,walking
1783066724638964200,1.3747842,-1.3623014752812683,-0.4948936412096023,-0.0119020347177982,0.0001139196101576,0.5761840343475342,-0.0062163150869309,2.289605413519591,-9.504788867640494,-0.7662137240286916,50,walking
1783066724658888200,1.3947082,-0.9003019495442509,-0.9456658166199922,0.1602344010978937,0.0355970486998558,0.6117071509361267,0.029598195105791,2.2973184721149504,-9.505324289691448,-0.735890262761712,50,walking
1783066724678813000,1.414633,-0.3981934085197746,-1.2174381001859902,-0.0481809703230857,0.0512748733162879,0.5929175615310669,0.0760725662112236,2.2957475695364176,-9.50843569971025,-0.6997079193986951,50,walking
1783066724698737200,1.4345572,-0.0688508333861827,-1.3258119656652212,-0.1092559090107679,0.0659297406673431,0.5665522813796997,0.1466145813465118,2.2822905604615804,-9.514384378981587,-0.6618265170328319,50,walking
1783066724718662100,1.4544821,0.0695676033534109,-0.9933511123806238,-0.0868769770074635,0.0477106273174285,0.5011681318283081,0.1653356701135635,2.258344890598208,-9.522432076358797,-0.6273435249336063,50,walking
1783066724738585900,1.4744059,0.000799918206036,-0.4772451717942952,-0.0504313065331429,0.1069722548127174,0.5177984237670898,0.1203895658254623,2.236880808417499,-9.529768410596253,-0.5918133984016254,50,walking
1783066724758511000,1.494331,0.1849494478985667,-0.2529588620245456,-0.0387011943161487,0.244630292057991,0.5553025603294373,0.0879972875118255,2.2233182931415736,-9.53633259141743,-0.5344107550185173,50,walking
1783066724778435000,1.514255,0.5563885588750243,-0.3741396021068096,-0.127540338242054,0.2664810419082641,0.5614854097366333,0.1028351783752441,2.211308706396073,-9.543092587071657,-0.4581409506127238,50,walking
1783066724798359000,1.534179,1.158256720159948,-0.7392477564960718,0.0011895385781303,0.0965608805418014,0.5001431107521057,0.2253566235303878,2.185994086267054,-9.55162894474864,-0.3977292981393635,50,walking
1783066724818284000,1.554104,1.636970941593498,-0.9914356341481207,-0.0451426255404949,-0.0640239641070365,0.4200482070446014,0.4140969514846802,2.130155586928129,-9.565048398292063,-0.3777330965541303,50,walking
1783066724838208000,1.574028,1.7736675229765473,-0.741162650206685,0.1179740529954433,-0.0137772671878337,0.4594427943229675,0.5909535884857178,2.035507318332046,-9.58592693566978,-0.3702630529344081,50,walking
1783066724858133000,1.593953,1.6749623802050948,0.3272106776714324,0.0185340200781822,0.1293414086103439,0.4727459549903869,0.6268371939659119,1.9205299629345536,-9.610727614927292,-0.3404043961675837,50,walking
1783066724878057000,1.613877,1.5632308748610315,1.1032324598133565,0.2532633613964543,0.2027573138475418,0.5348687767982483,0.6083081364631653,1.8055603524520991,-9.634671969616411,-0.2888768918955698,50,walking
1783066724897981200,1.6338012,1.605222196763754,1.3648779016405344,0.7460895852148532,0.1678448468446731,0.6686522960662842,0.5981352925300598,1.6924914610244333,-9.656747607824206,-0.2304387131859548,50,walking
1783066724917906000,1.653726,1.5349579894483087,1.6596598893940449,0.9867284793704748,0.0314641036093235,0.7932893633842468,0.5447553992271423,1.5842375686630603,-9.67604442896843,-0.1863169551257975,50,walking
1783066724937830000,1.67365,1.3458238032110037,1.9548522115141151,1.159916470065713,-0.1798595190048217,0.9208208322525024,0.4218792617321014,1.4936992196038366,-9.690668582126497,-0.1738042776963673,50,walking
1783066724957755100,1.6935751,1.218237580000609,1.9916104550689455,1.045017002210021,-0.3903869986534118,0.9828210473060608,0.2802415490150451,1.429001414243877,-9.69989350658953,-0.2010611362006515,50,walking
1783066724977679000,1.713499,1.068038689096272,1.8586703036099672,0.7213000118732452,-0.5574642419815063,0.9932947754859924,0.0735622942447662,1.39813895072937,-9.70282429934442,-0.2661024760349653,50,walking
1783066724997603000,1.733423,1.1401654754132031,1.272827394452691,0.3460907712409272,-0.5790295600891113,0.983670175075531,-0.043952215462923,1.4044216842606665,-9.699218968328832,-0.3508793937569484,50,walking
1783066725017528000,1.753348,1.5415635251931843,0.5245961210340261,0.0541232563862577,-0.4963845610618591,0.9261799454689026,0.0179353859275579,1.4163225499346852,-9.694387310388684,-0.4280676281819119,50,walking
1783066725037452000,1.773272,1.563899860163778,0.2478296824425458,-0.1062169797062873,-0.4097537696361542,0.8219240307807922,0.1048580631613731,1.411494399125874,-9.692057406136392,-0.4920341601252556,50,walking
1783066725057377000,1.793197,1.091938327860832,0.6523872191667557,-0.1207610533654689,-0.259547472000122,0.7523614764213562,0.0928074717521667,1.399228499531746,-9.691545949482917,-0.5352497631259262,50,walking
1783066725077301000,1.813121,0.7295920394003391,0.9180833976894616,-0.1685101350773125,-0.0739544928073883,0.6687952876091003,0.0529048219323158,1.3931671536661685,-9.69178618797958,-0.5466083020841702,50,walking
1783066725097226200,1.8330462,0.5521326549962162,1.0665314994037152,0.0955810194015502,0.0746800452470779,0.627712070941925,0.0288794580847024,1.392707134938985,-9.692840080946684,-0.528781991883926,50,walking
1783066725117150000,1.85297,0.3819315711572766,1.0959721134215592,0.5111356778930872,0.1725334376096725,0.6516790390014648,0.0099495202302932,1.3950149734899402,-9.69474854491651,-0.4859964873962104,50,walking
1783066725137074000,1.872894,0.2114936098225414,1.0522709188610315,0.6895008520305156,0.196785032749176,0.6645345687866211,-0.0450381711125373,1.403545047556609,-9.696087100043892,-0.4316756626112386,50,walking
1783066725156999200,1.8928192,-0.1064461122870445,1.008610056310892,0.8677396963745355,0.1568922102451324,0.6847768425941467,-0.1478781104087829,1.426997965466976,-9.694922732439636,-0.3775268699249252,50,walking
1783066725176923100,1.9127431,-0.2613958509802818,0.7078408108413219,1.035855790632963,0.0279278643429279,0.7057308554649353,-0.2392530888319015,1.4706173269629477,-9.689837391999363,-0.3386939389878883,50,walking
1783066725196848000,1.932668,-0.0511728456154465,0.2534802555501461,1.1396966888576745,-0.0754279717803001,0.7361246943473816,-0.2210303544998169,1.5210628812171518,-9.682594581264256,-0.3226754819272086,50,walking
1783066725216772000,1.952592,-0.0203814015105366,0.051584056764841,1.115857548108697,-0.1541795432567596,0.7849500179290771,-0.1639147400856018,1.562845967196673,-9.675975455385446,-0.3215810012213885,50,walking
1783066725236696000,1.972516,-0.3036937546141445,0.0951034650176763,1.029719479835033,-0.2427296638488769,0.8349552750587463,-0.1324226856231689,1.59611373828724,-9.67011445439756,-0.3342041167553514,50,walking
1783066725256621000,1.992441,-0.5266954314008355,0.2555535546928644,0.8341080604076385,-0.3316424190998077,0.8145883679389954,-0.12148118019104,1.6263823275618254,-9.664019060131906,-0.3633480859141796,50,walking
1783066725276545000,2.012365,-0.6839188141144812,0.3675836045920849,0.6454664799928664,-0.3539402186870575,0.7710973620414734,-0.1113149300217628,1.6549173710420726,-9.657534374287724,-0.4045503763310611,50,walking
1783066725296470300,2.0322903,-0.7971557555854321,0.4836562078803777,0.3569459272542968,-0.2947439551353454,0.7198304533958435,-0.1012578755617141,1.6815138476751743,-9.65120283317864,-0.4440349030446261,50,walking
1783066725316394000,2.052214,-1.013811716607213,0.4537538215696811,0.3590256196051836,-0.2073535621166229,0.6887037754058838,-0.0822519287467002,1.70513744597733,-9.645991820532084,-0.4666152028389275,50,walking
1783066725336319000,2.072139,-1.2276131649807094,0.4314835375726222,0.3297925473907962,-0.2266023606061935,0.5854194760322571,-0.1286913305521011,1.7306944965600966,-9.640480948156116,-0.4860140595855191,50,walking
1783066725356243200,2.0920632,-1.5797862883426248,0.1774713671028614,0.3727654642093926,-0.1939342468976974,0.5603875517845154,-0.2093332856893539,1.7686287981569766,-9.632471829223633,-0.5077385462680831,50,walking
1783066725376167200,2.1119872,-1.6168097587049006,-0.3017909897327422,0.2697492533057928,-0.0843323171138763,0.5531452894210815,-0.2627605497837066,1.8216634921215475,-9.622174891614913,-0.515454235211946,50,walking
1783066725396092200,2.1319122,-1.0489116715610027,-1.1783645654261112,0.103424207182601,0.0597845651209354,0.4874643087387085,-0.1740183681249618,1.869973057260364,-9.613796939370037,-0.4984674080431461,50,walking
1783066725416016100,2.1518361,-0.6651265814915299,-1.81679515543282,0.126697494209744,0.2093319594860077,0.461814135313034,-0.0317201018333435,1.89439920411706,-9.61117769678235,-0.4548525765918195,50,walking
1783066725435940900,2.1717609,-0.6802719820447266,-2.040865192103386,0.326053324329853,0.2796528041362762,0.4409480690956116,0.0647447258234024,1.8942820074781772,-9.61410848953724,-0.388602171494998,50,walking
1783066725455865000,2.191685,-0.650391076913476,-2.0911025104343888,0.588287964221835,0.2228469997644424,0.4295856356620788,0.1304019093513488,1.8790657336458565,-9.619536359804869,-0.3225313242161646,50,walking
1783066725475789000,2.211609,-0.5145391296610236,-2.1043600514143703,0.9179133018195628,0.0814034640789032,0.4669154584407806,0.203598603606224,1.8493067013286053,-9.626778586018084,-0.2749204453986138,50,walking
1783066725495714000,2.231534,-0.3848188170313835,-1.8999433942407369,0.8769605291843414,-0.1391005516052246,0.4584385752677917,0.2457588613033294,1.8084712714627384,-9.634871291580795,-0.2628476754900999,50,walking
1783066725515638000,2.251458,-0.220132112699747,-1.5337299089580774,0.5950403610914945,-0.2761969268321991,0.3977315723896026,0.2730574011802673,1.760950372483581,-9.642852353462576,-0.2912757331982255,50,walking
1783066725535563000,2.271383,-0.2514391051113605,-1.0007347928911448,0.2664905803034081,-0.1486980766057968,0.3839085400104522,0.2434175759553909,1.7123510306179524,-9.650618311288952,-0.3221558784998953,50,walking
1783066725555487200,2.2913072,-0.3885293619871139,-0.4532552243977785,-0.1182996316879987,0.1344208568334579,0.3507727682590484,0.159620314836502,1.6752628244563936,-9.657457801920176,-0.3120583724534139,50,walking
1783066725575412000,2.311232,-0.4128131777636706,-0.4887029698759317,-0.3430097198277712,0.3843058049678802,0.301280528306961,0.0415392480790615,1.6579478247791528,-9.662263156375287,-0.2495548622673377,50,walking
1783066725595336000,2.331156,0.0488860498525202,-0.9025982437878848,-0.1532522871255874,0.5149548649787903,0.259087473154068,0.0289231911301612,1.6548878526866435,-9.664808749204871,-0.1523077819502446,50,walking
1783066725615260200,2.3510802,0.8032038035780191,-1.1116495750248432,-0.0554699628540547,0.5951063632965088,0.2381329238414764,0.1772083640098571,1.63783457268551,-9.66884311928749,-0.0371553439804818,50,walking
1783066725635185000,2.371005,1.1436965721488,-0.8504290806114673,-0.2270657113552093,0.606212854385376,0.2098572105169296,0.372774988412857,1.5831491889044642,-9.677624391636252,0.087304289908288,50,walking
1783066725655109000,2.390929,0.870063609277457,-0.0272241070121526,-0.4360124131739139,0.5271611213684082,0.1709041446447372,0.4134747087955475,1.5043858871825038,-9.68844622990191,0.2030263535927049,50,walking
1783066725675034000,2.410854,0.4784026712663471,0.749954443949461,-0.434458753991127,0.4051311612129211,0.2039168924093246,0.3645810782909393,1.4278309091597794,-9.697534960764646,0.299186743784789,50,walking
1783066725694958000,2.430778,0.3838414964318275,1.0725935759216547,-0.5110439810216426,0.2729135751724243,0.2293896228075027,0.3006015121936798,1.3616811514258385,-9.704588386407494,0.370384998813644,50,walking
1783066725714882000,2.450702,0.5416757045201956,1.1597791074216366,-0.6116636521775275,0.2161351591348648,0.312106192111969,0.2556929588317871,1.3057497131064533,-9.710070032688977,0.4241672597425058,50,walking
1783066725734807000,2.470627,0.656051294632256,1.2156073776274918,-0.7242928370136767,0.1637011468410492,0.3399060368537903,0.2063001543283462,1.2581129326626657,-9.7142739141196,0.4694605823326855,50,walking
1783066725754731300,2.4905513,0.5358905452474951,1.36876497220695,-0.7560907547473907,0.0821385458111763,0.3548885583877563,0.0881988704204559,1.2250449949931352,-9.716897248360514,0.501557409947738,50,walking
1783066725774656000,2.510476,0.3440355557441711,1.3929232619076966,-0.8489479021430015,0.0288158413022756,0.3950864374637604,-0.0788190960884094,1.2199766787528992,-9.71651438652277,0.520942530429922,50,walking
1783066725794580000,2.5304,0.2052344032973051,1.204544131821394,-0.8422036885797977,-0.028891947120428,0.4296527504920959,-0.2662212550640106,1.2490936137743294,-9.712190093582867,0.5324534834709018,50,walking
1783066725814505200,2.5503252,0.342553938884288,0.6844301246374845,-0.9972153135281056,-0.135923758149147,0.4092083275318146,-0.3756641447544098,1.3089964399427174,-9.704586048319936,0.5272042577058077,50,walking
1783066725834429000,2.570249,0.6296181918673217,-0.1647615231335163,-1.1154442911326885,-0.1928055137395858,0.3473831713199615,-0.3542429804801941,1.3773216420195995,-9.696356564635035,0.5040249325724319,50,walking
1783066725854353000,2.590173,0.8807108216285705,-0.6706722329199314,-1.2137281397521495,-0.2193023711442947,0.2603157162666321,-0.2213390618562698,1.431489139406383,-9.69008581380248,0.4727226163359359,50,walking
1783066725874278100,2.6100981,0.7083503677986562,-0.6674544399172068,-0.9440145422816276,-0.263159692287445,0.1957041025161743,-0.0667695626616478,1.4554090903066097,-9.688365565881131,0.4333014371821657,50,walking
1783066725894202000,2.630022,0.0066736325450241,0.1385486389905214,-0.6182359432399273,-0.3098641633987427,0.1660044640302658,-0.0516855046153068,1.4630669115833936,-9.6893195056051,0.3833046861413866,50,walking
1783066725914127000,2.649947,-0.5897925235658884,0.8401748131006955,-0.5700795228362083,-0.3494779765605926,0.0886918976902961,-0.1098964810371398,1.4777420642763377,-9.689293786641954,0.3228781648924574,50,walking
1783066725934051000,2.669871,-0.7497429931558668,1.0922568922907114,-0.6189654265582561,-0.3466978371143341,0.0130120497196912,-0.1264894008636474,1.501821735782921,-9.687590489855408,0.2559442893098108,50,walking
1783066725953974300,2.6897943,-0.7629493884705006,0.987996307349205,-0.4806687165021896,-0.2720462083816528,-0.0182432755827903,-0.1064312011003494,1.5240062411926685,-9.68553238828182,0.195608697747346,50,walking
1783066725973899000,2.709719,-0.8491150754034519,1.0988374397248029,-0.6668202336668968,-0.1789699047803878,-0.0936123952269554,-0.1305934935808181,1.5473241345465183,-9.682648357278108,0.1499716214871033,50,walking
1783066725993823200,2.7296432,-0.9210004541799426,0.9792208802193404,-0.6563502775788307,-0.064366340637207,-0.1747535318136215,-0.1483664512634277,1.5741685945913195,-9.678701080957056,0.1228923845720477,50,walking
1783066726013748200,2.7495682,-0.9122538147531448,0.8001865015834569,-0.5469640201866627,0.054361555725336,-0.2169033735990524,-0.150162324309349,1.60342976038903,-9.673995679745078,0.1149600298033561,50,walking
1783066726033672200,2.7694922,-0.9345471873648464,0.6935287923723459,-0.3875824365258216,0.1832170188426971,-0.2328342795372009,-0.1479706913232803,1.6324566790394484,-9.668940734443067,0.1305055903889704,50,walking
1783066726053597200,2.7894172,-0.9290034356325864,0.6033627837568522,-0.2842506568670273,0.2701647579669952,-0.2133391350507736,-0.145436555147171,1.6620777641907334,-9.66332114099562,0.1676834567285142,50,walking
1783066726073521200,2.8093412,-0.8732996685892342,0.2198702468931674,-0.0174503164947032,0.2149804085493087,-0.1825462579727172,-0.1053149402141571,1.6873282330423591,-9.658112466436624,0.2101839337297715,50,walking
1783066726093445400,2.8292654,-0.8507987907066941,-0.0125777420222759,0.0814835021997801,0.0791948437690734,-0.1760035455226898,-0.0700451433658599,1.7052295081749558,-9.654459789147973,0.2323062058245763,50,walking
1783066726113370000,2.84919,-0.9644484046317636,-0.0689420188009738,0.0677799710179679,-0.0166267119348049,-0.1280231028795242,-0.058828130364418,1.7177241019584235,-9.652264324930307,0.2314950355721637,50,walking
1783066726133294000,2.869114,-1.1117280470885336,-0.0813613553911447,-0.1240519298707134,-0.0816754326224327,-0.1087828278541565,-0.0747403502464294,1.7303297549009322,-9.650319620603325,0.2183231270490214,50,walking
1783066726153219300,2.8890393,-1.1995849019788205,0.035854572713375,-0.2203554000616073,-0.1015495732426643,-0.0701689943671226,-0.1028492748737335,1.7484559248305855,-9.6475267750144,0.1962635266605764,50,walking
1783066726173143000,2.908963,-1.11571653220281,-0.1706763001352548,-0.237581260150671,-0.0716935470700264,-0.0077151991426944,-0.0896075069904327,1.7678369171269237,-9.644353405675291,0.1777261821141466,50,walking
1783066726193067000,2.928887,-0.8934504762142896,-0.5636807617098093,-0.5180418770849704,-0.0236791186034679,-0.0182143785059452,-0.0489992275834083,1.7805023374326523,-9.642202365121245,0.1677401918844319,50,walking
1783066726212992300,2.9488123,-0.7805071108624339,-0.8778232834935188,-0.6386123763144016,0.015253928489983,-0.0278480984270572,0.0006524310447275,1.7857726790510118,-9.641251348006724,0.1663561901801265,50,walking
1783066726232916200,2.9687362,-0.6835096487917005,-1.1986790391802786,-0.4573509692788123,0.0109519371762871,-0.0034703202545642,0.0465657003223896,1.780054009143263,-9.64226607800722,0.1688497422952204,50,walking
1783066726252841200,2.9886612,-0.8589305131055415,-1.1213321801275014,-0.2738835948978551,-0.0239245556294918,0.0506024360656738,0.0058961124159395,1.774413226777315,-9.643296590098736,0.1692870925328694,50,walking
1783066726272765200,3.0085852,-0.9163502902865408,-1.2381266679495573,-0.2957856301044114,-0.1082409769296646,0.0688377618789672,-0.030061088502407,1.7773652084507048,-9.64292074252367,0.1594652616226114,50,walking
1783066726292690200,3.0285102,-0.8619302794434129,-1.3005460069835186,-0.4225076194345951,-0.2075023800134658,0.0390059687197208,-0.0739691630005836,1.7862419039979576,-9.641703767949345,0.1314623887903057,50,walking
1783066726312614100,3.0484341,-0.7895351975791156,-1.3409586813926695,-0.6034966392695903,-0.3180397152900696,0.0218833722174167,-0.1246918514370918,1.8069211194112893,-9.638400050228832,0.0815606864886824,50,walking
1783066726332538000,3.068358,-0.4871957801833748,-2.041877584016323,-0.4282534696102142,-0.434719443321228,0.0957372859120369,-0.0630881190299987,1.827051176509261,-9.634943772295117,0.0118121085366874,50,walking
1783066726352463400,3.0882834,0.1087847843676805,-2.700744812852144,-0.5224515102207661,-0.6184924840927124,0.082323744893074,0.1288923472166061,1.8219890708141029,-9.635528878706694,-0.0856754922632127,50,walking
1783066726372387000,3.108207,0.4867904142528772,-2.590135151144862,-0.6383388200700283,-0.7067884802818298,0.035232800990343,0.3627455234527588,1.7751316041797398,-9.642290043404698,-0.2133984753294847,50,walking
1783066726392312300,3.1281323,0.3539684823460877,-1.7416794164329763,-0.6010094255637377,-0.6490112543106079,-0.0190161895006895,0.5216742157936096,1.6879858201682567,-9.654120766451957,-0.3449994323402643,50,walking
1783066726412236300,3.1480563,0.159669606821984,-0.8143500514924525,-0.4942260806789621,-0.5020973682403564,-0.0279329866170883,0.5983028411865234,1.5795681155472994,-9.66776350735724,-0.4579175901856273,50,walking
1783066726432160300,3.1679803,0.3517164656355976,-0.1218044249385595,-0.5807990697711706,-0.2905868589878082,-0.1351394653320312,0.6621607542037964,1.4571030347429217,-9.682900286212565,-0.5372932151196524,50,walking
1783066726452085200,3.1879052,0.7076118243910372,0.2590092481046915,-0.4735761278927325,-0.1252225041389465,-0.1878955513238906,0.7389792203903198,1.319828361210972,-9.700094582119585,-0.5801721335118636,50,walking
1783066726472009200,3.2078292,1.0949283034570514,0.4076531646519899,0.0288829801350831,-0.1002942696213722,-0.2438241392374038,0.8146834373474121,1.166545021359995,-9.718254508188366,-0.6042398588523268,50,walking
1783066726491934200,3.2277542,1.3299962656125426,0.8303472465693951,0.4989309339016675,-0.1412743777036667,-0.3061322569847107,0.7885501980781555,1.0058469482731074,-9.734233583086729,-0.6351013725187629,50,walking
1783066726511858200,3.2476782,1.557334802559763,1.1596043353766203,0.6849339825063944,-0.0503670051693916,-0.2831206619739532,0.70579594373703,0.8570681532997637,-9.74670786473453,-0.6614406595204025,50,walking
1783066726531783200,3.2676032,1.85238932364434,1.1463105540394782,1.0040403372425586,0.1301047652959823,-0.0928218364715576,0.6403650045394897,0.7245198507025837,-9.75780442828834,-0.6562826191700994,50,walking
1783066726551707400,3.2875274,2.1814416836597026,0.941180780160427,1.2061568277150392,0.1142567843198776,0.0431196168065071,0.5989187359809875,0.6037631081860512,-9.76785411313772,-0.6284058204028755,50,walking
1783066726571631000,3.307451,2.3850635371938345,0.7684919711589813,1.1794366516370325,-0.0996874868869781,0.0863173604011535,0.5104406476020813,0.4960587759988382,-9.774130709189176,-0.6250296219680458,50,walking
1783066726591556000,3.327376,2.3657455271311103,0.8095920433104038,1.3471955299556255,-0.3053202331066131,0.1843282729387283,0.3886173069477081,0.4103312612874433,-9.77542776326239,-0.6655962448298931,50,walking
1783066726611480300,3.3473003,2.460611822392046,0.7420867793142795,1.5796680687904356,-0.3693394362926483,0.3942555487155914,0.3388243317604065,0.344494734221138,-9.773314132109284,-0.7307736504003405,50,walking
1783066726631405000,3.367225,2.4897952467784283,0.894057794457674,1.2731179018318652,-0.4179970622062683,0.4348174333572387,0.2915698587894439,0.2889751646382734,-9.769364517700671,-0.8040043063059449,50,walking
1783066726651329300,3.3871493,2.2720549976512787,1.1570996590793132,0.9465052631188184,-0.4457633793354034,0.3887077271938324,0.2179910838603973,0.2466449844363145,-9.763355632674694,-0.8867998592186719,50,walking
1783066726671253200,3.4070732,2.0790448467634617,1.265093000808358,0.8524784874219447,-0.3909722864627838,0.3556462824344635,0.1916698366403579,0.2146002158020623,-9.756427879238128,-0.9676994423169644,50,walking
1783066726691178000,3.426998,1.8982424355417489,1.3134464050889014,0.9967799908507616,-0.2655297815799713,0.4047625958919525,0.2164245098829269,0.1821691147313453,-9.750611886435747,-1.0308975106384604,50,walking
1783066726711102200,3.4469222,1.4334987256631255,1.7297212676137683,1.055254391651228,-0.1119502037763595,0.4501288533210754,0.1672112643718719,0.1519115400411188,-9.74730349254012,-1.0664769927375015,50,walking
1783066726731027200,3.4668472,0.9049814856626092,2.1242612681925297,1.11373697575815,0.0202569272369146,0.4884401559829712,0.0410077385604381,0.1420329100428614,-9.74665058158934,-1.0737839547500014,50,walking
1783066726750951200,3.4867712,0.7915824124325066,2.007504774293303,1.1618601514793931,0.0637596920132637,0.490088939666748,-0.038904458284378,0.1527805870937649,-9.747657712805273,-1.0630990407370031,50,walking
1783066726770875100,3.5066951,0.6987690311133861,1.748167024886608,1.3867330289654434,0.0851688012480735,0.5629433393478394,-0.0869868248701095,0.1758626532645896,-9.748991591757536,-1.0472051599040626,50,walking
1783066726790800100,3.5266201,0.3709016430988907,1.6337667387247086,1.6860300099253651,0.083907164633274,0.709854245185852,-0.1681438684463501,0.2131340522396378,-9.750409641861914,-1.0268763653635975,50,walking
1783066726810724400,3.5465444,0.1575655106822028,1.439465817373991,1.6590360584072767,0.0356597900390625,0.78181391954422,-0.2629218995571136,0.2703980543370358,-9.750638774442672,-1.011105672518909,50,walking
1783066726830649000,3.566469,0.0480900041040033,1.2640724255889653,1.5153614547051488,0.0123420776799321,0.8197891712188721,-0.363527238368988,0.3471027247624471,-9.749121940138936,-1.002253892217204,50,walking
1783066726850573300,3.5863933,-0.0960020943578332,0.93048870575428,1.652577822178602,0.0275728218257427,0.949516236782074,-0.4222376048564911,0.4425628211980685,-9.746388131260872,-0.9911793212994932,50,walking
1783066726870498300,3.6063183,0.0447349580550566,0.2793681455224752,1.591060984942317,-0.0347517281770706,1.040553331375122,-0.383877694606781,0.5418443390853702,-9.742450207290052,-0.9805394154720009,50,walking
1783066726890422000,3.626242,0.0695093703601509,-0.3313514307379722,1.3677251077651975,-0.1327468901872635,1.0583401918411257,-0.291108638048172,0.6284003405101597,-9.736863931590316,-0.9843538591936232,50,walking
1783066726910346200,3.6461662,-0.0410455654852092,-0.6428261946171522,1.1512755560357122,-0.2093177288770675,1.0213652849197388,-0.2068601995706558,0.6967573990300298,-9.730201551091673,-1.004031788609922,50,walking
1783066726930271200,3.6660912,-0.4511823636464774,-0.6167290458083152,0.9425659509085118,-0.1870345771312713,1.0047527551651,-0.1783731281757354,0.7533008317679166,-9.723230543035267,-1.0304032973807304,50,walking
1783066726950196200,3.6860162,-0.7607370461832732,-0.586210573425889,0.8927759379535913,-0.0748301446437835,1.0536012649536133,-0.1400236189365387,0.8054788358379155,-9.71813409667909,-1.0389715115007012,50,walking
1783066726970121500,3.7059415,-0.9018045361269263,-0.6908662951648235,0.7842549190886319,-0.0418209806084632,1.045615315437317,-0.1372887194156646,0.853471517047286,-9.714931501245498,-1.0305584879424423,50,walking
1783066726990045200,3.7258652,-0.9598420068148524,-0.9977619145601988,0.582238162663579,-0.0874081403017044,1.0191220045089722,-0.1168606206774711,0.8999868922457098,-9.711352473714948,-1.0247164839159697,50,walking
1783066727009969200,3.7457892,-0.8537975341312587,-1.3983616535693406,0.4854145958550274,-0.1550242602825164,1.017908215522766,-0.0603181384503841,0.938043285852298,-9.707291215625403,-1.029047718053311,50,walking
1783066727029894400,3.7657144,-0.8158189550012349,-1.755710279873013,0.233316003921628,-0.218431681394577,0.9897429347038268,-0.0234145820140838,0.9665039489220828,-9.702639590427278,-1.046446669686958,50,walking
1783066727049818400,3.7856384,-0.8178813674237578,-1.9966805979400872,-0.1220621990919113,-0.1950297504663467,0.9611852765083312,0.0255051292479038,0.9887675109174102,-9.697946464174985,-1.0689036353625356,50,walking
1783066727069743400,3.8055634,-0.5935484420333057,-2.335319847598672,-0.2816968807309866,-0.1813686192035675,0.886773943901062,0.1551847010850906,0.9915844680342822,-9.695693132290245,-1.086589294983074,50,walking
1783066727089667300,3.8254873,-0.6605267595458776,-2.2651146769940853,-0.3289215732425451,-0.1679852604866027,0.8268943428993225,0.2204851061105728,0.9720722505737096,-9.6957182667315,-1.1038587019529194,50,walking
1783066727109592300,3.8454123,-0.88812036723271,-1.947806969177723,-0.4500087898224592,-0.1369175910949707,0.7444874048233032,0.2038205116987228,0.94797533567138,-9.6963928049922,-1.1187917749296874,50,walking
1783066727129516300,3.8653363,-0.8145561685238033,-1.74033033991158,-0.52610433363989,-0.0758873745799064,0.6914774179458618,0.186424434185028,0.9266347337398676,-9.697669985321165,-1.1255958289213477,50,walking
1783066727149440300,3.8852603,-0.5803402200877666,-1.7945897533655166,-0.565859201727435,-0.0516563653945922,0.5929633378982544,0.2087194919586181,0.9025098348520696,-9.699971832522747,-1.1253451420959084,50,walking
1783066727169365500,3.9051855,-0.4745148700475692,-1.8612562284499403,-0.7372416773706674,-0.0274935029447078,0.5223644971847534,0.200509488582611,0.8755435750585049,-9.702588152500986,-1.1241001835361122,50,walking
1783066727189289200,3.9251092,0.4452149796746671,-2.0532249074608084,-0.571009643293172,0.0498572587966918,0.4640372395515442,0.4072929918766022,0.8323909542914479,-9.707543729081747,-1.1140594126455483,50,walking
1783066727209214200,3.9450342,1.565793126564473,-1.3158330079644918,-1.034473980885744,0.2340118288993835,0.2771046161651611,0.6887916326522827,0.7323413381084799,-9.719192081299424,-1.0822996349651366,50,walking
1783066727229138400,3.9649584,1.0699314440403134,0.3162245887547731,-1.119321936283633,0.4462968707084656,0.1685697585344314,0.7045345902442932,0.5965824759669601,-9.73591116091013,-1.0131634087663144,50,walking
1783066727249062400,3.9848824,0.5573062582418322,1.5369354270011186,-0.978452818456292,0.6043269634246826,0.115628108382225,0.5636485815048218,0.4765398730691522,-9.75278806143105,-0.9090758423041552,50,walking
1783066727268987400,4.0048074,0.8271933856483549,1.5747306123882532,-0.5513870973259211,0.6904067993164062,0.1565057039260864,0.4931394159793854,0.3773893611503764,-9.76828724385798,-0.7800883009284735,50,walking
1783066727288911400,4.0247314,1.2265377908341586,1.2718828070789574,-0.0701641810070723,0.6113514304161072,0.2228351831436157,0.4424695074558258,0.2882436902922578,-9.78087492275238,-0.6494429093431681,50,walking
1783066727308836000,4.044656,1.391039786248654,1.210756430464983,0.1016635541856288,0.4277012646198272,0.2636040449142456,0.3143461644649505,0.2165170457414351,-9.789031341201069,-0.5462368384232744,50,walking
1783066727328760300,4.0645803,1.4001255945019424,1.1876081945896149,0.2799415614962577,0.2115227431058883,0.3184903264045715,0.1634143143892288,0.1733138272983022,-9.793266786813737,-0.4819524727024137,50,walking
1783066727348684300,4.0845043,1.3695317187957463,1.0243804568946362,0.2929940083581954,-0.0421210899949073,0.3725674152374267,0.0064201187342405,0.1597645002975128,-9.7943399690032,-0.4644785926690324,50,walking
1783066727368609500,4.1044295,1.3031541436553,0.8425035483092069,0.1088777233481407,-0.224724605679512,0.4185482263565063,-0.1092907190322876,0.1749659418868832,-9.792777541992068,-0.4912017644217237,50,walking
1783066727388533200,4.1243532,1.430084971696883,0.549350623062253,-0.0662882894217967,-0.1913359314203262,0.4909730851650238,-0.0977915823459625,0.201563496232219,-9.79007120564282,-0.5331603165660053,50,walking
1783066727408458200,4.1442782,1.3557831794284283,0.6929296574354171,-0.1600444314837455,-0.0761789232492446,0.5463051199913025,-0.0990948528051376,0.2242403882687911,-9.78835212676525,-0.5552232414226979,50,walking
1783066727428382500,4.1642025,0.8645053906284272,1.0118950693309303,-0.1302104342341423,-0.1723976880311966,0.5075799226760864,-0.2177302986383438,0.2601707478984258,-9.786344878596068,-0.5745822045503184,50,walking
1783066727448307200,4.1841272,0.5920789905352518,1.187699380004406,-0.0767103147149085,-0.316682368516922,0.4315611124038696,-0.288947731256485,0.3168198147015646,-9.781835876739024,-0.6210499046821146,50,walking
1783066727468231200,4.2040512,0.6180836022224276,1.3417062848895789,0.0527899254232645,-0.3286524713039398,0.4167198240756988,-0.2647656798362732,0.3771560273185372,-9.775580907997488,-0.6827640911214053,50,walking
1783066727488155400,4.2239754,0.4478131429417059,1.6391355722814798,0.0433469742953777,-0.2335766702890396,0.3965401351451874,-0.2406658381223678,0.4317566919581964,-9.769545134964584,-0.7348225604649633,50,walking
1783066727508080000,4.2439,-0.0897365311570465,2.037045926076173,0.1634698028225451,-0.1453484147787094,0.368470549583435,-0.3041487634181976,0.4894185342667624,-9.76433119970858,-0.7672573147974908,50,walking
1783066727528004400,4.2638244,-0.5122939810827374,2.204993093508482,0.1153940464396029,-0.1251042187213897,0.2855066359043121,-0.4096935987472534,0.5639188813146203,-9.75854852465391,-0.7893618868388235,50,walking
1783066727547929300,4.2837493,-0.6807591079745441,1.8576479748249053,0.1520324630070477,-0.0877755433320999,0.2533515393733978,-0.4684070646762848,0.6544228166475892,-9.751330263838172,-0.8084923384401946,50,walking
1783066727567853300,4.3036733,-0.6255493349932134,1.3691297138661145,0.1402870801556855,0.0017523602582514,0.2514327466487884,-0.4837192296981811,0.7515441973589361,-9.743896898967026,-0.8136557856179774,50,walking
1783066727587777300,4.3235973,-0.5254322795972228,0.9227654180258512,0.1087264052439481,0.0902006924152374,0.2281471937894821,-0.4840246737003326,0.8499960229564457,-9.736868607765436,-0.8008005418285727,50,walking
1783066727607702300,4.3435223,-0.555245818580687,0.4175052811026573,0.1309860947817564,0.1024582087993621,0.1947530806064605,-0.4604929089546203,0.9447525742325932,-9.73005191348791,-0.7771211947511881,50,walking
1783066727627626500,4.3634465,-0.7532807388279587,-0.0089408468246459,0.3793692463885992,0.0890480726957321,0.2572696805000305,-0.4112260937690735,1.034450015488267,-9.722741882735493,-0.7540613678116351,50,walking
1783066727647551200,4.3833712,-0.6109833417631685,-0.4377431824892759,0.3124081722717732,0.0280738528817892,0.2528330981731415,-0.3258289992809295,1.108678011868149,-9.7159175896734,-0.7363315767884254,50,walking
1783066727667475200,4.4032952,-0.7015520128954201,-0.4860848963320255,0.3053635875225067,-0.0021446284372359,0.2856808602809906,-0.2582111656665802,1.1696183643907307,-9.709323598235844,-0.7289875707011669,50,walking
1783066727687399400,4.4232194,-0.8638128783196211,-0.5353869796395302,0.2818085974771529,-0.0033232497517019,0.3124255239963531,-0.1982655972242355,1.2178555218804628,-9.703864748308062,-0.722640466696769,50,walking
1783066727707324200,4.4431442,-0.9805025905929504,-0.5662760389000177,0.2265309468913823,0.0248569138348102,0.3761585056781769,-0.1504886746406555,1.2559852729842067,-9.699760820120572,-0.7124040271036326,50,walking
1783066727727248100,4.4630681,-1.0612753324411808,-0.6639613371044397,0.2283072358489036,0.0602922290563583,0.4470309317111969,-0.1107026934623718,1.2870783303841948,-9.697095984825491,-0.6929319955229759,50,walking
1783066727747173400,4.4829934,-1.0996154383599757,-0.8020581406742334,0.0618487726043909,0.0194853786379098,0.4485915005207062,-0.092781089246273,1.312400257036835,-9.695169985198977,-0.6720704823452979,50,walking
1783066727767097300,4.5029173,-1.116390047550201,-1.0555454104870556,-0.038947351096943,-0.0695908814668655,0.4714856743812561,-0.077555775642395,1.3348609490394592,-9.692625561413168,-0.6644990241777151,50,walking
1783066727787022300,4.5228423,-1.065850093010813,-1.2474293338239193,-0.2014589033465832,-0.18416728079319,0.4829601943492889,-0.0546818226575851,1.3540518255911766,-9.68913362764418,-0.6764649909771978,50,walking
1783066727806946300,4.5427663,-0.6937129167675972,-1.401167943161726,-0.4607353510200977,-0.2214894741773605,0.5030544400215149,-0.0075662229210138,1.3687280011974274,-9.68518284419179,-0.7029960011586547,50,walking
1783066727826870300,4.5626903,-0.105867874007672,-1.692580746743083,-0.5400736761510372,-0.2011407613754272,0.5106674432754517,0.1751403510570526,1.3605791815333068,-9.684216629508136,-0.7315468997951596,50,walking
1783066727846795300,4.5826153,-0.0766448482632637,-1.4355086041808127,-0.4876121789645403,-0.0676242262125015,0.5314847230911255,0.1957689523696899,1.3268667354151606,-9.687802086779474,-0.7458502965662628,50,walking
1783066727866719200,4.6025392,-0.7495750892430544,-0.8075392024338245,-0.6351847399532795,0.1460955590009689,0.5945701003074646,-0.01763959787786,1.3174497955113649,-9.690735802143813,-0.72412347179614,50,walking
1783066727886644500,4.6224645,-0.5539448189847171,-1.253686640653014,-0.4569300404530018,0.2938419282436371,0.6462492942810059,-0.1334974020719528,1.343582307894528,-9.691555301833152,-0.662508946339041,50,walking
1783066727906568200,4.6423882,0.4132227814778685,-2.221171490371227,-0.3190139272123575,0.2611217200756073,0.5979106426239014,-0.0652809962630271,1.3735996988870205,-9.692076695358752,-0.5892862910768016,50,walking
1783066727926492200,4.6623122,0.9343646704047918,-2.797055315572023,-0.1915004769772291,0.0689924731850624,0.4405482113361358,0.0459142103791236,1.3802297845512628,-9.693943658274412,-0.5411251944979653,50,walking
1783066727946417000,4.682237,1.095613655372709,-2.91310161537528,0.1173923806499689,-0.1888669729232788,0.3076150715351105,0.1652877330780029,1.3663738392867146,-9.69581295927763,-0.5428118324106559,50,walking
1783066727966340900,4.7021609,1.893560999727249,-2.842933269649744,0.6168126324385405,-0.351475179195404,0.2635830342769623,0.491902232170105,1.3086837207317352,-9.701037415927647,-0.589578588554263,50,walking
1783066727986265900,4.7220859,2.4525775690183043,-1.7759587026536463,0.7090764901161194,-0.422484427690506,0.1575903296470642,0.8623743057250977,1.1782291755434124,-9.713216514021155,-0.6599955752786248,50,walking
1783066728006189800,4.7420098,1.989925424591452,-0.0532294858843088,0.7115251253772527,-0.3998274207115173,0.0729042142629623,0.968161165714264,0.9977390451412648,-9.72768226174712,-0.7396572871450334,50,walking
1783066728026113800,4.7619338,1.368996735136211,1.6821306643992662,1.1258616402506827,-0.2180109024047851,0.1138103008270263,0.8464094996452332,0.821548146302998,-9.739367438843846,-0.8001004307352007,50,walking
1783066728046038800,4.7818588,1.4871882302746176,2.5239848088890318,1.3950649501115082,0.0530633889138698,0.2578745186328888,0.7044959664344788,0.674925579515472,-9.749535197114945,-0.8132738005630672,50,walking
1783066728065962800,4.8017828,1.764801056562364,2.4725422064214944,1.6007126103848217,0.1879473328590393,0.4394985437393188,0.5982289910316467,0.5539831782337278,-9.75974328739643,-0.7815965865995734,50,walking
1783066728085888000,4.821708,1.81315460697338,2.2755320261120797,1.4670003055095673,0.0821973755955696,0.4978225529193878,0.4194098711013794,0.4602894338835031,-9.767287711426617,-0.747393288224563,50,walking
1783066728105811700,4.8416317,1.6813301616713403,2.184964450958371,1.320569388836622,-0.1289310604333877,0.4980828166007995,0.1627656519412994,0.4112020162399858,-9.769495450603962,-0.7471580912292003,50,walking
1783066728125736700,4.8615567,1.864722004864365,1.7625637990295886,1.3341875798225402,-0.2192739844322204,0.5662063360214233,0.0568270720541477,0.4007913160584866,-9.76742741215825,-0.7791817805428057,50,walking
1783066728145661000,4.881481,2.165320423811674,1.1776958723843096,1.130033446042612,-0.2424285858869552,0.536820113658905,0.0859488993883133,0.3964754256207495,-9.76434931988716,-0.8189366486303508,50,walking
1783066728165585000,4.901405,1.8814662189163267,1.091012445187569,0.928344752528146,-0.2457746863365173,0.4629439115524292,0.0851877927780151,0.3871894551528617,-9.76086498490274,-0.8637017460953443,50,walking
1783066728185510000,4.92133,1.2459279893502593,1.378417182171345,1.0036042108476162,-0.0694655030965805,0.4565580487251282,-0.0242327079176902,0.3884139189139008,-9.75812299271822,-0.893620791279897,50,walking
1783066728205433900,4.9412539,0.9429138144981116,1.2165829446613787,1.1797171490788458,0.1471020877361297,0.5275787115097046,-0.0421989224851131,0.4050217201698571,-9.7586455552876,-0.8804418684940785,50,walking
1783066728225358800,4.9611788,0.7651249789439142,0.7447498610436916,1.6120137566000223,0.1790256798267364,0.5933621525764465,-0.012254498898983,0.4197056772237643,-9.76161141935587,-0.8397343758568168,50,walking
1783066728245282800,4.9811028,0.4292503716930747,0.8257721937388182,1.688328349995613,0.0305382348597049,0.5642793774604797,-0.0350417047739028,0.4326622990284114,-9.763328160145878,-0.8127988765276968,50,walking
1783066728265206800,5.0010268,-0.0140739719294011,0.9857213481545448,1.790679886445403,-0.0955438017845153,0.6349250674247742,-0.0435049645602703,0.4508661007715389,-9.762266083872316,-0.8156413334120064,50,walking
1783066728285131800,5.0209518,-0.2925201437687501,0.9941472311943768,1.7665736191928385,-0.1476845890283584,0.7124897837638855,-0.0161433275789022,0.4677457777714356,-9.759918059441446,-0.8340325109533965,50,walking
1783066728305055700,5.0408757,-0.5516857880115509,1.286048695075512,1.361586458879709,-0.1530106663703918,0.7291680574417114,-0.0514133833348751,0.4852466919422149,-9.757033443915844,-0.857457444878295,50,walking
1783066728324980700,5.0608007,-0.9092361474324018,1.5510726734250784,1.2110020027238877,-0.0729340389370918,0.729289710521698,-0.1661682277917862,0.5182331253407523,-9.75390625180602,-0.8735691331803798,50,walking
1783066728344905000,5.080725,-0.7808330548811704,1.2281599852085112,0.904091697216034,0.0639803111553192,0.7387610673904419,-0.1765645444393158,0.5673002308486029,-9.75181717057228,-0.8663830941338092,50,walking
1783066728364829000,5.100649,-0.5957824481630698,0.519555204257369,1.1282049885064362,0.0728370696306228,0.7957299947738647,-0.0969053655862808,0.6064067180300131,-9.751746443423627,-0.8403023119378834,50,walking
1783066728384753700,5.1205737,-0.8196689084276556,0.2906383120775223,1.0583716468889266,-0.1298057436943054,0.7746698260307312,-0.1059845611453056,0.6374101609177887,-9.750278124436736,-0.8343636426039039,50,walking
1783066728404678000,5.140498,-1.0512499783154576,0.0378530530542135,0.986770564946532,-0.3731080889701843,0.7329268455505371,-0.1414544284343719,0.6749114779248834,-9.74424585853517,-0.8743927975881844,50,walking
1783066728424602600,5.1604226,-0.9776476395532488,-0.326728447112441,0.8184966497778892,-0.463741272687912,0.6957733035087585,-0.105903647840023,0.713237993709743,-9.73460475448668,-0.948232452237606,50,walking
1783066728444526800,5.1803468,-0.9235330413974822,-0.7712795560508966,0.7487883227795362,-0.426117867231369,0.6768254041671753,-0.0142536042258143,0.7387306007541715,-9.724900522074105,-1.025169196119532,50,walking
1783066728464450800,5.2002708,-1.046580890525877,-0.9434235906511544,0.5014671743810176,-0.3434904813766479,0.5861368179321289,0.0228997580707073,0.7492509718552232,-9.716908938798309,-1.091188970798254,50,walking
1783066728484375800,5.2201958,-1.225485066910833,-0.9439198497354984,0.3235814543236047,-0.1597135514020919,0.5565489530563354,0.0347200371325016,0.7569697295390069,-9.711474054268002,-1.13342009280622,50,walking
1783066728504299800,5.2401198,-1.0487845380499958,-1.2739356479555368,0.1984919432997703,0.0874744430184364,0.5257661938667297,0.083202414214611,0.7592357747748494,-9.711559394463896,-1.1311832005996256,50,walking
1783066728524224800,5.2600448,-0.6311136911220848,-1.8008172495782375,0.2538800685226917,0.235733300447464,0.4551419913768768,0.1811409890651703,0.7442397195644677,-9.717387662225962,-1.0903542004745452,50,walking
1783066728544149000,5.279969,-0.7125510343588888,-1.9380191501349209,0.4445218828439712,0.2833929061889648,0.409640371799469,0.221393346786499,0.713748135188967,-9.725932787731288,-1.033046797626838,50,walking
1783066728564073700,5.2998937,-0.8060160845197737,-1.9468191271841524,0.6875912190169096,0.3008102774620056,0.4327199757099151,0.2828991711139679,0.6738860803999006,-9.73523896073699,-0.9702564333233982,50,walking
1783066728583997700,5.3198177,-0.7302833826653659,-1.9988205325782296,0.6476555144697428,0.2572700977325439,0.4332713782787323,0.3464292883872986,0.6201501062981783,-9.744738610488175,-0.9087729869000614,50,walking
1783066728603922000,5.339742,-0.9097709118962288,-1.9299965871989728,0.6306061069261283,0.1315256059169769,0.4453012943267822,0.3155903220176697,0.5620131938237697,-9.752212307369708,-0.8653877994861453,50,walking
1783066728623846700,5.3596667,-0.9675550654102116,-1.762675442710519,0.3694833007335663,0.0151332085952162,0.4083507657051086,0.2142027020454406,0.5177444650409743,-9.75627765711248,-0.8469766020700334,50,walking
1783066728643770600,5.3795906,-0.6268146787539124,-1.8966870227932928,-0.0843973620861768,-0.0118961855769157,0.3591953814029693,0.1318995058536529,0.4913926108187064,-9.757837746036053,-0.844702884984389,50,walking
1783066728663696000,5.399516,0.0347763490226119,-2.4793086318165063,-0.1561171019721776,0.0653379037976265,0.4266560971736908,0.1984354257583618,0.4695024487130343,-9.759552148738504,-0.8373272416498512,50,walking
1783066728683619800,5.4194398,1.2507659309007226,-2.952974191558361,-0.4337983173210173,0.2056885063648224,0.4004956483840942,0.4651945233345032,0.4132043325057253,-9.764577283424138,-0.807894957068935,50,walking
1783066728703543800,5.4393638,1.9209201312959192,-1.9790759676665064,-0.835067187763378,0.3827662467956543,0.2800995409488678,0.7099413275718689,0.302545022970438,-9.773460262581706,-0.7472009074576199,50,walking
1783066728723468800,5.4592888,1.4939730681091543,-0.1999935800343751,-0.6516594894140958,0.4629328548908233,0.1778473258018493,0.7298760414123535,0.1613180681487545,-9.782929517194628,-0.662308674526587,50,walking
1783066728743392800,5.4792128,0.6999192971270531,1.3936732034921646,-0.2473416066646575,0.4895884990692138,0.2290322333574295,0.5856423377990723,0.0355495253521949,-9.790138425660134,-0.5677342748843133,50,walking
1783066728763317800,5.4991378,0.4576401249511167,1.959402129903436,0.1021931310176849,0.3963154852390289,0.2887012362480163,0.4545160233974457,-0.062297612350434,-9.794726337972282,-0.4794294570308178,50,walking
1783066728783241700,5.5190617,0.8009544902812689,1.9975135416328904,0.0922439839333295,0.1585786938667297,0.2192210108041763,0.3942507207393646,-0.1421001391933299,-9.796475811988117,-0.4233919645210728,50,walking
1783066728803166000,5.538986,0.9471589047219604,2.038394418075681,0.1917021735617891,-0.1304132044315338,0.1778325587511062,0.3085484504699707,-0.2106425642174668,-9.79530793725252,-0.4218448081443086,50,walking
1783066728823090700,5.5589107,0.4624549413543194,2.4341747741043567,0.2095323196869343,-0.3094702959060669,0.2013222277164459,0.1060439422726631,-0.2510170620406978,-9.79230583282709,-0.4670584896270185,50,walking
1783066728843014700,5.5788347,0.1997105801082216,2.464249594372511,-0.0757925422828644,-0.3851802349090576,0.2010405510663986,-0.1504914760589599,-0.2441529118922538,-9.788859491765498,-0.5375717398000881,50,walking
1783066728862940000,5.59876,0.3716549822168424,1.9363082545638084,-0.3631418227523565,-0.3702885806560516,0.1993618905544281,-0.3244393765926361,-0.1937358713464811,-9.785548759782314,-0.613093758045882,50,walking
1783066728882863900,5.6186839,0.6790037156745791,1.2547153991788624,-0.608666662318632,-0.3253883421421051,0.1573652923107147,-0.4650194942951202,-0.1142713808189146,-9.782261993196606,-0.6816584679670632,50,walking
1783066728902787800,5.6386078,0.9655147186890244,0.539943327769637,-0.7641144867271185,-0.2469649165868759,0.0906208306550979,-0.5082287192344666,-0.0148670071618573,-9.778868259105083,-0.7374987208716571,50,walking
1783066728922712800,5.6585328,1.4212452471591532,-0.1331985101342201,-0.8599280727755277,-0.1894754618406295,-0.0597865879535675,-0.390500009059906,0.0752804052093764,-9.77535411350429,-0.7792023849394172,50,walking
1783066728942636800,5.6784568,1.4901675383463502,-0.2971989857673645,-0.5520732529591769,-0.132548451423645,-0.1350260078907013,-0.188853770494461,0.1295099030156619,-9.772214061912894,-0.8108264804761857,50,walking
1783066728962561800,5.6983818,0.8310447273142635,0.5154442618072033,-0.3662030369538813,-0.0832249075174331,-0.2235481590032577,-0.1261841654777526,0.1541692923726514,-9.770082310581207,-0.8319448179591447,50,walking
1783066728982485800,5.7183058,-0.1689269905162043,1.4497703537672757,-0.0812725080639123,-0.0406565181910991,-0.1952281594276428,-0.2161915153264999,0.1823943748545833,-9.768424021980168,-0.8455831749502569,50,walking
1783066729002411000,5.738231,-0.611782017860189,1.831911476022005,0.0804576845496892,0.0341338329017162,-0.1731082201004028,-0.330412894487381,0.2330492062116041,-9.767193603402376,-0.8473507691446691,50,walking
1783066729022334700,5.7581547,-0.4699876749467104,1.6454811419159172,-0.0992190836429595,0.1525777727365493,-0.1689363718032837,-0.3809109032154083,0.3008971644318662,-9.766762810769675,-0.8307782583978026,50,walking
1783066729042258700,5.7780787,-0.4077895409153774,1.0488853680759669,0.2010561677645891,0.2553195357322693,-0.0179078485816717,-0.3371197581291199,0.3693326767491176,-9.767820795390008,-0.7897303548250347,50,walking
1783066729062184000,5.798004,-0.480835232175514,0.7231611295700073,0.2266091997593641,0.2278953641653061,0.0782160833477974,-0.3558080196380615,0.4368418132027611,-9.7689039144516,-0.7403154587928206,50,walking
1783066729082108000,5.817928,-0.4297883510272949,0.4572112685471773,-0.0235159732092171,0.1340610086917877,0.0787026435136795,-0.3574490845203399,0.5086474047413095,-9.768113056334853,-0.7040218370750546,50,walking
1783066729102033000,5.837853,-0.3427181164700538,0.1925391723752021,-0.036216391763091,0.0317690372467041,0.1093262732028961,-0.336486279964447,0.5767513287503272,-9.765604872906207,-0.6860846869114786,50,walking
1783066729121956900,5.8577769,-0.3619186376329511,0.169900055065751,-0.0259076906513422,0.0027726027183234,0.1515731215476989,-0.3249877393245697,0.6445839980699122,-9.761520233941075,-0.6838234639812261,50,walking
1783066729141880800,5.8777008,-0.0603236088637262,-0.1501116510123014,-0.0226450355935841,0.0876558423042297,0.2293717265129089,-0.1901540607213974,0.6983783512953669,-9.758592363795636,-0.672720689882338,50,walking
1783066729161805800,5.8976258,0.1784179272379726,-0.314314955741167,-0.3909919527083635,0.1120672151446342,0.1649184972047805,-0.0530024655163288,0.7235975482258945,-9.758390703743697,-0.6485406998064368,50,walking
1783066729181729800,5.9175498,-0.1688077297843992,-0.221773450165987,-0.0942997474193572,0.0667057782411575,0.2315334677696228,-0.0442721955478191,0.7330911335624753,-9.75905472061038,-0.6275519069872796,50,walking
1783066729201654800,5.9374748,-0.532039057451114,-0.2365519171029329,0.2676198400616645,-0.0499398000538349,0.407328188419342,-0.1380039006471634,0.753652348619327,-9.757893275615572,-0.621213570811227,50,walking
1783066729221578800,5.9573988,-0.3585875935140997,-0.5762666870385408,0.2191338223773986,-0.206339418888092,0.5298530459403992,-0.2092207670211792,0.79493077301234,-9.753515791183707,-0.6382686774432659,50,walking
1783066729241502700,5.9773227,0.396794793768227,-1.2957885833233591,-0.1397147601604461,-0.3657879531383514,0.4926030933856964,-0.0894495621323585,0.8329270339295267,-9.747167298939823,-0.6850874925676733,50,walking
1783066729261428000,5.997248,0.6551504002697766,-1.4131284300684928,-0.229038984189555,-0.4607445001602173,0.4824533760547638,0.0151573373004794,0.8449665043566376,-9.740558694455029,-0.7602154334619641,50,walking
1783066729281351700,6.0171717,0.2217388903092592,-1.1283113714903592,-0.0354255336463451,-0.4293938875198364,0.631016194820404,0.0142592638731002,0.8513124393172562,-9.733583010223509,-0.8384579992454498,50,walking
1783066729301277000,6.037097,0.3401781496636569,-1.0551888521343469,-0.1042161612778902,-0.3408851325511932,0.6586428880691528,0.0363071784377098,0.8566234052069485,-9.727397599586844,-0.9023962184097616,50,walking
1783066729321201000,6.057021,0.4173040594421326,-0.740702046957612,-0.4238536272160708,-0.2390553504228592,0.5816798210144043,-0.0523626394569873,0.8688310718078166,-9.72195803888142,-0.9481734155267476,50,walking
1783066729341124900,6.0769449,0.3483043191045522,-0.8214666054993868,-0.1511281345784664,-0.1554499715566635,0.627828061580658,-0.1373490393161773,0.8993740210443735,-9.716462364074587,-0.9756432409282774,50,walking
1783066729361049900,6.0968699,0.4980729288328439,-0.9977274277687072,0.0366425082206726,-0.1385562568902969,0.6155810952186584,-0.1813438981771469,0.942937195373699,-9.7107884100914,-0.9908814343314616,50,walking
1783066729380973800,6.1167938,0.7707907496206462,-1.0980658708304163,0.1572742361180484,-0.1545979380607605,0.5778422355651855,-0.1718246936798095,0.990144717554748,-9.704423551234605,-1.007066407065466,50,walking
1783066729400898800,6.1367188,1.0434912539474666,-1.384332543694973,0.4555348597675561,-0.2754762768745422,0.5026502013206482,-0.0657534077763557,1.025547893238813,-9.69782839075327,-1.034781731660664,50,walking
1783066729420822800,6.1566428,1.421746328549087,-1.1775152551203965,0.420883890690282,-0.4850417375564575,0.2701820433139801,0.0917256996035575,1.032310300045833,-9.689765495806933,-1.1014354933939874,50,walking
1783066729440746800,6.1765668,1.539009749057144,-0.5193342549830675,0.5398896248210221,-0.5146928429603577,0.1674112677574157,0.2923488020896911,0.9998914008695632,-9.681759884005784,-1.197546893345192,50,walking
1783066729460672000,6.196492,1.283311232935637,0.1574982541322708,0.8662119022853672,-0.3616172671318054,0.1946499496698379,0.4147546887397766,0.9347668945301324,-9.677741296014188,-1.279810092946887,50,walking
1783066729480595700,6.2164157,1.112209912321344,0.934006358486414,0.648893531832099,-0.1769732534885406,0.1519054174423217,0.4438151121139526,0.8544771138932555,-9.678678284603356,-1.327948831563443,50,walking
1783066729500520700,6.2363407,0.974809639648348,1.4648404971271751,0.932266967473179,-0.0151209430769085,0.179740771651268,0.3616373538970947,0.7804393793884664,-9.682786888965964,-1.3434709564745426,50,walking
1783066729520445000,6.256265,1.0244747841145845,1.5570271979153156,1.1646255245395003,0.1308594346046447,0.314165711402893,0.289663016796112,0.7246390931680798,-9.689231827321647,-1.3281792793184517,50,walking
1783066729540369000,6.276189,1.122420632951334,1.13769119425416,1.253037821355462,0.0869128257036209,0.4062836468219757,0.2155713438987732,0.6841541572403163,-9.696513216501474,-1.2961337434992193,50,walking
1783066729560294000,6.296114,1.2156992936946451,0.7171352934092283,1.0440800136208537,-0.2032660543918609,0.3966052532196045,0.0995907038450241,0.6644971975468099,-9.697187170240282,-1.3013070544838905,50,walking
1783066729580217900,6.3160379,1.1264303069841115,0.3735334529072046,0.9853548529297111,-0.4326651990413666,0.4120028018951416,-0.0350452736020088,0.6686223877180367,-9.688923199763892,-1.3594487161986528,50,walking
1783066729600142600,6.3359626,1.1740585387952625,-0.0110486327588558,0.6203830382712185,-0.5585535764694214,0.4089632332324981,-0.1123291701078414,0.6965610727403313,-9.673795773258805,-1.450123258858174,50,walking
1783066729620066800,6.3558868,1.3681602843120693,-0.3269605023026466,0.4127135167814791,-0.6611618399620056,0.3516303300857544,-0.0739967450499534,0.7272150811359286,-9.65401672155559,-1.562528864071518,50,walking
1783066729639990800,6.3758108,1.3257707568719983,-0.2184837609708309,0.3883399768948555,-0.6647623181343079,0.3158169090747833,-0.0031671016477048,0.7455129543706774,-9.6315611441195,-1.687493798867613,50,walking
1783066729659916000,6.395736,0.9472808506011964,0.2974585134863853,0.3897796543091535,-0.5526137351989746,0.2974390983581543,0.0521239526569843,0.7509563144683837,-9.610753333890438,-1.79996413988024,50,walking
1783066729679839700,6.4156597,0.4340538995172828,0.8452198215305805,0.5732540612190962,-0.4769007861614227,0.2691759169101715,0.0425519160926342,0.7509262846563011,-9.59273486211896,-1.8936567151866848,50,walking
1783066729699764700,6.4355847,-0.1105071511808782,1.2932780618071555,0.8297159629285336,-0.3776702284812927,0.3216249346733093,-0.0292257871478796,0.7605329019133001,-9.57616834272146,-1.972049430030584,50,walking
1783066729719689000,6.455509,-0.4294621147476136,1.3540607395499944,0.9490244793981312,-0.2562797665596008,0.3622373342514038,-0.0986777320504188,0.7866470749221741,-9.562730768999456,-2.0262652966037398,50,walking
1783066729739613700,6.4754337,-0.5081871302857994,1.2166542563319205,0.885932063408196,-0.1925996541976928,0.3654863536357879,-0.1462810635566711,0.825269285717979,-9.551619592398405,-2.0629814545825123,50,walking
1783066729759537700,6.4953577,-0.6269505070280283,0.9274000920891762,1.1279964603222905,-0.1279181689023971,0.443937599658966,-0.1541827172040939,0.8716079161100089,-9.542634906432031,-2.085377556916326,50,walking
1783066729779462000,6.515282,-0.4898848000716417,0.4631050027608871,0.8157260160207748,-0.1156230121850967,0.397428959608078,-0.1083222776651382,0.9148555947493762,-9.535034368300437,-2.101562091258913,50,walking
1783066729799386600,6.5352066,-0.672993077082932,0.1929763947486877,0.9405223162516952,-0.0848471522331237,0.4521902203559875,-0.0424073934555053,0.9469794565018266,-9.529613512295484,-2.1118848939612507,50,walking
1783066729819310800,6.5551308,-0.8167023137070238,0.1168114389568567,1.1370752543129026,-0.1417420804500579,0.4452753365039825,0.0007005521329119,0.9699311468917876,-9.524826278018953,-2.1230371332250533,50,walking
1783066729839234800,6.5750548,-1.0445239579960703,0.1704915912181138,1.1715268283605575,-0.2790085673332214,0.4147249460220337,0.0202904194593429,0.986015654926002,-9.516108134034276,-2.1544963935889303,50,walking
1783066729859159800,6.5949798,-1.165690085031092,0.1145832415133714,1.1438796736307442,-0.3396763205528259,0.4362422525882721,0.0667415186762809,0.9974973453398792,-9.502995554482936,-2.206456005667895,50,walking
1783066729879083800,6.6149038,-1.1258120289552955,0.0407879374623298,0.846615659803152,-0.3268528580665588,0.3766446709632873,0.1204264461994171,0.9977222401369362,-9.490252977287769,-2.2605418161205946,50,walking
1783066729899008800,6.6348288,-1.2043307813316584,-0.0388175141721963,0.7722831801354885,-0.4089014232158661,0.2907461524009704,0.1282664090394973,0.988254154567793,-9.47633843370378,-2.322229626009613,50,walking
1783066729918933000,6.654753,-1.4813986870877445,-0.0799748694688081,1.2164718855023384,-0.5012632608413696,0.3824332356452942,0.0984384045004844,0.9820580033414064,-9.457028168556093,-2.4021999654337765,50,walking
1783066729938857700,6.6746777,-1.407122029260546,-0.3527157058060169,1.1079635799884795,-0.5667824745178223,0.4019707143306732,0.062372226268053,0.9873885507144032,-9.432386479252576,-2.495104166841507,50,walking
1783066729958781200,6.6946012,-0.9363569402005524,-0.7499632117778062,0.4764803249016404,-0.5476633310317993,0.3462221026420593,0.0766497477889061,0.9938176339138298,-9.404742685523628,-2.5948998813286424,50,walking
1783066729978705200,6.7145252,-0.462230923340097,-1.1941121696561574,0.3101984603330492,-0.4265422523021698,0.3485312759876251,0.1307128071784973,0.992845939337462,-9.380778457090258,-2.6806077414914964,50,walking
1783066729998630400,6.7344504,-0.2066978999786078,-1.4249661673784255,0.1095198206439614,-0.2155804187059402,0.3835291266441345,0.2057268321514129,0.9807731511626392,-9.366448318442702,-2.734612303401529,50,walking
1783066730018554000,6.754374,-0.053065308298543,-1.4996639732271433,0.098268943311274,-0.0589737594127655,0.4070812165737152,0.2696310877799988,0.9583726649146528,-9.36417452829182,-2.7502959024846554,50,walking
1783066730038479000,6.774299,0.0893723009545356,-1.464265912109613,0.1796083791315555,-0.1090122461318969,0.4099152684211731,0.3045008778572082,0.9256195653479544,-9.365905297607185,-2.7556197278559207,50,walking
1783066730058403300,6.7942233,0.0255450678840279,-1.3766864128559826,0.4187032587155699,-0.290162056684494,0.4595617651939392,0.2485751360654831,0.896821048625931,-9.3602594006747,-2.7841744989499446,50,walking
1783066730078327300,6.8141473,0.1896945965990424,-1.4290110588550566,0.4535620983898639,-0.4441466629505157,0.5179085731506348,0.2304130345582962,0.8811120959058404,-9.34369931101799,-2.8441727483168244,50,walking
1783066730098252300,6.8340723,0.8183196857757866,-1.5169143832355736,0.0279915842533111,-0.5591935515403748,0.4222568571567535,0.2913947999477386,0.8606142284087837,-9.318943055424093,-2.93036225451678,50,walking
1783066730118176300,6.8539963,1.1576111887980252,-1.3908330116301777,-0.1626324021503329,-0.5211502313613892,0.3831865787506103,0.3475975394248962,0.8246380751423538,-9.29149566105008,-3.026294571574032,50,walking
1783066730138101000,6.873921,1.1466445352341978,-1.141148641231656,-0.0889797214403748,-0.383888840675354,0.3572731614112854,0.4195358455181122,0.7770964987013489,-9.269739171794056,-3.1045866025224327,50,walking
1783066730158025200,6.8938452,1.2450289946839213,-0.7176958499014378,-0.0937315921425819,-0.2605892121791839,0.2742433249950409,0.5076543092727661,0.7099861523069441,-9.25669790391326,-3.159090638387203,50,walking
1783066730177949200,6.9137692,1.0689205864973366,0.0895996069043874,0.1270481708109378,-0.0691659301519393,0.2280900031328201,0.4989030063152313,0.6315611426286399,-9.252508635529876,-3.1878856479778883,50,walking
1783066730197874200,6.9336942,0.9341489818274974,0.5495961222559214,0.252363234218955,0.1969143748283386,0.2274132966995239,0.4682454466819763,0.5572889417808503,-9.262395238772037,-3.17298998440206,50,walking
1783066730217798100,6.9536181,1.1855975854195653,0.4875099606990813,0.2913061283364891,0.306404560804367,0.190849632024765,0.4525389373302459,0.486153687251918,-9.284105550798774,-3.1208032855689525,50,walking
1783066730237723100,6.9735431,1.442565244694054,0.3046779433459043,0.659784928202629,0.2395882606506347,0.1590225845575332,0.4326387643814087,0.4135395558094605,-9.305379809495806,-3.067453680436313,50,walking
1783066730257647400,6.9934674,1.2823197376802562,0.4620616311877966,1.104357664451003,0.132846713066101,0.2362510561943054,0.3383195698261261,0.3523215188566595,-9.319560310539602,-3.031839930741489,50,walking
1783066730277571300,7.0133913,1.2994127651698886,0.5366974777162075,1.0969430042803288,0.0733466371893882,0.3154752254486084,0.2042516022920608,0.318468970148079,-9.327158510583638,-3.0121549870625137,50,walking
1783066730297496000,7.033316,1.483384454077482,0.3166056970268487,1.0125482725426551,0.0900475233793258,0.4471753537654876,0.1264484226703643,0.3119674792995676,-9.332869873967766,-2.9950965924948454,50,walking
1783066730317420300,7.0532403,1.9168707097746431,-0.2174766297549009,0.4216641543477773,0.0436793528497219,0.4481671154499054,0.0749796330928802,0.3205107051087543,-9.337931833532451,-2.9783722521871328,50,walking
1783066730337345000,7.073165,2.083590527369082,-0.5968079552859068,0.1695034569635987,-0.0227242689579725,0.4638353586196899,0.0320898219943046,0.3382940529501065,-9.33897871223688,-2.9731133087456225,50,walking
1783066730357269200,7.0930892,2.3112105116061863,-1.0648048217415809,0.1645899659588933,-0.0492826700210571,0.5274918079376221,0.1077785044908523,0.357725789052993,-9.337102981492876,-2.9767294534161683,50,walking
1783066730377193200,7.1130132,2.6366893970489502,-1.1867436867147685,-0.0399529479429125,-0.0642023459076881,0.4684838354587555,0.2795564234256744,0.3521722100464627,-9.3348741995275,-2.9843726616457102,50,walking
1783066730397118200,7.1329382,2.36892138068825,-0.5472445906937122,0.1364841076761484,-0.0668425858020782,0.4274711012840271,0.3667198419570923,0.3163255283785984,-9.33332638556361,-2.993215601053834,50,walking
1783066730417042200,7.1528622,1.7381189474724232,0.3049959232538938,0.5206564434975386,-0.0363231636583805,0.4514946043491363,0.3310441970825195,0.2763025108741596,-9.332034007665516,-3.0011990010231733,50,walking
1783066730436967200,7.1727872,1.3576865288317204,0.9306775063246489,0.5777323756769299,0.023062091320753,0.4421212077140808,0.2681456208229065,0.2482242347180843,-9.333426338806747,-2.999317425060272,50,walking
1783066730456891400,7.1927114,1.2371288890838623,1.0047492892295122,0.8381646423220634,0.094339832663536,0.5497554540634155,0.2774726748466491,0.2272247378418222,-9.33806744261086,-2.9865120117619632,50,walking
1783066730476815000,7.212635,1.0906620243147014,0.9068617464512586,0.7819789369806647,0.1766814738512039,0.6192300915718079,0.2754242122173309,0.2105865597139112,-9.347619114810229,-2.9577096956476567,50,walking
1783066730496740000,7.23256,0.9682334030631928,0.972398925244808,0.373027256950736,0.2389546930789947,0.6183096170425415,0.1690927743911743,0.2041771310630254,-9.360634079205989,-2.9167171755239365,50,walking
1783066730516664300,7.2524843,0.7285336163885892,0.7060580190777779,0.5981143617093563,0.348174899816513,0.7897102236747742,0.1017259731888771,0.2201687366493977,-9.378155707371237,-2.858689641708136,50,walking
1783066730536589000,7.272409,0.8683999138489366,0.1668243008822202,0.4806017887458205,0.3334431946277618,0.8866969347000122,0.1057790964841842,0.250290738793835,-9.398566042715313,-2.788312329407036,50,walking
1783066730556513000,7.292333,1.185783901771903,-0.3986749084264039,0.3490311720743775,0.219100072979927,0.9528592228889464,0.1793526709079742,0.2739310142361559,-9.414558561617136,-2.7315608068764208,50,walking
1783066730576437200,7.3122572,1.2022503217957914,-0.5351163460046052,0.3830947697177529,0.1367498487234115,1.088409185409546,0.2512031197547912,0.2878410277754999,-9.425061250931025,-2.693648424850404,50,walking
1783066730596362200,7.3321822,1.207013882935792,-0.4510504078298807,0.225482826077938,0.0795682668685913,1.1701321601867676,0.2861474752426147,0.2981906454195268,-9.432662958106398,-2.6657725759312507,50,walking
1783066730616286200,7.3521062,1.4415177814677358,-0.5000894562870264,0.0766226364314556,0.0074954200536012,1.2081871032714844,0.3979098796844482,0.2975703032977879,-9.43659562138021,-2.6518857971370218,50,walking
1783066730636211200,7.3720312,1.324175742765516,-0.2495838326334953,0.0747837305665016,0.0096945036202669,1.302743434906006,0.4659967422485351,0.2799394791370257,-9.439749701496956,-2.64256501108408,50,walking
1783066730656135200,7.3919552,0.8585527658343315,0.2453407882362604,0.1289157182484865,-0.0886114984750747,1.3760433197021484,0.3741808235645294,0.2707623393384739,-9.440571539273858,-2.6405823128342627,50,walking
1783066730676059100,7.4118791,0.7995118171922863,0.3052987055927514,-0.0428901704385876,-0.242088958621025,1.3723689317703247,0.2980223894119262,0.2816197055752389,-9.433191950416564,-2.66569951069504,50,walking
1783066730695984000,7.431804,1.0053954051133245,-0.029241292053461,-0.0338090383604168,-0.2538657784461975,1.4037020206451416,0.3741107583045959,0.2948057887542061,-9.421420264080169,-2.7056059891477227,50,walking
1783066730715908400,7.4517284,0.9996128031238912,0.1561614525705575,-0.2143883083507418,-0.1819483339786529,1.363304853439331,0.4254705011844635,0.2928071988155133,-9.41169615792334,-2.739458282127976,50,walking
1783066730735833000,7.471653,0.528588222877495,0.5416822803914547,-0.0957718657985329,-0.0486029088497161,1.417792558670044,0.3695711493492126,0.2933712441727519,-9.407412196993826,-2.754076882328093,50,walking
1783066730755757000,7.491577,0.392471998665668,0.510329110750556,-0.1323307873889803,0.0822736769914627,1.4174094200134275,0.306934654712677,0.3081312986701727,-9.410623560255765,-2.741459392817318,50,walking
1783066730775681300,7.5115013,0.4257940206941217,0.3932277489364147,-0.0670560589239001,0.1552678048610687,1.4299229383468628,0.2952892780303955,0.3297263502867892,-9.419367423203589,-2.7087211985588078,50,walking
1783066730795606000,7.531426,0.5339726923948154,0.2983995937287807,0.0670794397994875,0.1765192151069641,1.4225921630859375,0.3101238012313843,0.3494876471376046,-9.430333053854108,-2.667780700883269,50,walking
1783066730815530200,7.5513502,0.3970187387172132,0.4726274488657713,0.4179135696426034,0.1529901325702667,1.502700686454773,0.2927677929401397,0.3680784023717046,-9.441604973974824,-2.6250679328382014,50,walking
1783066730835455200,7.5712752,0.2375232098205014,0.6735755531460046,0.7471823488876224,0.0534050948917865,1.6049748659133911,0.243508294224739,0.3982869685547426,-9.449373269888758,-2.592513278453052,50,walking
1783066730855379200,7.5911992,0.3183192594790831,0.6236573837667704,0.8133297685340046,-0.0846619009971618,1.67849862575531,0.2041019350290298,0.4403434646481647,-9.450329547700283,-2.5821955903172493,50,walking
1783066730875303200,7.6111232,0.5620222173804417,0.4586258115202188,0.6485851965352892,-0.1914974004030227,1.666277527809143,0.1981804817914962,0.490229375725612,-9.444961298665405,-2.592826289924979,50,walking
1783066730895228200,7.6310482,0.9489986143045128,0.168822196701169,0.6343821913987397,-0.2513574063777923,1.6503336429595947,0.3003260195255279,0.5298698236532509,-9.435878997543451,-2.617978266838193,50,walking
1783066730915152100,7.6509721,0.9475719425022602,0.2219762792617082,0.6623275984227657,-0.2727167904376983,1.643014430999756,0.3383452892303467,0.5546400712398812,-9.425437098506093,-2.6502625798493624,50,walking
1783066730935077000,7.670897,0.8835589776013046,0.3998807770848274,0.5072971957087516,-0.2373273521661758,1.601850152015686,0.3218847513198852,0.5797471495654434,-9.415247128403186,-2.680933320184052,50,walking
1783066730955002400,7.6908224,1.0329001556977628,0.3244020499914884,0.2266162140220403,-0.1035918071866035,1.508126735687256,0.3432510197162628,0.6006936376128346,-9.40964916226566,-2.6959359512656924,50,walking
1783066730974926300,7.7107463,0.9981011564519257,0.2855442038089036,0.3654442544758319,0.0429054871201515,1.4736180305480957,0.3816143870353699,0.6130467770989984,-9.412540207532048,-2.683031753768027,50,walking
1783066730994851300,7.7306713,0.8525611242040991,0.3510749528616667,0.6412827645674347,0.1466125398874282,1.4785727262496948,0.3788752555847168,0.6192742733117192,-9.422406937029956,-2.6467259301558137,50,walking
1783066731014775300,7.7505953,0.6287744345195591,0.3918021000474691,0.9056403879627584,0.1746686100959777,1.5076102018356323,0.3188027739524841,0.6308749139301478,-9.435301489916442,-2.597593065935373,50,walking
1783066731034699300,7.7705193,0.5046157015398144,0.434811220690608,1.0706108776718375,0.174489140510559,1.5777599811553955,0.2452535927295684,0.6567216681744903,-9.44778337034881,-2.545289462724328,50,walking
1783066731054624300,7.7904443,0.5347054271161555,0.172706929180026,1.163179855775833,0.1264729797840118,1.6043295860290527,0.196911409497261,0.6956148048661649,-9.45861806809604,-2.4942063412189484,50,walking
1783066731074548200,7.8103682,0.6254588071655481,-0.0920820713698863,1.1040595582872628,0.0087995454668998,1.5493414402008057,0.1952757835388183,0.7377398361511528,-9.464673130351304,-2.458878422728181,50,walking
1783066731094473500,7.8302935,0.7714497249860316,-0.2643511936545372,0.9964444022208452,-0.0719203799962997,1.4522613286972046,0.2381782680749893,0.7708650569658726,-9.465684353220462,-2.444786915142089,50,walking
1783066731114397200,7.8502172,0.4751349016420543,-0.054273441979289,1.52980835160017,-0.028197469189763,1.8072624206542969,0.2423471808433532,0.8011242938902229,-9.467316922858355,-2.428681729646027,50,walking
1783066731134321200,7.8701412,0.429714189812541,-0.1462953075945377,0.9881057590730488,-0.1048370078206062,1.807074189186096,0.2378530651330948,0.8474426121465861,-9.468219424656033,-2.409363865713775,50,walking
1783066731154246400,7.8900664,0.6995188996326178,-0.2649935832113027,0.6898620865583419,-0.1696165949106216,1.7229403257369995,0.3134410381317138,0.8796067328441888,-9.466089426890017,-2.406205255552381,50,walking
1783066731174170400,7.9099904,0.5718726898632943,-0.2756424029976129,0.6465314788758755,-0.1669207066297531,1.6551566123962402,0.353105753660202,0.897119739311561,-9.463819728392362,-2.40866419301182,50,walking
1783066731194095400,7.9299154,0.266176509385556,-0.1274760408341884,0.8723090501166879,-0.1337748020887375,1.738067388534546,0.3601971566677093,0.9095259241592138,-9.46294762173295,-2.407441227088124,50,walking
1783066731214019300,7.9498393,-0.4373074214205145,0.3394704397857189,1.5629834759712218,-0.0896561667323112,1.9872119426727293,0.2501861155033111,0.93814448120445,-9.463772966641187,-2.393172755499929,50,walking
