time,seconds_elapsed,acc_x,acc_y,acc_z,gyr_x,gyr_y,gyr_z,grav_x,grav_y,grav_z,fs_hz,activity
1783066653072612000,0.0,0.3052892801772803,0.1614560518473386,-0.298819718836993,-0.0109708737581968,-0.0698633939027786,-0.0160883627831935,-1.0320790485732256,-9.599697686868906,-1.7178459747724235,50,walking
1783066653092537000,0.019925,0.4555113327614963,-0.0430652347445488,-0.5216201739631593,0.0072489138692617,-0.1620482951402664,0.0372405648231506,-1.038499363944307,-9.599431729409098,-1.7154622945062814,50,walking
1783066653112462000,0.03985,0.2421189035803079,-0.0036859950363636,-0.4155775279104709,-0.0192843470722436,-0.0712903887033462,0.0615636743605136,-1.0539029039770365,-9.598110125416516,-1.713465859992057,50,walking
1783066653132388000,0.059776,0.2616047444906085,0.2221235787779092,-0.393629899996519,-0.0494854748249053,-0.0139669468626379,0.0257436987012624,-1.0632134608969093,-9.596021628704667,-1.719402994956076,50,walking
1783066653152313000,0.079701,0.5413606472216547,0.3028904754072427,-0.4514310777105391,-0.085240714251995,-0.0334492065012455,0.0305175390094518,-1.0682347961902618,-9.593291911479833,-1.7314825781978669,50,walking
1783066653172238000,0.099626,0.6727512311510742,0.4406266289710998,-0.4472263194970786,-0.1230972930788993,0.0152040235698223,0.035878550261259,-1.0754259498033671,-9.58887058790624,-1.7513989925451576,50,walking
1783066653192163000,0.119551,0.6906923268374056,0.4982558111190796,-0.4697941251359879,-0.1446484923362732,0.0753479376435279,-0.0093238372355699,-1.0766075608033687,-9.58380161407888,-1.7782115961469709,50,walking
1783066653212089000,0.139477,0.8961259059686213,0.5363076016157865,-0.3753137604527175,-0.1608923971652984,0.160721093416214,-0.0319631434977054,-1.0671616140007971,-9.578907412296534,-1.8099935125939548,50,walking
1783066653232014000,0.159402,1.269710431475937,0.3518313241869211,-0.4543697615109384,-0.1380843222141266,0.1801630854606628,0.0322118178009986,-1.0603674238160252,-9.573248071360588,-1.8436147732973096,50,walking
1783066653251939000,0.179327,1.345898183621466,0.1392635092616081,-0.5801039271138608,-0.088799387216568,0.1892727017402649,0.1020858213305473,-1.0671232547517866,-9.56762906243503,-1.868715312284231,50,walking
1783066653271864000,0.199252,1.1382116379316896,-0.0678396105170249,-0.5461963968150317,-0.053199402987957,0.1989854425191879,0.1277957260608673,-1.082247101060301,-9.56238707012832,-1.8867615488454696,50,walking
1783066653291790000,0.219178,1.0375434514589608,-0.3623497955918311,-0.6019954409264028,-0.0573128573596477,0.1528064906597137,0.1475541442632675,-1.1020371856141835,-9.557425648328662,-1.9003934760957957,50,walking
1783066653311715000,0.239103,0.8923538400840013,-0.4803945757359266,-0.5140335182264447,-0.1132674366235733,0.174111396074295,0.1795160919427871,-1.1275840070638803,-9.55071066085994,-1.919073918907344,50,walking
1783066653331640000,0.259028,0.5889376603022217,-0.4668173012822866,-0.4252981269359588,-0.1336131393909454,0.2677768170833587,0.1978413760662078,-1.1560641785517334,-9.541394550982115,-1.948253690031916,50,walking
1783066653351565000,0.278953,0.4125763002678752,-0.3330307621270418,-0.5611182177454233,-0.0809083506464958,0.2550358474254608,0.1758511513471603,-1.1817136566583066,-9.532576453754306,-1.9758378625281157,50,walking
1783066653371490000,0.298878,0.174344467253983,-0.1494908887654542,-0.3891077463969588,-0.0309705473482608,0.2687476873397827,0.0810921937227249,-1.197416544963792,-9.52742213973105,-1.991177032087743,50,walking
1783066653391416000,0.318804,0.1130125581305473,0.2863186953127384,0.0127422849342226,-0.0406032986938953,0.365560919046402,-0.036047663539648,-1.1883081595525145,-9.525691370415688,-2.0048678499184547,50,walking
1783066653411341300,0.3387293,0.4227028497457504,0.3879705590605735,0.0567740266233682,-0.0140359718352556,0.3982776999473572,-0.1081779673695564,-1.158470947432518,-9.52603974546194,-2.020617938366532,50,walking
1783066653431266000,0.358654,0.8041574510410427,0.6569079114615917,0.1956985131889581,0.0104413609951734,0.3804010450839996,-0.1285120695829391,-1.119443882162869,-9.529071075981856,-2.028310684826225,50,walking
1783066653451191300,0.3785793,1.033041902256012,0.6732768624603748,0.3654126902937888,-0.031603530049324,0.4057121276855469,-0.0729891881346702,-1.0842178896766157,-9.53077554181218,-2.0394085635542867,50,walking
1783066653471117000,0.398505,1.1677695947188884,0.6821814689278602,0.2515308750480413,-0.0258554127067327,0.3682273924350738,-0.020989429205656,-1.0597312448043377,-9.5302529792428,-2.0546638542227447,50,walking
1783066653491042000,0.41843,1.11383320267424,0.6918874549061059,0.1967190884083509,0.0391060411930084,0.3189390897750854,0.0050500240176916,-1.045299180152267,-9.530531796184182,-2.060754718443752,50,walking
1783066653510967000,0.438355,0.975426164111495,0.6437380487650632,0.3565818797148763,0.066434271633625,0.3274316489696502,0.004751059692353,-1.0334854813050478,-9.53280967798829,-2.0561656370878216,50,walking
1783066653530892000,0.45828,0.8598381294697522,0.3581394844204187,0.3245313754595816,0.0842635855078697,0.3166263103485107,-0.0310223158448934,-1.0178553659748286,-9.536011688899992,-2.0491049049213528,50,walking
1783066653550818300,0.4782063,0.8572343036469071,0.1484527778893709,0.1912112847723066,0.1359670460224151,0.2294623255729675,-0.0772300660610199,-0.9962475644744933,-9.541653494179249,-2.033399386267364,50,walking
1783066653570743000,0.498131,0.9916026612780988,-0.1247118368178605,0.274106425601989,0.1390818208456039,0.2000570893287658,-0.0463567003607749,-0.9743943368457256,-9.548760111314058,-2.0105010334998368,50,walking
1783066653590668300,0.5180563,1.1233744996100663,-0.3308808906167745,0.2531996850430965,0.1140121594071388,0.1115131303668022,0.0370491482317447,-0.9668535660773516,-9.554029576149585,-1.9889957425259053,50,walking
1783066653610593000,0.537981,0.8204857777684926,-0.6751829883426428,0.2683750423431396,0.0433807671070098,0.0653151422739029,0.0785766914486885,-0.9764081608861684,-9.555839255920052,-1.975590317507833,50,walking
1783066653630518300,0.5579063,0.4302413554918021,-0.7753601033627986,0.2868681458890438,-0.0245953910052776,0.0938928425312042,0.0354427807033062,-0.984499039817974,-9.55502150979638,-1.9755286504484717,50,walking
1783066653650444000,0.577832,0.342561537668854,-0.93229780100286,0.1806330460041761,-0.0556208007037639,0.0753658339381218,-0.0381197072565555,-0.9813644681192932,-9.553108369651437,-1.986310448964685,50,walking
1783066653670369000,0.597757,0.6177526167023927,-0.8739794675469398,0.2258943294882774,-0.0524275042116642,0.0830342769622802,-0.0705164521932601,-0.9668571462739258,-9.55217021201849,-1.9979029793418943,50,walking
1783066653690294000,0.617682,0.8501351391661912,-1.008932712393999,0.2547419460490346,-0.0334834679961204,0.1468466818332672,-0.015851629897952,-0.952786389214918,-9.55114145349264,-2.009541833078861,50,walking
1783066653710219300,0.6376073,0.949750455585122,-1.1186644222229718,0.1371428638458252,0.0557456202805042,0.1777066588401794,0.0790927112102508,-0.9524439324527978,-9.550796001055836,-2.0113541431978343,50,walking
1783066653730145000,0.657533,0.7090416379984468,-1.0929296769857406,0.0635901363790035,0.2092268168926239,0.1800676882266998,0.1041038185358047,-0.9638744772013276,-9.554085105729104,-1.990173992525041,50,walking
1783066653750070000,0.677458,0.285839241232723,-1.0233487757593394,-0.1132223284237086,0.3881855905056,0.1242758631706237,0.0496099852025508,-0.9737232326511291,-9.564259293740989,-1.9357652337282896,50,walking
1783066653769995000,0.697383,-0.0912367796521633,-0.6550450401991605,-0.0788056795589625,0.5062358975410461,0.17725570499897,-0.0168567653745412,-0.9714894091844558,-9.581064298069476,-1.8519683217532927,50,walking
1783066653789920000,0.717308,-0.0186026283349841,-0.549693737411499,0.1229734687179326,0.5190406441688538,0.3398058414459228,0.0012658776249736,-0.95957846050784,-9.600075288009643,-1.7573153769820928,50,walking
1783066653809846300,0.7372343,-0.0653841071236878,-0.6042687926858663,-0.0904174991585314,0.4529029726982116,0.3306664526462555,0.004272676538676,-0.9493086301017551,-9.616578679043052,-1.670517675755918,50,walking
1783066653829771000,0.757159,-0.124685314137116,-0.2729033334225416,-0.1321006318949162,0.3576487600803375,0.1950483620166778,-0.0177297089248895,-0.9393875400681048,-9.630112698876856,-1.596512674476951,50,walking
1783066653849696300,0.7770843,-0.1857047232452779,0.0669119742780923,-0.102169604011625,0.2152255326509475,0.076609194278717,-0.0379380695521831,-0.928646365823224,-9.639976505765318,-1.5423473690472542,50,walking
1783066653869620200,0.7970082,-0.2320824435386806,0.1128378591507673,-0.0512748446851968,-0.0039182063192129,0.1472916305065155,0.0454727262258529,-0.9246161604590714,-9.643406480214,-1.523211729814112,50,walking
1783066653889545200,0.8169332,-0.4513107392664998,-0.2647141817480326,-0.3553651974014937,-0.183873102068901,0.1879429817199707,0.144741028547287,-0.9395706415500492,-9.638152212947606,-1.5471271506696938,50,walking
1783066653909471200,0.8368592,-0.8990409166324883,-0.0241343243032693,-0.7280337040424346,-0.251129537820816,0.1227942481637001,0.1165897697210311,-0.9612537733089178,-9.62853858142793,-1.5929951678752898,50,walking
1783066653929396500,0.8567845,-1.5114949885353446,0.113925654387474,-0.625423370525986,-0.2743035554885864,0.2189102321863174,0.0244148317724466,-0.9703945266198366,-9.618458501440283,-1.6474220468506215,50,walking
1783066653949321200,0.8767092,-1.9260247609585524,0.2798971378326416,-0.8012525233797728,-0.1752656400203704,0.2701593041419983,-0.1182576268911361,-0.953750923398137,-9.611297523769736,-1.6981440799586474,50,walking
1783066653969246500,0.8966345,-1.7170983712755143,0.767477825680375,-0.951225788834691,0.1242118626832962,0.2125159054994583,-0.2356093823909759,-0.9102386755384504,-9.61345440954268,-1.7097800110861658,50,walking
1783066653989172200,0.9165602,-1.341428344731033,0.8120055341929197,-0.8493804483413696,0.4019918739795685,0.1704336255788803,-0.2542989552021026,-0.8561495771501213,-9.627156771680712,-1.6598923829756675,50,walking
1783066654009097200,0.9364852,-1.200344415109232,0.8139975847929716,-0.5491108229570091,0.5176401138305664,0.1290967762470245,-0.2459142506122589,-0.8028541133575141,-9.646506199795008,-1.5718525727339088,50,walking
1783066654029022200,0.9564102,-0.9862793473634868,0.5417430706679821,-0.3453488302998244,0.4525891840457916,0.0508062243461608,-0.182207703590393,-0.757896488995105,-9.665147187379002,-1.4767878322914243,50,walking
1783066654048947500,0.9763355,-1.017765130408108,0.1537754342168569,-0.1932293465964496,0.2220789194107055,-0.0604143813252449,-0.1210458055138588,-0.7301516460444778,-9.67701122817397,-1.4116335153356194,50,walking
1783066654068873500,0.9962615,-1.1048279853764922,0.3585544949620962,-0.0250572843670845,-0.0284194238483905,-0.1668338179588318,-0.1695332676172256,-0.7063855705317109,-9.681875034818052,-1.3902151719927789,50,walking
1783066654088798200,1.0161862,-1.089782903392613,0.4745522794485092,0.1921111562214791,-0.3279666006565094,-0.1575323045253753,-0.2050147503614425,-0.6742949534617364,-9.67966028137803,-1.421234433504194,50,walking
1783066654108723500,1.0361115,-0.9625391369443386,0.6358136855065822,0.2966227933146059,-0.6047624349594116,-0.0591019466519355,-0.1991993486881256,-0.6379845998048782,-9.668387776735424,-1.5118300657086077,50,walking
1783066654128648200,1.0560362,-0.6652089990779757,0.898959010502696,0.0867636528261005,-0.6843468546867371,-0.1196884587407112,-0.189419612288475,-0.6028199821170419,-9.65006476905942,-1.6380565448731184,50,walking
1783066654148574500,1.0759625,-0.3503920486314222,1.0786755261838437,0.1507879428386688,-0.579396665096283,-0.1984227001667022,-0.1406468451023101,-0.5766129066603258,-9.630314943450689,-1.759242399521917,50,walking
1783066654168499200,1.0958872,-0.1674838973021134,0.9596171850830316,0.3710749538391828,-0.4041789174079895,-0.1970856487751007,-0.0556926243007183,-0.5646929344270378,-9.613608723321557,-1.8520387566410004,50,walking
1783066654188424400,1.1158124,-0.070902980143018,0.727253367319703,0.5577164464779197,-0.2065004855394363,-0.1686007976531982,0.0059207370504736,-0.5677502761710435,-9.602408699393273,-1.908345311883092,50,walking
1783066654208349200,1.1357372,-0.1102594600301235,0.555173045605421,0.7737848168700933,-0.02469003200531,-0.1434806883335113,0.0040087676607072,-0.5758289532084018,-9.597773440808057,-1.929137193890661,50,walking
1783066654228275200,1.1556632,0.2445158817194402,0.4062175788909196,1.0618220065385102,0.093873955309391,-0.0685918480157852,0.0259623955935239,-0.5814998019190505,-9.59935340347588,-1.919544459028542,50,walking
1783066654248200400,1.1755884,0.6981061102252453,0.0037017771273851,1.0225599634692073,0.1429378390312194,-0.0550190471112728,0.1136542707681655,-0.5966519610065967,-9.603104864963887,-1.8959952411368488,50,walking
1783066654268125200,1.1955132,0.8666662219241261,-0.1510363646417856,0.9652848554559053,0.1552718132734298,-0.0981025472283363,0.1951907724142074,-0.63038837252222,-9.60683119201064,-1.865953738616407,50,walking
1783066654288050400,1.2154384,0.6370704806346446,0.1057762502014637,0.9850054549701512,0.0917107611894607,-0.1549924165010452,0.1871185451745987,-0.6734324183482676,-9.609110242858527,-1.8389869673661887,50,walking
1783066654307975200,1.2353632,0.4985485835205763,0.4599304643779993,1.0953386378236114,-0.0232593119144439,-0.1249722391366958,0.1098007708787918,-0.7075921698424965,-9.60847369852066,-1.829460867999494,50,walking
1783066654327901400,1.2552894,0.7426027660124004,0.479955599796772,0.9479314234644174,-0.1856415420770645,-0.0105494689196348,0.1089466288685798,-0.7289857440702616,-9.60321066342592,-1.8486000143639745,50,walking
1783066654347826200,1.2752142,0.8766955215726048,0.3296241685539484,0.5533262486949563,-0.2486853003501892,0.1258422583341598,0.1563946008682251,-0.7529451501980423,-9.59263958505094,-1.893330113580823,50,walking
1783066654367751400,1.2951394,0.8158947967164218,0.2557178053438663,0.0640007630065083,-0.1439058482646942,0.1701293438673019,0.1234440505504608,-0.7754925706360488,-9.582478841042516,-1.935218851891905,50,walking
1783066654387676200,1.3150642,0.7989794638812542,0.1295458328455686,-0.1810769903793931,0.0149591788649559,0.1826201975345611,0.0533417537808418,-0.7852129504658282,-9.578862404111026,-1.949164229005575,50,walking
1783066654407602400,1.3349904,0.7833850043863058,-0.3007183920651674,-0.2010946731440722,0.1000972539186477,0.2824924886226654,0.0514000728726387,-0.7857791329812258,-9.580600187689065,-1.9403690742619333,50,walking
1783066654427527200,1.3549152,0.7193445669565349,-0.8183703930497169,-0.2670937703609466,0.1036653444170951,0.3776732981204986,0.0838144421577453,-0.7853347502145915,-9.58368763231039,-1.925246908453852,50,walking
1783066654447452400,1.3748404,0.5842162578035146,-1.007132969495654,-0.4212115882746875,0.1098054125905036,0.3257758319377899,0.0642589926719665,-0.7872744861055165,-9.586310966551304,-1.9113395252630117,50,walking
1783066654467377200,1.3947652,0.2781475907515734,-0.93309976503551,-0.3835176713049411,0.1105635985732078,0.3301965892314911,-0.0063798488117754,-0.7812291415266692,-9.590164719370009,-1.8944154245994984,50,walking
1783066654487303200,1.4146912,0.0835699713513255,-0.9503151037305592,-0.3069891428977251,0.0995395854115486,0.4393071234226227,-0.080503761768341,-0.7578370869580656,-9.594796470823884,-1.8804132027320564,50,walking
1783066654507228400,1.4346164,0.0705506961066275,-1.13356914588809,-0.5513990800246596,0.1395608782768249,0.4876466393470764,-0.155532881617546,-0.718182172113657,-9.600832828378676,-1.8650979985699057,50,walking
1783066654527153200,1.4545412,0.2429481209460645,-1.0226952802866696,-0.4941881232887506,0.2012107074260711,0.5585111379623413,-0.1808104813098907,-0.6653750763598829,-9.609505379655957,-1.839859658547491,50,walking
1783066654547078400,1.4744664,0.5444564212799072,-1.073340594896674,-0.58806920690462,0.2669316530227661,0.5675951242446899,-0.1083934679627418,-0.6156838476043194,-9.619911038336156,-1.8023913670271636,50,walking
1783066654567004200,1.4943922,0.4154836756145581,-1.2751496999204155,-0.7770756751090288,0.3438566029071808,0.5517221689224243,0.0083681941032409,-0.5866690577831118,-9.63133668771386,-1.7503035985238848,50,walking
1783066654586929400,1.5143174,0.199900641053915,-1.057014313995838,-1.009424441433698,0.4619369506835937,0.46646448969841,0.0987067744135856,-0.5793816407212987,-9.64446972553134,-1.678964747714251,50,walking
1783066654606854100,1.5342421,-0.1584678298167884,-0.9057073157191275,-1.1608680717021227,0.5381032228469849,0.444912850856781,0.1701872944831848,-0.5915158767597749,-9.659156422531604,-1.5878249256305397,50,walking
1783066654626779400,1.5541674,-0.4749745965138077,-0.2619271813780069,-1.198417173373699,0.6229128837585449,0.5163991451263428,0.2025591284036636,-0.6127411452159285,-9.674608258685469,-1.4821907142482698,50,walking
1783066654646705400,1.5740934,-0.390468805617094,0.3570861759752035,-1.3360190330334007,0.738172173500061,0.5426290035247803,0.2721630334854126,-0.6418811688520014,-9.691032154741883,-1.3573084892995655,50,walking
1783066654666630100,1.5940181,-0.558841504985094,0.3922282165050506,-1.6237980101570486,0.8234086632728577,0.5547084212303162,0.3621249496936798,-0.6912308176282793,-9.706718384173511,-1.213330810997635,50,walking
1783066654686555400,1.6139434,-1.066564086499065,0.6495750843554735,-1.585937650579214,0.8256611824035645,0.6405056715011597,0.2614108026027679,-0.7404595434386283,-9.721054952561854,-1.0598051137581468,50,walking
1783066654706480400,1.6338684,-1.140821674299613,0.8260662082493305,-1.3810199120156466,0.7114695310592651,0.7372999787330627,0.1165464892983436,-0.763017412205413,-9.73354267821312,-0.9199571556720882,50,walking
1783066654726406400,1.6537944,-0.6962935078453272,1.049970240703225,-1.217082637811825,0.5258471965789795,0.8878564238548279,0.0651323646306991,-0.7644687069922685,-9.74301660900116,-0.8121531259700655,50,walking
1783066654746331100,1.6737191,-0.1881877722326666,1.262226505461335,-1.337310095757246,0.3501845300197601,0.928730309009552,0.0760468095541,-0.7632082586023956,-9.74877473413646,-0.7411559282049536,50,walking
1783066654766256400,1.6936444,0.0676800360411405,1.3525076648890972,-1.3664496810019016,0.1710237115621566,0.989430844783783,0.1380784064531326,-0.7697795267514884,-9.750917006862164,-0.7052826507911085,50,walking
1783066654786181000,1.713569,0.0818605370849371,1.5078782593429088,-1.3844757515579462,0.0191832184791564,1.1255995035171509,0.18508380651474,-0.7868032153319567,-9.749617614701387,-0.7044656353197991,50,walking
1783066654806106400,1.7334944,0.2201239293932914,1.5028858578830957,-1.7421832743018864,0.0063867610879242,1.1401937007904053,0.2457827031612396,-0.8123894189439713,-9.746121004757285,-0.7235451604515314,50,walking
1783066654826032400,1.7534204,0.257599235176295,1.3932698833882808,-2.022454944535345,0.099286213517189,1.1325209140777588,0.3096830546855926,-0.8498647977922111,-9.742298231598737,-0.7319243548054247,50,walking
1783066654845957400,1.7733454,0.1566888374455273,1.1850205161839722,-1.7852233746051789,0.0806872397661209,1.2919129133224487,0.3773107826709747,-0.8984423662174492,-9.737857034280896,-0.7330277129374444,50,walking
1783066654865883000,1.793271,0.37889680657126,0.8862024047821759,-1.9505343483150004,0.0579480603337287,1.3133392333984375,0.4768924415111542,-0.9615855625465513,-9.730831665688752,-0.7460852013006806,50,walking
1783066654885807900,1.8131959,0.5262061135139317,0.445659946963191,-2.4147516962319613,0.1054004281759262,1.153293490409851,0.5872625112533569,-1.0466456993903963,-9.72139572882354,-0.7545726783346385,50,walking
1783066654905734100,1.8331221,0.0882973651994019,0.2612731013834476,-2.1618781744033098,0.0621191635727882,1.1847234964370728,0.6173164248466492,-1.1478813104875385,-9.709391402775047,-0.7618914769154042,50,walking
1783066654925659000,1.853047,-0.3840319044373929,0.3186041773676872,-1.8106442315876483,-0.0373505130410194,1.3068914413452148,0.5021514892578125,-1.2384889253906906,-9.69609469882846,-0.7888601478617638,50,walking
1783066654945584000,1.872972,-0.2840308766365051,0.6969774715214967,-1.5430810901492833,-0.1215552687644958,1.3977988958358765,0.3505673706531524,-1.2979380164422094,-9.68406348477304,-0.8394489099789411,50,walking
1783066654965508900,1.8928969,0.2754264221593737,0.9350017992645502,-1.367165135794878,-0.1584899574518203,1.391139030456543,0.282915711402893,-1.3336632636874914,-9.673387776979803,-0.9040343410056084,50,walking
1783066654985435100,1.9128231,0.7154314121007919,1.170287641954422,-1.1666460705816746,-0.1841164380311966,1.380458950996399,0.3143274784088135,-1.3636615115880966,-9.66237129292488,-0.9743692024044692,50,walking
1783066655005359900,1.9327479,0.9992432391591368,1.0193243425488472,-1.198645136910677,-0.1766355037689209,1.4160155057907104,0.4419168829917907,-1.4070058555349707,-9.64832640095949,-1.0490613822299986,50,walking
1783066655025285000,1.952673,1.0253644994959237,0.7608119380503893,-1.5508131457060574,-0.003935751505196,1.3737794160842896,0.5770834684371948,-1.47592347054705,-9.631329088929297,-1.108845769650489,50,walking
1783066655045209900,1.9725979,0.5103799641549587,0.3945762409359216,-1.552656727746129,0.1981199979782104,1.3867921829223633,0.546577513217926,-1.5552994973398744,-9.616292847838997,-1.1306450020696968,50,walking
1783066655065135900,1.9925239,0.4105756279699504,0.2037140618622303,-1.2742945443958045,0.2925053238868713,1.4653112888336182,0.4600790143013,-1.618150798050314,-9.606192309585213,-1.1282868946362286,50,walking
1783066655085061000,2.012449,0.7712379088662564,-0.2983054857045412,-1.3417204595454035,0.334877610206604,1.4494922161102295,0.4870621860027313,-1.6750491817057132,-9.597828970387578,-1.1163765304815023,50,walking
1783066655104985900,2.0323739,0.7478584945835173,-0.348228331258893,-1.3635229799002409,0.3788418769836426,1.3511111736297607,0.4673219621181488,-1.7375616058506071,-9.589204934427142,-1.0947235015999526,50,walking
1783066655124911000,2.052299,0.4121940229520201,-0.1978425394803285,-0.9660990944482386,0.3233554363250732,1.4182184934616089,0.3741949498653412,-1.7888602698028089,-9.582023498490452,-1.074808256296441,50,walking
1783066655144836900,2.0722249,0.3905146905854344,-0.1825917788565158,-0.9454220709919928,0.2737047374248504,1.449564814567566,0.260719895362854,-1.8185064893953504,-9.576772738355398,-1.0718425383586436,50,walking
1783066655164762000,2.09215,0.5282791934609413,-0.2599818925291299,-1.21456692866385,0.3296597599983215,1.3140782117843628,0.1435276418924331,-1.827283377829939,-9.575697802600263,-1.066508629984781,50,walking
1783066655184686800,2.1120748,0.8066419613331556,0.0666202978551387,-1.110054999309778,0.4424807131290436,1.2213668823242188,0.0670163854956626,-1.819838030260056,-9.580279869693516,-1.0376933082584292,50,walking
1783066655204612000,2.132,1.180453646659851,0.1537181510716676,-0.8680302037537098,0.4441155791282654,1.1675478219985962,0.0990475267171859,-1.8098295542038976,-9.586723054483532,-0.9948082523863762,50,walking
1783066655224536800,2.1519248,1.2650054686553776,-0.0047089083433151,-0.7402424666218459,0.4029068052768707,1.07941734790802,0.172385573387146,-1.814175328323245,-9.589903438085315,-0.955450859183818,50,walking
1783066655244462800,2.1718508,0.9491171261176466,-0.1788432399779558,-0.8455161741286515,0.4246426820755005,0.8592318892478943,0.1528307497501373,-1.8289865284860132,-9.59129518470466,-0.9122768303025514,50,walking
1783066655264387800,2.1917758,0.4240906508423387,-0.400711382690072,-0.7198018822699784,0.4100836813449859,0.7092152833938599,0.0282826330512762,-1.8341259372010823,-9.595230186066033,-0.8590249133907258,50,walking
1783066655284313000,2.211701,0.0822602039270102,-0.7174152793943882,-0.5769353800803423,0.2676642835140228,0.7108755707740784,-0.1349554657936096,-1.8120707572594283,-9.602940614312889,-0.8187346232522279,50,walking
1783066655304238000,2.231626,0.2898576830938458,-0.859046102309227,-0.5222890131354332,0.0931746140122413,0.738123893737793,-0.237598106265068,-1.763189821973443,-9.612743046402931,-0.8103835590142756,50,walking
1783066655324163800,2.2515518,0.7421974000819027,-1.0241220982193946,-0.7209475451737641,-0.0586331151425838,0.6961289048194885,-0.2037568092346191,-1.707060522994399,-9.62094739564657,-0.8328895514633506,50,walking
1783066655344089000,2.271477,0.8725937122769654,-1.1630763954013583,-1.030754595036432,-0.1151132136583328,0.5711261034011841,-0.128765195608139,-1.6658222114160657,-9.624597150325776,-0.873234056007117,50,walking
1783066655364013800,2.2914018,0.5169128730550409,-0.6838052707374096,-1.1016472364485264,-0.0774609148502349,0.499558687210083,-0.1896603852510452,-1.6272238929525016,-9.6278716419518,-0.909182882875204,50,walking
1783066655383939000,2.311327,0.4595248061865568,-0.5624468360006809,-1.0497755218487232,-0.0890515744686126,0.5151174068450928,-0.2486552149057388,-1.5743249541968107,-9.633709262064098,-0.939955622279644,50,walking
1783066655403864800,2.3312528,0.6795815155625343,-0.8395710019886493,-1.1742910323768854,-0.1540038436651229,0.5498327016830444,-0.2148147970438003,-1.518449776109308,-9.63865256368518,-0.9803405318990348,50,walking
1783066655423790000,2.351178,0.8648020354874432,-0.8595254102587699,-1.434351835361123,-0.1740166246891021,0.5306475758552551,-0.1360844671726226,-1.4729291110366582,-9.640694883167743,-1.028533704116568,50,walking
1783066655443714800,2.3711028,0.7338391754508018,-0.7626935140132903,-1.4489432552933692,-0.1884747296571731,0.5372290015220642,-0.0626421943306922,-1.4440195351555942,-9.639514148950576,-1.0793336247663945,50,walking
1783066655463640000,2.391028,0.3640602527715265,-0.4091670763462782,-1.400333392033726,-0.2223559319972992,0.5843715071678162,-0.0669383183121681,-1.4203522438421845,-9.636904258713123,-1.1327320374768226,50,walking
1783066655483566000,2.410954,-0.2737260479822754,-0.3180658327072859,-1.1092432445354758,-0.3748616874217987,0.7687258124351501,-0.1705211848020553,-1.383510852048546,-9.633135261568428,-1.2078949766192584,50,walking
1783066655503490800,2.4308788,-0.5888000053972006,0.0705365945160388,-1.014823377867788,-0.5245705246925354,0.99342542886734,-0.3322133421897888,-1.312794370920956,-9.62848772802353,-1.3187746143743395,50,walking
1783066655523416000,2.450804,-0.5088722630057484,0.6127864456623793,-1.0468452405504882,-0.5555988550186157,1.153727650642395,-0.436275452375412,-1.20717184997648,-9.623214171534777,-1.4515038995616136,50,walking
1783066655543340800,2.4707288,-0.246448311086744,0.9260901785343884,-1.2339257091283795,-0.4279876947402954,1.2343392372131348,-0.3975943028926849,-1.0898155635531992,-9.617640755316614,-1.5759690681420266,50,walking
1783066655563266000,2.490654,-0.1473646903917193,1.1542512839108705,-1.571134195331484,-0.129885196685791,1.170072317123413,-0.3225433826446533,-0.9815018307633696,-9.615660395154356,-1.657147322051227,50,walking
1783066655583191800,2.5105798,-0.2510342506375164,1.2842676568776368,-1.5490490586429833,0.2149102985858917,1.1352437734603882,-0.2295242846012115,-0.8902519724339246,-9.622374213579295,-1.6696553598381578,50,walking
1783066655603117000,2.530505,-0.6528142854724079,1.2766881615340708,-1.36760455012545,0.5154802799224854,1.1399898529052734,-0.1925280690193176,-0.8131851724315434,-9.637987962296604,-1.618114703823626,50,walking
1783066655623041800,2.5504298,-0.5634282482534647,0.9476648814827204,-1.268430766928941,0.6610768437385559,1.0595674514770508,-0.0993769690394401,-0.7481456409618258,-9.659267481690645,-1.519617066323012,50,walking
1783066655642967000,2.570355,-0.4175293926306068,0.6010585984677076,-1.0312219933524729,0.6444079875946045,0.9659750461578368,0.034126941114664,-0.7126833555016666,-9.679121936717628,-1.406075150556117,50,walking
1783066655662893000,2.590281,-0.4443293559465557,0.2955114710718393,-0.7022118650436401,0.3605934977531433,0.9480029344558716,0.1724354475736618,-0.7063838169660419,-9.69200479916632,-1.3177465865008533,50,walking
1783066655682818000,2.610206,-0.6295454188920557,-0.251785142070055,-0.6068270988665521,-0.0522380545735359,0.9824286103248596,0.2759152948856354,-0.7267697485212237,-9.692530868867038,-1.3026986549727615,50,walking
1783066655702743000,2.630131,-1.0117691779289395,-0.2856786438435316,-0.7765858457654714,-0.366748571395874,1.03439199924469,0.2018763870000839,-0.7482680982977151,-9.683028881028294,-1.359940152977407,50,walking
1783066655722668000,2.650056,-0.8581056065887213,0.1907306616485118,-0.8766494174085557,-0.4995923936367035,1.0616743564605713,0.0837065652012825,-0.7446626211516558,-9.668326986458895,-1.4626353882983325,50,walking
1783066655742593000,2.669981,-0.0947318552263081,0.5560615188777447,-1.1269394986152648,-0.4574294686317444,1.0066159963607788,0.1087687984108924,-0.729322720939666,-9.652381813830136,-1.5716250475883482,50,walking
1783066655762518800,2.6899068,0.1739822828780859,0.8241764489799738,-1.0375864138178528,-0.3825641274452209,1.0478250980377195,0.2185650765895843,-0.7277910543929785,-9.63633434987068,-1.6678610237672924,50,walking
1783066655782444000,2.709832,0.1591948289170861,1.0513105493962764,-0.8931101383440196,-0.2051929086446762,1.1250648498535156,0.2659242153167724,-0.7379931533250957,-9.62240227063,-1.742157409208268,50,walking
1783066655802368800,2.7297568,0.3696509123854339,0.8981745821267366,-0.8347031036913395,0.0303575061261653,1.1595087051391602,0.3403235971927643,-0.7549680343277752,-9.614864276340604,-1.7761738067090511,50,walking
1783066655822294000,2.749682,0.3072846917781979,0.5940244620472193,-0.6802863028310239,0.2395720183849334,1.1996935606002808,0.3851240277290344,-0.7840300242915749,-9.614028994560242,-1.768084169886261,50,walking
1783066655842220000,2.769608,0.2304602491643279,0.5745540379017591,-0.3655919923834502,0.3887894451618194,1.262768268585205,0.3626976013183594,-0.8131490782048553,-9.619248775035144,-1.726042579101026,50,walking
1783066655862145000,2.789533,0.4964172705803066,0.3254869226187467,-0.2474555884331464,0.449588268995285,1.256954550743103,0.3756957054138183,-0.8399849896170198,-9.627558922740816,-1.665810959369689,50,walking
1783066655882070300,2.8094583,0.724573992042616,0.2731160993903875,-0.1637368562608957,0.4587738513946533,1.1791797876358032,0.439916580915451,-0.8785513055071235,-9.635641691431402,-1.5977968690685926,50,walking
1783066655901995300,2.8293833,0.6280639481626451,0.3792845637798309,0.107406627882272,0.361479103565216,1.1764204502105713,0.4959132969379425,-0.9325762526180594,-9.640205053824186,-1.5385406702406703,50,walking
1783066655921920300,2.8493083,0.4456905612971633,0.4256307198911905,0.1599883173823356,0.1977614611387252,1.1235870122909546,0.4816217124462127,-0.9923168008968234,-9.63926689619124,-1.5067267512202265,50,walking
1783066655941846300,2.8692343,0.2895907027207314,0.4319909025728702,0.044600627618283,7.65011645853e-05,1.0989032983779907,0.4025298953056335,-1.044063573942706,-9.633357379886508,-1.5095527684263883,50,walking
1783066655961771300,2.8891593,0.2295353163391351,0.5202577995687723,-0.0466885398082435,-0.1356529891490936,1.1645587682724,0.3402418494224548,-1.079626324102655,-9.623161564564704,-1.5490464282944798,50,walking
1783066655981696300,2.9090843,0.5231887384541333,0.532265048226714,-0.2982311052940786,-0.1546973884105682,1.196280837059021,0.3343707919120788,-1.1058777866903693,-9.611226796621084,-1.6036628384925424,50,walking
1783066656001621200,2.9290092,0.6868035757705568,0.5944605153769255,-0.4210479221455752,-0.0885139927268028,1.140297293663025,0.3476893007755279,-1.1325737051099538,-9.599351649910211,-1.65532332149446,50,walking
1783066656021547300,2.9489353,0.7078787316989154,0.4141308362334966,-0.657690586271882,0.0638128519058227,0.9869738221168518,0.3539548218250274,-1.164422987704724,-9.590657471323013,-1.6833894322887062,50,walking
1783066656041472300,2.9688603,0.4653056546103209,0.2842331212103366,-0.5371579348348081,0.2225619405508041,0.9987090229988098,0.3247840702533722,-1.197183028468862,-9.587501637640594,-1.6783761341713368,50,walking
1783066656061397200,2.9887852,0.3486464836057275,0.129106856906414,-0.3555143966138362,0.301701545715332,1.0255861282348633,0.2717781662940979,-1.219687267352268,-9.589346388724444,-1.6514251450121402,50,walking
1783066656081322200,3.0087102,0.4829863457947969,-0.2006856539517641,-0.2746821796633303,0.2882517576217651,0.9616986513137816,0.2421987503767013,-1.235364363629371,-9.592946459043024,-1.6185324908442795,50,walking
1783066656101247200,3.0286352,0.5583396929427981,-0.3980436247855424,-0.2641312672935426,0.24423149228096,0.8779938220977783,0.2469836622476577,-1.2522091154463588,-9.595503157788514,-1.590177918497473,50,walking
1783066656121173500,3.0485615,0.3850611013546586,-0.3821317699044942,-0.1978898857533931,0.197631224989891,0.8418517708778381,0.1970859318971634,-1.269419193444401,-9.596602058941125,-1.5697792735911904,50,walking
1783066656141098200,3.0684862,0.2848369323223829,-0.3194365365386009,-0.1144306813001632,0.122376412153244,0.8736067414283752,0.0879736617207527,-1.2703504829451442,-9.598094927847384,-1.559864174906909,50,walking
1783066656161023500,3.0884115,0.5831345269814133,-0.4184095364660024,0.0355529594182968,-0.0118189267814159,0.9799070954322816,0.0742609873414039,-1.255157151596993,-9.598182021608949,-1.5715829620122908,50,walking
1783066656180948200,3.1083362,0.9501892853938042,-0.8030331231862307,-0.0609311463028192,-0.1321717500686645,1.0216150283813477,0.1627795994281768,-1.2446759434625505,-9.592889760419723,-1.6117178423933685,50,walking
1783066656200874200,3.1282622,0.9999063792429864,-1.156622689217329,-0.3346662543743848,-0.142497256398201,1.001701831817627,0.2260804623365402,-1.250698710883409,-9.583167407828569,-1.6640433651752768,50,walking
1783066656220799200,3.1481872,0.8243956446886063,-1.252943128809333,-0.4628361226916312,-0.1069513708353042,1.0171804428100586,0.2029181271791458,-1.258045128123462,-9.57348714081347,-1.7134933325208723,50,walking
1783066656240724200,3.1681122,0.7786085837647319,-1.5626450377970933,-0.6486978631295264,-0.1026649102568626,1.0782314538955688,0.2403683960437774,-1.262985799396038,-9.564557399904729,-1.7591208189688623,50,walking
1783066656260649200,3.1880372,0.4609253206342458,-1.8296803559690715,-1.1085862419314685,-0.1163307055830955,1.056824803352356,0.2995870411396026,-1.2768993200667202,-9.553702243891358,-1.8074017425350843,50,walking
1783066656280574200,3.2079622,-0.2220392614953219,-1.7572820592343803,-1.4912489038422705,-0.0650594606995582,1.1124699115753174,0.3138301074504852,-1.297081838004291,-9.54215384491682,-1.8534509615264831,50,walking
1783066656300500500,3.2278885,-0.625416794654727,-1.291481241518259,-1.7079036958202718,0.1658584773540496,1.177982211112976,0.260261982679367,-1.3084994502060114,-9.535995322287082,-1.876964377452433,50,walking
1783066656320425200,3.2478132,-0.9030458414249122,-0.8098200068473815,-1.799397884299606,0.4810642302036285,1.192534327507019,0.1613729149103164,-1.305904173015803,-9.542408696460724,-1.8459239270225165,50,walking
1783066656340350500,3.2677385,-1.2307995399318634,0.354364057534933,-1.3116704814575613,0.7379096150398254,1.294697403907776,-0.0068081645295023,-1.2760790897250174,-9.56261269557774,-1.7602395938657225,50,walking
1783066656360275200,3.2876632,-0.8624341373123228,1.1988362755686044,-0.955286900793761,0.8458925485610962,1.3654125928878784,-0.0937310755252838,-1.2190250040512531,-9.59141033551693,-1.6398780612118542,50,walking
1783066656380200400,3.3075884,-0.2617685567501932,1.56550451888144,-0.6886784297317267,0.7779718041419983,1.349958419799805,-0.0405810736119747,-1.1615844032779334,-9.619150575357676,-1.5142862266890704,50,walking
1783066656400126200,3.3275142,-0.0534850680805742,1.6410013661533591,-0.5426173692844808,0.5714290142059326,1.2833387851715088,0.0282992906868457,-1.1223670761331914,-9.639131287112832,-1.4134449486717582,50,walking
1783066656420051500,3.3474395,0.0442030066028237,1.6541998704224825,-0.4060685258090495,0.2952147424221039,1.2587244510650637,0.0712642669677734,-1.096753984514251,-9.650085227325558,-1.3577097635768354,50,walking
1783066656439976200,3.3673642,0.2634309370044618,1.4690665903896092,-0.4743038576453924,0.0139161329716444,1.2240759134292605,0.1081487610936164,-1.08030246979855,-9.652298227199912,-1.355165485921502,50,walking
1783066656459901400,3.3872894,0.3823912245582789,1.0498860695511103,-0.6510965948343277,-0.2639483511447906,1.1937472820281982,0.1547444760799408,-1.07266963683255,-9.645968439656496,-1.4053728475056588,50,walking
1783066656479826200,3.4072142,0.410482615924254,0.7845318363338708,-0.97779917685315,-0.4707846939563751,1.1342113018035889,0.2106788903474807,-1.0730779253724962,-9.631256608214974,-1.5025934508077798,50,walking
1783066656499752200,3.4271402,0.4716907525375485,0.4742798922479152,-1.3502040641218422,-0.5608872771263123,1.0779999494552612,0.3174452185630798,-1.089245070188865,-9.609206688970326,-1.6269854080215096,50,walking
1783066656519677400,3.4470654,0.254810042849183,0.430264224910736,-1.7137416081935166,-0.5139018297195435,0.9384183883666992,0.3526875376701355,-1.1210622771449386,-9.58314694956243,-1.7541097128085792,50,walking
1783066656539602200,3.4669902,-0.0255263631835579,0.3874468274474144,-1.7374748043499886,-0.3814102709293365,0.8236041069030762,0.2915599048137665,-1.1515228087950498,-9.559633387506008,-1.85951347643584,50,walking
1783066656559527400,3.4869154,-0.155362776473537,0.1978255883455276,-1.5349467374019323,-0.2791559398174286,0.8029651641845703,0.2176739573478698,-1.169378929611668,-9.541496257790923,-1.939788059503585,50,walking
1783066656579452200,3.5068402,-0.182763043770194,0.2085574102401733,-0.9777502231448888,-0.233442336320877,0.8977125883102417,0.1313377171754837,-1.1690631416607646,-9.527388821983337,-2.008118814538419,50,walking
1783066656599378400,3.5267664,0.1706157290544361,0.5217804790914058,-0.5733785643815994,-0.2146230787038803,0.8555147051811218,0.0267118290066719,-1.1471506581254305,-9.516646478694677,-2.070717894053459,50,walking
1783066656619303200,3.5466912,0.6169466340817511,0.6381809991598129,-0.1808142477899789,-0.2942697703838348,0.7689264416694641,-0.0031484181527048,-1.114491739648208,-9.506154310774802,-2.1357254960149525,50,walking
1783066656639228400,3.5666164,0.858099615239352,0.7144622748076915,0.1748345888584852,-0.454581081867218,0.7569448947906494,0.0070135630667209,-1.0815086307179185,-9.489959547299144,-2.222924763779342,50,walking
1783066656659153200,3.5865412,1.147329814084619,0.7432868027538061,0.1677013759776949,-0.5589096546173096,0.7367032170295715,0.0610739365220069,-1.0529086322426795,-9.465813532558084,-2.3366988808669147,50,walking
1783066656679079200,3.6064672,1.3577958344250918,0.5923696805775165,-0.0804097537547349,-0.5354732871055603,0.6936632394790649,0.1671447455883026,-1.039666361897066,-9.436849888402223,-2.4566958179920912,50,walking
1783066656699004400,3.6263924,1.154116332419589,0.4119716123729944,-0.3592348784416914,-0.3987832963466644,0.6509054899215698,0.2231816053390503,-1.044431968863681,-9.408932538428902,-2.559596512757241,50,walking
1783066656718929400,3.6463174,0.6742145817019045,0.4940338095098733,-0.2728045492231846,-0.2418236881494522,0.6908007264137268,0.1964921951293945,-1.0493559081971644,-9.387894426575302,-2.633755973945558,50,walking
1783066656738854400,3.6662424,0.6390736371506005,0.2637427063673734,-0.4068000549539923,-0.0259699150919914,0.6834943294525146,0.2179140895605087,-1.0499786432053893,-9.37637466917336,-2.6742382064595818,50,walking
1783066656758779400,3.6861674,0.6133487557202577,0.0255588041484355,-0.5217910004854202,0.2298581153154373,0.5793880820274353,0.2356911301612854,-1.0592688149243592,-9.37701062898934,-2.668333074069023,50,walking
1783066656778705400,3.7060934,0.3671559537645429,0.1920896750420332,-0.1770756457835435,0.4316761791706085,0.5788204073905945,0.1869436055421829,-1.0694053012743592,-9.390163540551066,-2.6175559497728944,50,walking
1783066656798630100,3.7260181,0.386768124468252,0.2020323923856019,0.0659305620253086,0.5323766469955444,0.5631739497184753,0.1271425485610962,-1.0692653082817791,-9.411927628591656,-2.538243343605101,50,walking
1783066656818555400,3.7459434,0.4929650112345814,0.1220078385561704,0.2183741631165146,0.5499812960624695,0.5276395082473755,0.0587072968482971,-1.059942111076042,-9.43724911685288,-2.446478229229897,50,walking
1783066656838480100,3.7658681,0.6411978627629578,0.1578413684815168,0.4759487022429704,0.4761021435260772,0.5014569759368896,-0.0090697119012475,-1.0396826554447411,-9.461559382244944,-2.3597367882356046,50,walking
1783066656858405400,3.7857934,1.0177253829196096,0.1744721852868795,0.5804530328124762,0.3529812693595886,0.4285198450088501,-0.0377427339553833,-1.0126377774570137,-9.48148222633302,-2.29051171470955,50,walking
1783066656878330000,3.805718,1.3700748857617375,0.0961065045803785,0.5250321743637323,0.2017113864421844,0.3288261890411377,-0.0092271519824862,-0.9905939956922084,-9.494694759127498,-2.2449664997175334,50,walking
1783066656898255000,3.825643,1.4578373403668403,-0.1208703589588403,0.4483952171459793,0.0657694786787033,0.3423937857151031,0.0697799026966095,-0.9809420049235223,-9.499928568127752,-2.2269874831736085,50,walking
1783066656918180400,3.8455684,1.4523700148716567,-0.3273860342383384,-0.0711973965123295,0.0457105450332164,0.2271033972501754,0.1270812749862671,-0.987296561582014,-9.499915124124287,-2.2242435912929475,50,walking
1783066656938105000,3.865493,1.0798160014558582,-0.490257798102498,-0.2898021535143256,0.0867361277341842,0.1292313486337661,0.0999307259917259,-1.0032015483308585,-9.500447623565792,-2.2148324966080484,50,walking
1783066656958030300,3.8854183,0.6552872514571995,-0.5156482599467039,-0.2599251939058303,0.1162899732589721,0.1532065421342849,0.0105923675000667,-1.0079830104537308,-9.503636774995922,-2.1989202033355832,50,walking
1783066656977956000,3.905344,0.850376985098049,-0.7205149989753961,-0.4714163195103407,0.164977565407753,0.1370640993118286,-0.0171935893595218,-0.999116763235256,-9.51005891699791,-2.175074632845819,50,walking
1783066656997881000,3.925269,1.0334366006620228,-0.9805535901278256,-0.5333680410325526,0.2000201344490051,0.1451474726200103,0.0545583441853523,-0.9966256770718842,-9.51772082992792,-2.142451589399576,50,walking
1783066657017806300,3.9451943,0.5938450868923216,-1.164686753207445,-0.6090373222619295,0.2158969342708587,0.1680419296026229,0.0635090470314025,-1.002505236629769,-9.52497474657893,-2.107184315054864,50,walking
1783066657037731000,3.965119,0.2734422626048326,-1.2406658310383558,-0.6958700948014855,0.2600471377372741,0.1599021852016449,-0.0052668582648038,-1.0011297104928645,-9.53413771172166,-2.0659908655315635,50,walking
1783066657057656300,3.9850443,0.2830157813098281,-1.329777362164855,-0.6839272896818817,0.2696132659912109,0.1122752949595451,-0.0259985364973545,-0.990951211632043,-9.5455838193655,-2.017480078732222,50,walking
1783066657077581000,4.004969,0.171786088008061,-1.3413017957419155,-0.6322770358130335,0.2721235752105713,0.0291136093437671,-0.0046008098870515,-0.9849168999038636,-9.556506779918074,-1.968125534585118,50,walking
1783066657097507300,4.0248953,-0.0470105383042246,-1.162937279191613,-0.5680184986531734,0.2429606318473816,-0.1079433113336563,0.0111946649849414,-0.986685955403,-9.56667746079862,-1.917162532328069,50,walking
1783066657117432000,4.04482,-0.3394846144415438,-0.7762012303620577,-0.3603524842947721,0.1402479410171508,-0.1849982738494873,0.0253889691084623,-0.9960309991143644,-9.573782908889653,-1.8764307089671493,50,walking
1783066657137357300,4.0647453,-0.8406644232485443,-0.4062631715983152,-0.254295371325314,-0.0135054057464003,-0.220694750547409,-0.051391564309597,-1.0027212905332443,-9.576361819466948,-1.8596356415107844,50,walking
1783066657157282000,4.08467,-1.3752689472734927,0.079863225787878,-0.0964021265260875,-0.2281268537044525,-0.1762784421443939,-0.2375836819410324,-0.9831693986494092,-9.574967150238155,-1.877168229461461,50,walking
1783066657177207300,4.1045953,-1.41695704844594,0.615813684529066,0.1642636566139757,-0.4796604514122009,0.0127959959208965,-0.3812500238418579,-0.9263677533667534,-9.567433832123877,-1.9433048354528843,50,walking
1783066657197133000,4.124521,-1.102894094704464,1.1002724409639837,0.001781038197875,-0.6319381594657898,0.1321901082992553,-0.4365342557430267,-0.8434422904640436,-9.551953938919306,-2.0540609198935327,50,walking
1783066657217058300,4.1444463,-0.7582990053813904,1.3437304841935631,-0.5137386269330978,-0.5399664044380188,0.0970006957650184,-0.3912711143493652,-0.7581284711200743,-9.533246900361776,-2.1709097682513296,50,walking
1783066657236983000,4.164371,-0.8388391805827617,1.6593728891462087,-0.505795266713202,-0.2818041741847992,0.1399895846843719,-0.3263267874717712,-0.6856688726522028,-9.519837383690476,-2.2523253380477426,50,walking
1783066657256908300,4.1842963,-0.7442774942915886,1.8540023117989304,-0.545118684580922,0.0548748821020126,0.1211138442158699,-0.257188081741333,-0.6231108557999133,-9.518290738770364,-2.2768965924635527,50,walking
1783066657276833000,4.204221,-0.3449535473719239,1.553632294780016,-0.6040785308107733,0.3822468817234039,-0.0109387543052434,-0.1443319767713546,-0.5817520231144503,-9.531111057376862,-2.233798478362709,50,walking
1783066657296759000,4.224147,-0.1447416118791326,1.095621984809637,-0.1264145490825176,0.4615003764629364,-0.0710834190249443,0.0226932689547538,-0.5712743586439639,-9.551194060462713,-2.1491241990312933,50,walking
1783066657316684300,4.2440723,0.1413251544991508,0.642578357335925,0.0485661702483892,0.3711980283260345,-0.1596968621015548,0.2389444261789322,-0.6001141572244465,-9.567563595983383,-2.066878169760108,50,walking
1783066657336609000,4.263997,0.0986664912614971,-0.0402174440979957,-0.0261946178339421,0.1838570833206176,-0.2631121873855591,0.4646431803703308,-0.6768661921892315,-9.574446341234443,-2.0105226608097557,50,walking
1783066657356534300,4.2839223,-0.553524036289379,-0.3666816873162984,-0.0963980348728597,-0.0218337606638669,-0.2912641763687134,0.4732867479324341,-0.782739765285328,-9.570601356244088,-1.9902982034265997,50,walking
1783066657376459000,4.303847,-1.2465668717756866,-0.2474292849481105,0.0996476843185722,-0.1537176817655563,-0.2220613956451416,0.2211140543222427,-0.8610787041153758,-9.560866144171356,-2.0046837255232037,50,walking
1783066657396384300,4.3237723,-0.7336782127354293,-0.0922322934955358,0.2959422637045383,-0.1648889034986496,-0.083138383924961,0.0214098468422889,-0.8867473983790725,-9.552360181632638,-2.0338335399009284,50,walking
1783066657416310000,4.343698,0.0769600516922772,-0.353657370570302,0.2264960947737097,-0.1049154996871948,0.0358059406280517,0.0019518893677741,-0.88844470381625,-9.546365325132012,-2.061052970737964,50,walking
1783066657436235300,4.3636233,0.4509604645241051,-0.0195253692030906,0.2123921660974621,0.018128952011466,0.1258519887924194,0.009572017006576,-0.8865555290687829,-9.544413606542347,-2.0708916431851683,50,walking
1783066657456160000,4.383548,0.7514559345535934,0.5558522600412369,0.4629859064258634,0.1247513741254806,0.2145271003246307,0.0178656466305255,-0.8814910852860659,-9.547126372632384,-2.060516525773704,50,walking
1783066657476085200,4.4034732,1.1797456445209682,0.6475514695733785,0.503286791023612,0.1786054819822311,0.2535466849803924,0.0799022316932678,-0.879871959651634,-9.55278454452455,-2.0348278116352856,50,walking
1783066657496010000,4.423398,1.5230762668661773,0.4474462458580732,0.6884133490547537,0.1647418886423111,0.3560713529586792,0.2357251495122909,-0.8965436199240386,-9.557085456588863,-2.007169843250513,50,walking
1783066657515936300,4.4433243,1.3401628548398614,0.3324497473686933,0.573269258788228,0.1456685662269592,0.3232668936252594,0.3058117926120758,-0.9367399481687694,-9.558056931969524,-1.984052440904826,50,walking
1783066657535861200,4.4632492,0.9725536774151028,0.5897539451211691,0.721116618130356,0.1006716787815094,0.3045079410076141,0.2405218780040741,-0.977790847416222,-9.557684591525792,-1.9659515515469013,50,walking
1783066657555786200,4.4831742,0.9487886978808788,0.5770125369697809,0.8599830908983945,-0.0243949387222528,0.3212649226188659,0.1671669334173202,-1.0035560608569531,-9.555568037763235,-1.9632608511582013,50,walking
1783066657575711200,4.5030992,1.1427741966068743,0.5362281066387892,0.7860092154100536,-0.1755018979310989,0.3505391478538513,0.1433048248291015,-1.0196222295168786,-9.548301846152544,-1.9901425744734704,50,walking
1783066657595636200,4.5230242,1.1719681423872708,0.7026561016798019,0.6125999831795692,-0.2598270177841186,0.3533321022987366,0.0997720584273338,-1.029213941465691,-9.536811314845083,-2.0396938102364537,50,walking
1783066657615561200,4.5429492,1.1353823327898978,0.7772522007197141,0.6271826352834701,-0.3064180314540863,0.3885682821273803,0.0421936362981796,-1.027344055940583,-9.523570140478014,-2.1015617989979685,50,walking
1783066657635487000,4.562875,1.269241352659464,0.695214553502202,0.659563102145493,-0.3339536488056183,0.4215505123138428,-4.26179612986e-05,-1.012612935276702,-9.509618772014974,-2.170753700906783,50,walking
1783066657655412200,4.5828002,1.5686182669878006,0.4871633392184972,0.57416065467,-0.3295015096664428,0.4627293348312378,0.0434289872646331,-0.9958055197954178,-9.494598897537587,-2.243068849402666,50,walking
1783066657675337000,4.602725,1.6981372118264435,0.2345744795501232,0.4057033457584679,-0.2232459187507629,0.5077995657920837,0.1559755057096481,-0.9919972135536372,-9.479484915035965,-2.307746781018376,50,walking
1783066657695262200,4.6226502,1.4750506332352755,-0.2648357623010873,-0.0122393038481473,0.006045457907021,0.4196564555168152,0.2164632081985473,-1.0068346441362053,-9.470437100705505,-2.338268176010251,50,walking
1783066657715187200,4.6425752,0.967342737833783,-0.6495400130420923,0.0920746187157929,0.1892421990633011,0.32233527302742,0.1919653415679931,-1.0288437929790466,-9.471198732727766,-2.3255656385645267,50,walking
1783066657735112200,4.6625002,0.6758526312325149,-1.2255676306277512,0.3717798872381448,0.2323290705680847,0.3599651753902435,0.1838579028844833,-1.0491985256783665,-9.477561253497004,-2.290283751172572,50,walking
1783066657755038200,4.6824262,0.2936452388085425,-1.514899536281824,0.4590174411863088,0.2147714346647262,0.4274640381336212,0.1053326278924942,-1.059939334597066,-9.484511803287267,-2.256314846075326,50,walking
1783066657774963200,4.7023512,0.1126248739872127,-1.4951812748551367,0.6982400388032197,0.1830707639455795,0.5438745617866516,-0.0252730473875999,-1.0456153334293514,-9.492408694016932,-2.229631421811133,50,walking
1783066657794888200,4.7222762,0.532769271421805,-1.681424561956525,0.6162269415050745,0.2193684875965118,0.5682939291000366,-0.0636407732963562,-1.0089161265853792,-9.50204103023708,-2.20537858569473,50,walking
1783066657814813200,4.7422012,1.0176932342156768,-1.949185271793604,-0.0775420893639326,0.4115030467510223,0.339296281337738,0.0154616041108965,-0.9838750627007334,-9.515898875197768,-2.1563978432960806,50,walking
1783066657834738200,4.7621262,1.0427208540968596,-1.806096066763997,-0.3075783409625292,0.5805405974388123,0.3030715584754944,0.0783834308385849,-0.9803219002638012,-9.536434298226236,-2.0653749255903064,50,walking
1783066657854664200,4.7820522,0.958695394062996,-1.890670538982749,-0.2264578085899352,0.5304034352302551,0.4395595788955688,0.1672144681215286,-0.9877250891923904,-9.55735375213623,-1.9625908429421484,50,walking
1783066657874590200,4.8019782,0.5119412951875477,-2.221028867030144,-0.5086678995400666,0.2634327411651611,0.4676672220230102,0.2242138683795929,-1.009037341812253,-9.5689173486799,-1.8942127416342496,50,walking
1783066657894515000,4.821903,-0.1390660869933664,-2.1326193466931582,-0.8034536866858601,-0.0817044004797935,0.5064767003059387,0.2192862182855606,-1.0334943952638656,-9.567845335534214,-1.8864320246301591,50,walking
1783066657914440200,4.8418282,-0.7303594435762614,-1.884077716588974,-1.2880483444601296,-0.3644876480102539,0.5660045742988586,0.1528318077325821,-1.0500286928921938,-9.55466962761879,-1.9432262172587216,50,walking
1783066657934365000,4.861753,-1.0790837416585537,-0.9045902943879366,-1.6473787922307848,-0.392633706331253,0.6958339214324951,0.0324495770037174,-1.042927263389155,-9.536823005282878,-2.0326589431636037,50,walking
1783066657954290200,4.8816782,-0.987059172629565,0.2507885322481393,-1.809686492471397,-0.1993984580039978,0.8427304029464722,-0.0859028995037078,-1.005215737697482,-9.524877131423354,-2.106329597921669,50,walking
1783066657974216000,4.901604,-0.6838506442490965,1.1163871249407529,-1.7145862423241138,0.0870085209608078,0.9664391875267028,-0.1321498602628708,-0.9443561222609133,-9.524524080201983,-2.135888431491703,50,walking
1783066657994141200,4.9215292,-0.1927239543575793,1.8030816873788835,-1.4527401633583008,0.4034347534179687,0.9452990889549256,-0.1556541174650192,-0.8759877386294305,-9.537848841199278,-2.105342778841406,50,walking
1783066658014066000,4.941454,0.0836940361224114,1.9668401709496972,-0.9259364492774008,0.4981462061405182,0.9373897910118104,-0.1540515720844268,-0.8074911255083977,-9.560200373739004,-2.0300047753930093,50,walking
1783066658033991200,4.9613792,0.1700967466816306,1.8306670289188625,-0.3847106804817914,0.2865678071975708,1.041973352432251,-0.1012642830610275,-0.7423109434589743,-9.578453238788246,-1.9678914335682989,50,walking
1783066658053916000,4.981304,0.3159530052717775,1.5897615927815436,-0.3689874800406396,0.0309150069952011,1.1026568412780762,-0.0134817725047469,-0.6892987535871565,-9.58519803687334,-1.954285955933481,50,walking
1783066658073841200,5.0012292,0.3634928281471133,1.5753566353321071,-0.4646462408535182,-0.1411019563674926,1.0988032817840576,0.05351073294878,-0.6498991286780684,-9.582613865599036,-1.9802827131077647,50,walking
1783066658093766000,5.021154,0.4779729015469551,1.629332555669546,-0.439102488143742,-0.2423832714557647,1.0891233682632446,0.1466616690158844,-0.6235702169399708,-9.573592354753613,-2.0317134790070357,50,walking
1783066658113692200,5.0410802,0.7509619404915719,1.4988357057094572,-0.716281599189341,-0.2561270892620086,0.94993793964386,0.3099038898944855,-0.6236204127572477,-9.56011386449933,-2.094212020757049,50,walking
1783066658133617200,5.0610052,0.7735328879356383,1.2762205440223215,-1.0410783475868404,-0.1307692229747772,0.8079529404640198,0.4882115423679352,-0.6635491761069744,-9.546690903824569,-2.142611310005933,50,walking
1783066658153542100,5.0809301,0.3606669570714235,1.048771386307478,-0.9313014834418892,-0.0355440117418766,0.8276388049125671,0.5768933296203613,-0.7319179981298745,-9.535618890190124,-2.1694890877984463,50,walking
1783066658173467100,5.1008551,0.1017499903600663,0.8651140240460634,-0.833771375799179,0.0173382945358753,0.8459761738777161,0.5509955286979675,-0.8032511498510837,-9.526737080076336,-2.1832218450747427,50,walking
1783066658193392000,5.12078,0.3063823361109942,0.7162637712717056,-0.7239722998224198,0.0417518243193626,0.8455820679664612,0.5391861200332642,-0.8685707403711974,-9.518844865521787,-2.192614235059172,50,walking
1783066658213317000,5.140705,0.6495701889846474,0.7042740582704544,-0.7296503454588353,0.1264181286096573,0.7397566437721252,0.5371111035346985,-0.9365750399306416,-9.512840656670928,-2.190677275647223,50,walking
1783066658233243000,5.160631,0.5958359684485942,0.6116676707655191,-0.4053862426333129,0.1586551368236541,0.7626820802688599,0.4922298192977905,-1.00314945281744,-9.509418281006813,-2.1760119136959317,50,walking
1783066658253168000,5.180556,0.703330932201445,0.5435048196434974,-0.0596273702278733,0.084276795387268,0.8112574219703674,0.4589862823486328,-1.0582714744500816,-9.50530149333775,-2.16787814547047,50,walking
1783066658273092900,5.2004809,1.0731935145761815,0.3224468242704868,-0.0229166190765798,-0.0189988743513822,0.7763358950614929,0.5010318160057068,-1.1134458838570862,-9.496278813448548,-2.1797490543976425,50,walking
1783066658293018000,5.220406,1.075534013287723,0.2029705500185489,-0.169008659183979,-0.0553299821913242,0.6855044960975647,0.5142853260040283,-1.1789335974857211,-9.482746547180414,-2.204094098842144,50,walking
1783066658312943000,5.240331,0.7043319259375334,0.2190185984998941,0.0161253515012562,-0.0849995389580726,0.7129714488983154,0.4488408267498016,-1.2404833140783011,-9.468118302369115,-2.2330063050717115,50,walking
1783066658332868000,5.260256,0.6025258945412933,0.2346153960824012,0.1326128192007541,-0.1116165444254875,0.7318808436393738,0.3388044834136963,-1.2818806156106293,-9.45378874824345,-2.2700363513052464,50,walking
1783066658352793900,5.2801819,1.0077698060944675,0.4013350675463676,0.1318821668386459,-0.0698672086000442,0.6778101921081543,0.323934406042099,-1.3104866785004734,-9.44094271067381,-2.306864883617312,50,walking
1783066658372719000,5.300107,1.2648930943220853,0.6541817013680935,0.2292671669222414,-0.0239156670868396,0.6202034950256348,0.3518763184547424,-1.3437518192425368,-9.430126717627047,-2.331825283481181,50,walking
1783066658392643800,5.3200318,1.165860180900991,0.6141045425236225,0.2184764544472098,0.0021181136835366,0.5820600390434265,0.3675082325935364,-1.3838823157094418,-9.41952992028892,-2.3511115832313894,50,walking
1783066658412569000,5.339957,0.9680777010448276,0.4015834893494844,0.0437790821023285,0.0574055053293705,0.5404062271118164,0.3118745982646942,-1.4223773199290035,-9.411263027203082,-2.3612166515298187,50,walking
1783066658432494000,5.359882,0.8226870872050523,0.3435036408245563,0.0685784461855888,0.1368283927440643,0.5073629021644592,0.2163520455360412,-1.4471248076945542,-9.40795112617612,-2.359380668274313,50,walking
1783066658452419000,5.379807,0.945857685930282,0.3411684758752584,0.1257122460320592,0.2178256660699844,0.4568351209163666,0.125593900680542,-1.4571695241078733,-9.411303359213472,-2.339750377392024,50,walking
1783066658472344000,5.399732,1.0217916094452142,0.3079793229788541,0.2429828269332647,0.2356030344963073,0.4639991819858551,0.0498730093240737,-1.45229899546206,-9.419712291118502,-2.308729946836829,50,walking
1783066658492270000,5.419658,1.2187256557784971,0.1835270138800144,0.3393026820033789,0.1898205280303955,0.4388554990291595,-0.0185484196990728,-1.4340541675888,-9.429185637384652,-2.2812996497280893,50,walking
1783066658512195000,5.439583,1.47369980314821,-0.1671177308708429,0.2730339740648865,0.1530571430921554,0.3688488900661468,-0.0317919068038463,-1.4099540378160773,-9.437819610217211,-2.260520042680204,50,walking
1783066658532120000,5.459508,1.5964683969438076,-0.6949550257831811,0.05472849227041,0.1352189928293228,0.294939637184143,-0.011424352414906,-1.3908661832474172,-9.444787695664166,-2.243178154996037,50,walking
1783066658552045000,5.479433,1.3205230654768645,-0.9620318450093268,-0.1426657189205288,0.1576767414808273,0.2540760338306427,-0.0350162014365196,-1.3752905745834112,-9.45184872009158,-2.2229554511785508,50,walking
1783066658571970000,5.499358,0.8870318413436412,-1.338529992941022,-0.2554562317982315,0.1196712478995323,0.3156648278236389,-0.1202957481145858,-1.3497114582993088,-9.460218489030003,-2.202940398762375,50,walking
1783066658591895000,5.519283,0.6373520009897649,-1.5085750094354151,-0.316604381852597,0.0901458710432052,0.3619307577610016,-0.2428368180990219,-1.298450788269937,-9.46928793067038,-2.1947630836561323,50,walking
1783066658611820000,5.539208,1.0649787170037626,-1.985866358458996,-0.7653712087899446,0.1345298588275909,0.1844694316387176,-0.1996589601039886,-1.2424489150628446,-9.480115029633044,-2.180394658824801,50,walking
1783066658631746000,5.559134,0.7977611010674387,-2.122002091088891,-0.7616600793123245,0.1098211407661438,0.1374357044696808,-0.1537094116210937,-1.2038775576714429,-9.49002559827268,-2.1588168871365485,50,walking
1783066658651671000,5.579059,0.1875876143824309,-1.943700118380785,-0.6598151772104204,0.0183431450277566,0.209319919347763,-0.1954451650381088,-1.1639729058496653,-9.496543017342686,-2.1520250350393355,50,walking
1783066658671596000,5.598984,0.1742722057353705,-1.7005203075706958,-0.910857538089156,0.000188305042684,0.1851541548967361,-0.2026537805795669,-1.1157920085918158,-9.501500347489118,-2.155665729629248,50,walking
1783066658691521000,5.618909,0.3079126144181937,-1.2674474549800157,-1.0770026245355606,0.0331372991204261,0.0437308698892593,-0.118073008954525,-1.078995186592266,-9.50586204982996,-2.1551694705449043,50,walking
1783066658711446000,5.638834,0.0526927486591041,-0.9492495203256608,-0.916029387769103,-0.0315232686698436,0.0136743569746613,-0.0126299373805522,-1.0669364269427954,-9.50787514321804,-2.152289823455364,50,walking
1783066658731371300,5.6587593,-0.8632720494411885,-0.5988637187719345,-0.6477157202243805,-0.2075411826372146,0.2301607429981231,-0.0410519279539585,-1.0594214482028037,-9.503020688924192,-2.1772924550257624,50,walking
1783066658751296000,5.678684,-1.6345291013993322,-0.3282090410590171,-0.7988160900130867,-0.2556867897510528,0.3572940230369568,-0.2362116426229477,-1.021688222135976,-9.494752626794575,-2.2307469818376005,50,walking
1783066658771222000,5.69861,-1.8493761133030056,0.0885439603716135,-0.9816178583584724,-0.190739020705223,0.4149714410305023,-0.4638809263706207,-0.9376241105921566,-9.491320898780224,-2.2816791505649685,50,walking
1783066658791147000,5.718535,-1.4837424737349152,0.712204851269722,-0.7499345702052116,-0.0827481150627136,0.5349683165550232,-0.5690004825592041,-0.8155890917681157,-9.494137125244736,-2.316588697513193,50,walking
1783066658811072000,5.73846,-0.8408735359545797,1.2652946608603,-0.6698638391464948,0.1459549069404602,0.5599187016487122,-0.5178770422935486,-0.6842329215649515,-9.503442713728546,-2.3209429471999408,50,walking
1783066658830997000,5.758385,-0.6487057541750371,1.6481459772109983,-0.6647327598683536,0.4287527203559875,0.520241916179657,-0.3896642327308655,-0.573683757873252,-9.522375377735496,-2.2728027472786603,50,walking
1783066658850922000,5.77831,-0.6101569739416242,1.8215683611840008,-0.2550491123020649,0.6541706919670105,0.4606163501739502,-0.2498557567596435,-0.4895297395562752,-9.550200957772136,-2.173569196718931,50,walking
1783066658870847000,5.798235,-0.2852525639185682,1.1720599123239517,-0.2369964460000395,0.7183206677436829,0.250287115573883,-0.0893417000770568,-0.4424350300999358,-9.58139279937148,-2.04243317207247,50,walking
1783066658890772000,5.81816,-0.4057916450964287,0.552440990293026,0.1416689629681408,0.5233900547027588,0.2064269930124282,0.0331037901341915,-0.4299342988366261,-9.606862171670794,-1.9219075348980723,50,walking
1783066658910697000,5.838085,-0.5450001362351701,0.2428396190702915,0.4466062879025936,0.1686321794986724,0.2604963183403015,0.1380388289690017,-0.4363232692213729,-9.619430561342837,-1.85649208278805,50,walking
1783066658930623000,5.858011,-0.4722323120683431,-0.3673217387855053,0.0896454918727278,-0.1285837292671203,0.2047139108180999,0.2628375291824341,-0.4665940869856625,-9.617996144625543,-1.8565666093289848,50,walking
1783066658950548000,5.877936,-0.8911923220239579,-0.2588140177935362,-0.0022802198916673,-0.261290967464447,0.1979091614484787,0.2382457703351974,-0.5103134017247707,-9.60754138610661,-1.8987156060114505,50,walking
1783066658970473000,5.897861,-1.009887163574621,0.3060258508235216,0.1505965119197964,-0.2032994776964187,0.265811562538147,0.0925445854663848,-0.5330262418575584,-9.596427286896107,-1.948043408282101,50,walking
1783066658990398000,5.917786,-0.2580909276833757,0.3754699739277362,0.4448205735296011,-0.057163517922163,0.3291561305522918,0.0662731751799583,-0.533043083394505,-9.590603110787272,-1.9765112317450344,50,walking
1783066659010323000,5.937711,0.5885495743000879,0.2097241159319877,0.6839702520407736,0.0670806542038917,0.3498317897319793,0.1632882952690124,-0.5414136560505256,-9.589756723091003,-1.9783352323018013,50,walking
1783066659030248000,5.957636,0.541666790561378,0.3381412370085716,0.9414087436974048,0.1347053945064544,0.4125588536262512,0.1895696818828582,-0.5624664540166034,-9.591730653512478,-1.9628350269615649,50,walking
1783066659050173000,5.977561,0.5547156937593594,0.5884165590375662,1.0623189962752162,0.2103896588087082,0.4383604824542999,0.1484169960021972,-0.5771612977907061,-9.596450083249806,-1.935304484348744,50,walking
1783066659070099000,5.997487,0.8592883866325021,0.3087164050817489,1.0524053588956594,0.279460459947586,0.4039239585399627,0.1806391477584839,-0.5920356263175607,-9.60405471303463,-1.8926203578762708,50,walking
1783066659090024000,6.017412,0.7942611301224678,0.2892167548418045,1.0932096629709005,0.3224885165691376,0.4177431166172027,0.1790662407875061,-0.6124514050217345,-9.61298620750904,-1.8400507972054183,50,walking
1783066659109949000,6.037337,0.686083444802463,0.6124725574076175,1.1635533652633427,0.3591732382774353,0.4537823796272278,0.132415696978569,-0.6262284032985568,-9.623498833695054,-1.7794614500775932,50,walking
1783066659129874000,6.057262,0.8265254963241517,0.676452569887042,1.055233275797963,0.3569567203521728,0.4807425141334533,0.1220451071858406,-0.6340914648238569,-9.63465735656917,-1.715135254509002,50,walking
1783066659149799000,6.077187,0.7502720585312694,0.7492080094963312,0.9561755201965568,0.2622650563716888,0.5157776474952698,0.0794133022427558,-0.636697044212371,-9.64381681458056,-1.6618663133971392,50,walking
1783066659169724000,6.097112,0.8472226127203554,0.928239465522766,0.7821705140300095,0.196285143494606,0.4946692287921905,0.0514417365193367,-0.63204359238334,-9.650465166553854,-1.624629930936545,50,walking
1783066659189649000,6.117037,1.059106537034735,0.9106108698517084,0.6916846258103847,0.1515000313520431,0.4531361758708954,0.0705565884709358,-0.6281503112718463,-9.65528279596865,-1.5972914037644863,50,walking
1783066659209574000,6.136962,1.1970835866823792,0.7504962957412004,0.6427823554754257,0.1030380427837371,0.4090161919593811,0.1005530208349227,-0.6313038068667054,-9.658123572352528,-1.578765713123232,50,walking
1783066659229500200,6.1568882,1.1217065663978456,0.611039309734106,0.5169897376835346,0.0290398802608251,0.3921904563903808,0.1265679150819778,-0.6404721057716757,-9.658876436546445,-1.5704384681522845,50,walking
1783066659249425000,6.176813,0.8808855206083506,0.242788181143999,0.4483171834737062,-0.038922656327486,0.4747479259967804,0.1348703205585479,-0.652688174874708,-9.656789108878373,-1.5782308755941687,50,walking
1783066659269350100,6.1967381,0.7575009868714958,-0.0364583838254213,0.3166438370801508,0.0062976498156785,0.4188823997974396,0.1258336007595062,-0.6636780631836503,-9.65422247326076,-1.589311510926485,50,walking
1783066659289275000,6.216663,0.5538735803794116,-0.2195230408906936,0.2185698318190872,0.0734466463327407,0.2738527059555053,0.0627882853150367,-0.671039824123308,-9.654313658675552,-1.585658687507361,50,walking
1783066659309200100,6.2365881,0.4579801340278238,-0.5044494050621986,0.3317512437105178,0.0422240644693374,0.2245050519704818,0.0148961776867508,-0.6700166916206479,-9.655943890225888,-1.5761372643157838,50,walking
1783066659329124900,6.2565129,0.2700947788078338,-0.6924082639098167,0.3713876730501652,-0.0151859987527132,0.2563685774803161,-0.0437637083232402,-0.660200084874779,-9.656378774511811,-1.577616104696691,50,walking
1783066659349050000,6.276438,0.305689458476007,-0.5521241794288159,0.2033914057791233,-0.017214085906744,0.1854698657989502,-0.1164428666234016,-0.6369871862653642,-9.656901921603083,-1.583947645805776,50,walking
1783066659368974800,6.2963628,0.5439280500242486,-0.8731003466248511,0.1331909113496542,-0.0422296039760112,0.1295134276151657,-0.1041759178042411,-0.6099182698149234,-9.657496380364892,-1.590960447177291,50,walking
1783066659388901000,6.316289,0.57763538157586,-1.40666244892478,0.0799988348662853,-0.1541602164506912,0.1368133574724197,-0.0522504858672618,-0.5908034907067194,-9.655446462097764,-1.6104923922516403,50,walking
1783066659408825900,6.3362139,0.5757164327446371,-1.4728788421541452,0.0708960754781961,-0.2665734887123108,0.1593369096517563,0.0043104528449475,-0.5812530240837485,-9.648786419686674,-1.6533140274986624,50,walking
1783066659428751000,6.356139,0.5357832124155014,-1.4955284808576106,-0.1216489421159029,-0.3039503097534179,0.1952853798866272,0.1008266881108284,-0.5844154701700434,-9.63840706449151,-1.711710833018273,50,walking
1783066659448675800,6.3760638,0.2823444579195231,-1.7208195837557314,-0.5967286064393817,-0.2627996206283569,0.1517262011766433,0.2059971243143081,-0.6070580946108326,-9.626649406680464,-1.769042055132985,50,walking
1783066659468601000,6.395989,-0.3902677300870418,-1.851964083969593,-1.064081914294511,-0.1473635286092758,0.0656295791268348,0.2137538939714431,-0.6458230383455753,-9.616561727908254,-1.8097085581727328,50,walking
1783066659488525800,6.4159138,-1.1374894611369817,-1.2740256643265484,-0.9376276177234948,-0.0557497180998325,0.2530623078346252,0.1008502393960952,-0.6711802555073052,-9.6109140774101,-1.8303692150160669,50,walking
1783066659508451000,6.435839,-1.1909396770998837,-0.9963806893348692,-1.171570667502284,0.0242750383913517,0.4269924759864807,0.0374666191637516,-0.6705521136716007,-9.60948375234604,-1.8380903107874091,50,walking
1783066659528375800,6.4557638,-1.2622830579541622,-0.4054670527845621,-1.1615141145206986,0.106175772845745,0.4250970780849457,-0.094475619494915,-0.6509834898486733,-9.612023499956727,-1.8318365110896528,50,walking
1783066659548301000,6.475689,-0.8330230416499078,0.778100926503539,-0.7270851711459457,0.185314267873764,0.5171918869018555,-0.1713746339082718,-0.6055929539617151,-9.61929027608931,-1.8091225749783215,50,walking
1783066659568227000,6.495615,-0.1736256514601409,1.177099660056829,-0.5904091941595078,0.1952198147773742,0.6527155637741089,-0.0483735240995883,-0.5618432440843433,-9.627733694785832,-1.7780545058891175,50,walking
1783066659588151800,6.5155398,-0.0990467227507382,1.3833768504053354,-0.5449873132862151,0.2141081541776657,0.7926967144012451,0.0858501940965652,-0.5414023309389129,-9.634395490762593,-1.7480597651198506,50,walking
1783066659608077000,6.535465,-0.1881908775052055,1.3557739732086658,-0.7967746473133563,0.2783228456974029,0.8505206108093262,0.1285904794931411,-0.5344091475833207,-9.641806643801926,-1.7089070276439189,50,walking
1783066659628002000,6.55539,-0.3365536755561828,1.112237019523978,-0.8526619542300701,0.3115453422069549,0.8690230846405029,0.15286885201931,-0.5320926508018746,-9.650259414848684,-1.6612497889339923,50,walking
1783066659647927000,6.575315,-0.1847230552641675,0.8014414700806141,-0.8648287773638963,0.3217871785163879,0.8748825192451477,0.2646710574626922,-0.5414682723145932,-9.65849123662114,-1.609578638407588,50,walking
1783066659667852000,6.59524,-0.2009722888734191,0.4306733902335167,-1.0638666641086338,0.3545082211494446,0.7841193079948425,0.4154661893844604,-0.5814827777190134,-9.665258246538045,-1.5540435059294104,50,walking
1783066659687777000,6.615165,-0.6985045349583029,0.3089227413088083,-0.866801684872061,0.3521358072757721,0.7187039852142334,0.4340720176696777,-0.6432961502164601,-9.670850367456676,-1.493731660568714,50,walking
1783066659707702000,6.63509,-0.920660262440145,0.3249281196922063,-0.4519510099314153,0.206640675663948,0.731221616268158,0.3439030647277832,-0.6978198406297713,-9.674134795954824,-1.4472494569875298,50,walking
1783066659727627000,6.655015,-0.7304938836108893,0.4739274255484342,-0.275285113992542,0.0081389807164669,0.7174489498138428,0.2151517868041992,-0.7311660107187926,-9.673197807365655,-1.4370181319609283,50,walking
1783066659747552800,6.6749408,-0.3403814902160316,0.8683645502746105,-0.1690044214002788,-0.1240525245666503,0.7685195803642273,0.1666836589574813,-0.7444910639770329,-9.668700495946409,-1.460249369944632,50,walking
1783066659767478000,6.694866,0.2386761427152901,0.9923018955886364,-0.1677151122421026,-0.2033172249794006,0.7646597623825073,0.2068519592285156,-0.7564221055936068,-9.661107556599378,-1.5037366294935344,50,walking
1783066659787402800,6.7147908,0.5190610640648752,1.0768746142417192,-0.1561195131249725,-0.232767105102539,0.7108299136161804,0.2525089979171753,-0.778682452718541,-9.650811203512548,-1.5575304712623357,50,walking
1783066659807328000,6.734716,0.505193282232061,1.2381190691649913,-0.2341601996608078,-0.1752692461013794,0.6831883788108826,0.2445181161165237,-0.8049174756281078,-9.640122051715853,-1.6095248623937368,50,walking
1783066659827253000,6.754641,0.539035273014009,1.0972580615788698,-0.2986976998925209,-0.0906193703413009,0.6745397448539734,0.2199749499559402,-0.8273868623938411,-9.63228770482838,-1.6446458601355551,50,walking
1783066659847178000,6.774566,0.6590860592182726,0.931816739487648,-0.0926240692920982,-0.0558856278657913,0.6925850510597229,0.2185541540384292,-0.846582049794495,-9.626211599785089,-1.6702566867321729,50,walking
1783066659867103000,6.794491,0.8650149475857615,0.741720284089446,-0.1395006790183484,0.0095729138702154,0.6237472295761108,0.2194712460041046,-0.8666608150966465,-9.621664019483328,-1.6860777945898473,50,walking
1783066659887031000,6.814419,0.8004965904459357,0.6458592787027359,-0.087220602813363,0.0441404096782207,0.6072518825531006,0.1851346790790558,-0.8857899515237658,-9.6191774633646,-1.6903244922488927,50,walking
1783066659906956300,6.8343443,0.7367990481697022,0.5642565157711505,0.0406061511546373,0.021630086004734,0.6653167605400085,0.1317552328109741,-0.8943674449287354,-9.61748118084073,-1.6954481188729404,50,walking
1783066659926881000,6.854269,0.935104675117135,0.3995686423957347,-0.1385154673732817,0.068998284637928,0.6133627891540527,0.0905952379107475,-0.8935055674023926,-9.616797290229798,-1.6997826409459114,50,walking
1783066659946807000,6.874195,0.9583972148340196,0.3388952702462673,-0.2071888983659446,0.1703089028596878,0.5216457843780518,0.0272830780595541,-0.8858227578148246,-9.61971814611256,-1.6872233113631605,50,walking
1783066659966732300,6.8941203,0.9290354382060468,0.2597217802882194,-0.0081587565362453,0.2312937974929809,0.5010192394256592,-0.0101004792377352,-0.869779093247652,-9.626586862838268,-1.6561105263493954,50,walking
1783066659986657000,6.914045,1.0501110374134033,-0.0300508548706769,0.0484254466034472,0.2363418489694595,0.417927622795105,-0.0118472408503293,-0.8524396897815167,-9.634442837035657,-1.6190214434050023,50,walking
1783066660006582300,6.9339703,1.0069543980583548,-0.2623608966201544,-0.0626040479511022,0.22161166369915,0.2778734564781189,-0.0122109912335872,-0.8387618044976145,-9.642002458634972,-1.5807158242776989,50,walking
1783066660026507300,6.9538953,0.6713415835488588,-0.5483984369039535,-0.052024201747775,0.1611340641975402,0.268133133649826,-0.0235293116420507,-0.8277128064125776,-9.648207158493996,-1.5483496782019734,50,walking
1783066660046432300,6.9738203,0.3213273187212646,-0.8613222305476665,-0.0886485897898674,0.1098137646913528,0.2827441096305847,-0.0985080674290657,-0.807649604005739,-9.653263272839784,-1.527287747081369,50,walking
1783066660066357200,6.9937452,0.3646243163950741,-1.122207793918252,-0.1687666671216487,0.0591706782579422,0.2286166250705719,-0.169041246175766,-0.7728356263864785,-9.657983871620893,-1.5154044170640408,50,walking
1783066660086282200,7.0136702,0.5551075060885399,-1.3148749765872954,-0.2145814928352832,0.0502197295427322,0.1650829017162323,-0.1487560123205185,-0.7346725575350225,-9.662090722417831,-1.5081959469899535,50,walking
1783066660106207200,7.0335952,0.5793987745191902,-1.5877216113865376,-0.3934504517763852,0.0273684281855821,0.107224203646183,-0.0962709337472915,-0.7074884902723133,-9.665175828951597,-1.5014105246335268,50,walking
1783066660126132200,7.0535202,0.3595123071435839,-1.7222978396147488,-0.3181739692568778,-0.017524130642414,0.1545079052448272,-0.0648962259292602,-0.6885654708765446,-9.666470544937251,-1.5018682052731511,50,walking
1783066660146058000,7.073446,-0.0676074091963469,-1.9211708911865948,-0.3115681412510573,-0.0885116010904312,0.1761482805013656,-0.1079953461885452,-0.6690585141129791,-9.666015786907076,-1.513561711806804,50,walking
1783066660165983200,7.0933712,-0.4405335438601672,-1.5993308006376028,-0.0892845496058464,-0.1754585057497024,0.2606141269207001,-0.264300525188446,-0.6271306859005242,-9.664489600253104,-1.5410169972263277,50,walking
1783066660185908000,7.113296,-0.1152179592203348,-1.3266548462301493,-0.1108686049044132,-0.2716065943241119,0.3207736313343048,-0.317685455083847,-0.55874999077674,-9.66108476024568,-1.5879671105802058,50,walking
1783066660205833200,7.1332212,0.2556857297051698,-1.0108318240135907,-0.3033896571010351,-0.3380710780620575,0.3651257157325744,-0.2223773896694183,-0.4949563677148893,-9.653989833548664,-1.6510269394747912,50,walking
1783066660225758000,7.153146,-0.1166955940248444,-0.3521183244347572,-0.4537520680040121,-0.2981713414192199,0.4815748333930969,-0.1586870998144149,-0.4463907089231536,-9.644571432340143,-1.718536879646033,50,walking
1783066660245683200,7.1730712,-0.8490371878616512,0.4513976138323545,-0.5480401249855756,-0.1513441354036331,0.6775434017181396,-0.2435460984706878,-0.3895131853926926,-9.638248659059403,-1.7671530265159905,50,walking
1783066660265608200,7.1929962,-1.0603786758624016,0.8669768953084945,-0.6107957102365792,0.0081763518974184,0.8774886727333069,-0.3537083864212036,-0.303568100674171,-9.637986208730936,-1.785351677159965,50,walking
1783066660285533200,7.2129212,-0.7472125248301774,0.9524527002811431,-0.6131527947567403,0.1210505291819572,0.9962792992591858,-0.3725856244564056,-0.1984972587957046,-9.642207041296365,-1.777308071435988,50,walking
1783066660305458200,7.2328462,-0.4282786040514707,0.9176754014104604,-0.9162053288578986,0.2434820830821991,1.0049326419830322,-0.2951484024524688,-0.0984457885823678,-9.649628131207823,-1.7450996001400052,50,walking
1783066660325383200,7.2527712,-0.6150432846784591,0.8143892144590615,-0.8922117281995713,0.3585967123508453,1.0967953205108645,-0.1783678233623504,-0.0170259387614147,-9.660215576195716,-1.6882886025071142,50,walking
1783066660345308200,7.2726962,-0.9012838732536882,0.5391740969628095,-0.9672148006051778,0.4275233745574951,1.1502625942230225,-0.1049692332744598,0.0464043343056924,-9.673352705666424,-1.6107421292290092,50,walking
1783066660365234200,7.2926222,-1.0427280144900084,0.4052618856012821,-0.935471754863858,0.4248233735561371,1.0865342617034912,-0.0877470299601554,0.0998614640665706,-9.686833534008263,-1.5250192176274957,50,walking
1783066660385159200,7.3125472,-0.8884794828686863,0.2594236741244792,-0.582512303429842,0.244597241282463,1.1264965534210205,-0.0427524670958519,0.1458281741399783,-9.697067343252897,-1.4546537418946623,50,walking
1783066660405084200,7.3324722,-0.6015672421095892,0.099749829518795,-0.5065158360727131,-0.0179443843662738,1.207412838935852,0.0718679279088974,0.177344763314817,-9.700350018185375,-1.4290470069512724,50,walking
1783066660425009200,7.3523972,-0.6370154625117779,0.0991968718111515,-0.7333242116659879,-0.19504976272583,1.2676608562469482,0.1650369018316269,0.1885515457774512,-9.697401689773798,-1.447494225528836,50,walking
1783066660444934100,7.3723221,-0.8417266456525773,0.3307651552826166,-0.9414544825352728,-0.2428755760192871,1.3379870653152466,0.172459065914154,0.1928981053480878,-9.691496265122296,-1.4859668717861174,50,walking
1783066660464859100,7.3922471,-0.948892304385826,0.4836602995336055,-0.9860627089381218,-0.2089862078428268,1.4551594257354736,0.0970089733600616,0.2074380142888054,-9.685175245407224,-1.5247062061555685,50,walking
1783066660484784000,7.412172,-0.6075295480474829,0.7695452796041965,-0.9227151491433382,-0.1491255015134811,1.569663405418396,0.0496368929743766,0.2419649551276117,-9.68001567068696,-1.5521413255698977,50,walking
1783066660504709000,7.432097,0.0248285536451265,0.8154325860321521,-0.9185514535926282,-0.093170627951622,1.6731406450271606,0.1475053131580352,0.2751949149584397,-9.676671620956062,-1.5673779115378856,50,walking
1783066660524634000,7.452022,0.2793487832348794,0.8723129956394433,-0.7891741091817617,-0.0574238561093807,1.7992593050003052,0.2875893115997314,0.2867302169893868,-9.675642862430214,-1.5716583653360603,50,walking
1783066660544559400,7.4719474,0.1093926140677183,0.8278729654103517,-0.6470989035002886,-0.1068472266197204,1.9079676866531368,0.3225089609622955,0.2841541742226108,-9.675195703184604,-1.5748694363370537,50,walking
1783066660564484000,7.491872,0.0586736131669953,0.6773088944554329,-0.3393155414849519,-0.2926823794841766,2.1305768489837646,0.3363807797431946,0.2857922237532213,-9.670828155624866,-1.6011849040716886,50,walking
1783066660584409300,7.5117973,0.1451623397755436,0.1935907272547483,-0.7619225296407938,-0.3897675573825836,2.226469755172729,0.3664858639240265,0.2887866380625404,-9.661311554738878,-1.65711853434816,50,walking
1783066660604335000,7.531723,0.0681350680659525,0.1614279947966337,-1.122166877385974,-0.3489619493484497,2.3203091621398926,0.3701227307319641,0.2947362854482606,-9.65084627482593,-1.7160099915169178,50,walking
1783066660624260000,7.551648,0.1091591158390976,0.1062602343261241,-1.2679616881124671,-0.2846335768699646,2.4468343257904053,0.4202946424484253,0.3023444954296573,-9.642364277684688,-1.7617507290810346,50,walking
1783066660644185000,7.571573,0.087467362382356,-0.1657148783355951,-1.4277840012781322,-0.2176840901374817,2.5514488220214844,0.5231834053993225,0.3002438150896691,-9.635996496218445,-1.796606938406825,50,walking
1783066660664110000,7.591498,-0.169621731314715,-0.1314648182094097,-1.819043665011972,-0.0013529157731682,2.619781494140625,0.5601151585578918,0.2878352373555302,-9.635081719461082,-1.8035330844081936,50,walking
1783066660684035000,7.611423,-0.5060569863893092,-0.0654208589375019,-1.7537153066635132,0.2055540382862091,2.749417781829834,0.5255254507064819,0.2790569606814533,-9.642169047373534,-1.766658667127788,50,walking
1783066660703960000,7.631348,-0.4386903271462768,-0.1459936942994594,-1.6151159603990612,0.2917872071266174,2.8057994842529297,0.5324190855026245,0.2754357562432997,-9.65407342017889,-1.7010034149125215,50,walking
1783066660723885000,7.651273,-0.3837391320358961,-0.4382581462740897,-1.5611084758795797,0.234600156545639,2.806724548339844,0.5883492827415466,0.2601384713303297,-9.666171854251624,-1.6333552353143692,50,walking
1783066660743810300,7.6711983,-0.9323788303498178,-0.3402870168656111,-1.4278871693916615,0.1247311681509018,2.9349594116210938,0.5564990043640137,0.2397063625458627,-9.674808749693632,-1.5846170694999395,50,walking
1783066660763735000,7.691123,-1.040054119105637,-0.1289303312957286,-1.565419909337908,0.0810038968920707,2.984825849533081,0.4817289710044861,0.2329090488222427,-9.680264677011966,-1.5519804359197615,50,walking
1783066660783660300,7.7110483,-0.8389619301795959,-0.0202057526826858,-1.6124176612257957,0.0382155776023864,2.9844181537628174,0.4864463806152344,0.2314332041160203,-9.684391401553151,-1.526231369896233,50,walking
1783066660803585300,7.7309733,-0.914465353322774,0.2459288172572851,-1.5343940719552338,0.0023012948222458,3.008169174194336,0.4854937195777893,0.2282272111489437,-9.687015320315956,-1.50998312266767,50,walking
1783066660823510300,7.7508983,-0.9523013091117144,0.2947685437500477,-1.805333996350318,0.0638867318630218,3.0074031352996826,0.490720123052597,0.2232669218604452,-9.690065940058233,-1.4910324846126135,50,walking
1783066660843435300,7.7708233,-1.1010245745055376,0.4128367047697305,-1.816974603652954,0.1005203202366828,3.012408971786499,0.4671902358531952,0.2193598679519258,-9.694707628384233,-1.4611363819122314,50,walking
1783066660863360300,7.7907483,-1.046767279943451,0.4131722203344106,-1.7887194000273945,0.1033497601747512,2.98970103263855,0.489275574684143,0.2134354463390074,-9.699681909665465,-1.428639010672271,50,walking
1783066660883283500,7.8106715,-1.147665548845008,0.5500204851478337,-1.8761006002299487,0.1417388319969177,2.9331130981445312,0.5039620995521545,0.1998611127611249,-9.705147773855924,-1.3930322752401232,50,walking
1783066660903208200,7.8305962,-1.3668342964053153,0.4962473939061164,-2.050103560569882,0.2060665637254715,2.909062623977661,0.4903026521205902,0.1833502873399294,-9.71182885905504,-1.3480172216020525,50,walking
1783066660923133400,7.8505214,-1.6072925732970236,0.4929705641925335,-2.0887328586936,0.2196506261825561,2.898331880569458,0.4560127556324005,0.1679284444655291,-9.7191762992084,-1.2960697383522986,50,walking
1783066660943058200,7.8704462,-2.001804662955552,0.4306757283210754,-2.0294617545574902,0.1776307076215744,2.9264707565307617,0.3709545433521271,0.1605138756264001,-9.725565123462676,-1.248200025935471,50,walking
1783066660962983400,7.8903714,-2.142090062610805,0.7543512176036834,-2.0556300689063964,0.2127342671155929,2.8486862182617188,0.2426628768444061,0.1722607928477227,-9.731109898108244,-1.2025785308368504,50,walking
1783066660982908200,7.9102962,-1.890245007047057,1.000266006335616,-2.0222849947959185,0.3187210857868194,2.79229736328125,0.1941927373409271,0.1966465711614116,-9.73805401815772,-1.1410538756202906,50,walking
1783066661002833400,7.9302214,-1.818022943662107,1.1771627884209157,-1.8482944555461405,0.3758876919746399,2.8002915382385254,0.1505905240774154,0.2234846379980444,-9.746608496013284,-1.060211429536715,50,walking
1783066661022758100,7.9501461,-1.6489194458015262,1.2413263407737016,-1.6201088002502917,0.3463010191917419,2.7766919136047363,0.0777632221579551,0.2580378457892686,-9.754508309352396,-0.9764029732543974,50,walking
1783066661042683400,7.9700714,-1.2432494177907705,1.176618598541617,-1.5036755469560623,0.2692329287528991,2.6681935787200928,0.071005143225193,0.295893657056149,-9.760728791302444,-0.9005518326520919,50,walking
1783066661062608100,7.9899961,-1.0337687552258372,0.9830658652096986,-1.4184581006586552,0.1525599658489227,2.526564121246338,0.1177344545722007,0.3225410784251988,-9.764996385619044,-0.8433141340397298,50,walking
1783066661082533400,8.0099214,-1.2254644625142217,0.7085363918900489,-1.4704577524870632,0.031152568757534,2.4007997512817383,0.1092734783887863,0.3393105365162715,-9.76729764829874,-0.8094204130705446,50,walking
1783066661102458000,8.029846,-1.5064372667543589,0.6346534095555544,-1.3605571158319711,-0.1073766127228736,2.3428995609283447,0.0230116732418537,0.363505212704651,-9.767186004617807,-0.800209736328572,50,walking
1783066661122383400,8.0497714,-1.4959779781907796,0.5393325023949146,-1.3391612765818834,-0.2651958763599396,2.2942957878112797,-0.0542667545378208,0.4046708609055727,-9.764041861373183,-0.818613042699173,50,walking
1783066661142308400,8.0696964,-1.375722682390362,0.6551239506542682,-1.19625904549174,-0.374537855386734,2.304072141647339,-0.0832970365881919,0.4572469609150663,-9.75787807804644,-0.8632032950539141,50,walking
1783066661162233300,8.0896213,-1.1099493469782171,0.8641314427495003,-1.306332189169526,-0.3288831114768982,2.217176675796509,-0.0744525641202926,0.5140923722742126,-9.750659817230702,-0.9114467361539602,50,walking
1783066661182159000,8.109547,-0.8436133361820131,1.1314409016877411,-1.1805758117347955,-0.1963343322277069,2.114966630935669,0.0033255077432841,0.5613968154910951,-9.745329562118648,-0.9400883087486028,50,walking
1783066661202084400,8.1294724,-0.7021054820597171,1.045772204491496,-1.1665916369806977,-0.1224889159202575,1.9735037088394165,0.0847947672009468,0.5912239811411127,-9.743008425694704,-0.9458426344916224,50,walking
1783066661222009000,8.149397,-0.9137281250894068,1.1955553542017936,-0.6679447807174176,-0.1403741538524627,1.974711537361145,0.0400684960186481,0.6144528445046394,-9.741507958003876,-0.9464948147900402,50,walking
1783066661241934300,8.1693223,-0.5501683691859245,1.0712748945385218,-0.5893738597624003,-0.169807881116867,1.8979259729385376,0.0128011144697666,0.6471334633570164,-9.738732648071649,-0.953239759005606,50,walking
1783066661261859000,8.189247,-0.1153515224721282,0.8322223927915096,-0.604124854170531,-0.2259497791528701,1.794500708580017,0.0586427152156829,0.6760435506947338,-9.735508425328137,-0.966022302884981,50,walking
1783066661281784300,8.2091723,0.164464074556902,0.6661158847898244,-0.3933317207675427,-0.336372435092926,1.7124236822128296,0.163088172674179,0.6901162074498832,-9.731310973638296,-0.9978489352565258,50,walking
1783066661301709300,8.2290973,0.4257800652340054,0.3567021450936794,-0.6035771571598947,-0.3596246242523193,1.4751291275024414,0.3157690763473511,0.6768993638064712,-9.727306998693942,-1.0448305397272108,50,walking
1783066661321634300,8.2490223,0.1961738756157457,0.0637152240633964,-0.5937280363839119,-0.376058429479599,1.3042744398117063,0.4264439046382904,0.6329680868171155,-9.724467975875736,-1.0974755767870694,50,walking
1783066661341559300,8.2689473,-0.2809377694593742,-0.143887077409029,-0.374824223370105,-0.3995934724807739,1.3534897565841677,0.4325729012489319,0.5764720734175295,-9.720973119497298,-1.1579139711368829,50,walking
1783066661361484300,8.2888723,-0.63972501373142,-0.0788473267436027,-0.3146001293580979,-0.3799077272415161,1.4608309268951416,0.2916782200336456,0.5387196311935782,-9.715681442829966,-1.218886326232925,50,walking
1783066661381409300,8.3087973,0.0218675484150648,-0.4902385088801383,-0.6256095407478511,-0.3368445634841919,1.3489692211151123,0.2589037716388702,0.5244593429118395,-9.709658529278636,-1.2719446202687918,50,walking
1783066661401334300,8.3287223,0.5481894703283906,-1.1407207712084055,-0.5246877448402345,-0.4165652096271515,1.268365502357483,0.3924865126609802,0.4958320911034941,-9.70351578873992,-1.3290227444052696,50,walking
1783066661421259500,8.3486475,0.3243039964444935,-1.1678700594186782,-0.2760549293212592,-0.5963229537010193,1.3420759439468384,0.4543903470039367,0.4475267272157594,-9.69372446256578,-1.414849700903147,50,walking
1783066661441184300,8.3685723,0.3169533414207399,-0.7882517336398362,-0.3569732171200215,-0.660650372505188,1.35336172580719,0.4359166920185089,0.4020553446449339,-9.67859878962636,-1.5275626184999942,50,walking
1783066661461109500,8.3884975,0.7577601492643355,-0.747981098049879,-0.6789705440573394,-0.6054465174674988,1.2445781230926514,0.4790478646755218,0.355693150714226,-9.662006551265716,-1.6399636936686932,50,walking
1783066661481034200,8.4084222,0.7331580613188445,-0.7194511691361666,-0.4546054699629545,-0.5724471807479858,1.2933392524719238,0.5282783508300781,0.3000895926423371,-9.645496730491518,-1.744917521571368,50,walking
1783066661500959500,8.4283475,0.5459842153690755,-0.6848351983070373,-0.506800644363463,-0.4885336756706238,1.3586554527282717,0.5047594904899597,0.2473943962978199,-9.629085109394788,-1.8411627039700744,50,walking
1783066661520885200,8.4482732,0.6296678031627089,-0.4755009584754705,-0.4843155485719442,-0.3181526362895965,1.3343112468719482,0.4527648389339447,0.206656691185385,-9.615909401479362,-1.913627197808772,50,walking
1783066661540810200,8.4681982,0.6528932689927518,-0.4976052382558584,-0.4380564862221479,-0.1494926810264587,1.2427363395690918,0.4070207774639129,0.1734054876371286,-9.608768882074951,-1.9524040877096356,50,walking
1783066661560735200,8.4881232,0.4989790108270943,-0.3172995245099067,-0.0136661217808723,-0.0433210618793964,1.261099934577942,0.3273740112781524,0.1511964323080144,-9.606516719233989,-1.965290895681083,50,walking
1783066661580660200,8.5080482,0.5914771156519651,-0.1608317824691534,0.4333008161276578,-0.090574525296688,1.3588600158691406,0.2667161524295807,0.146535582623817,-9.60511678930819,-1.972473500661552,50,walking
1783066661600585200,8.5279732,0.8780825189515947,0.0148649761766195,0.6173248197443783,-0.18235544860363,1.4040240049362185,0.2403023391962051,0.1532198187612462,-9.600350013297795,-1.995037799169123,50,walking
1783066661620510500,8.5478985,1.1087733620014042,0.0981990929454564,0.5676632554747164,-0.247828871011734,1.3721729516983032,0.2474119812250137,0.1631463247555307,-9.592554829376937,-2.031418441583216,50,walking
1783066661640435200,8.5678232,1.1255220330327749,0.1614373471468687,0.6589413169853389,-0.2949455678462982,1.368627905845642,0.2889715731143951,0.1680949784051627,-9.582170213484764,-2.079450504954904,50,walking
1783066661660360400,8.5877484,1.033343442485854,0.0643371553540229,0.2801100499309599,-0.2332041412591934,1.2359291315078735,0.2907045185565948,0.1670493600760586,-9.57156172570884,-2.127834888895601,50,walking
1783066661680285200,8.6076732,0.9513898202899844,0.0956464858531951,0.169948570382595,-0.1235421523451805,1.1455392837524414,0.2786485552787781,0.1635598009272478,-9.565162964582443,-2.1566867432400585,50,walking
1783066661700210400,8.6275984,0.8813377213552593,0.0015419687449932,0.1281986560203135,-0.0520500503480434,1.1321040391921997,0.2990137934684753,0.1584938775734976,-9.562336801245808,-2.1695544081196187,50,walking
1783066661720135200,8.6475232,0.7604394514761865,-0.3902227219015359,-0.1683580863207578,0.0097648492082953,1.102502703666687,0.3346178531646728,0.1453170188806019,-9.562473579367994,-2.169878817768395,50,walking
1783066661740060400,8.6674484,0.0412291601574979,-0.3643377545386552,-0.1830352848403155,0.0486069358885288,1.1604827642440796,0.1924376785755157,0.141178969227802,-9.564266308003663,-2.162234586625546,50,walking
1783066661759985200,8.6873732,-0.0341860549792647,-0.2533674428254365,-0.211213769967854,0.1371073871850967,1.155720829963684,0.0155940819531679,0.1731994436710141,-9.568395370632407,-2.1415376894250517,50,walking
1783066661779910400,8.7072984,0.4398063986293971,-0.2196545583158731,-0.2336056345179676,0.2152593731880188,1.0738791227340698,-0.0206318348646163,0.2233873516360297,-9.575771452358364,-2.103583952475339,50,walking
1783066661799835100,8.7272231,0.6610438422225415,-0.2668424259483814,-0.1218785130880773,0.2939904034137726,1.0168246030807495,0.0509833060204982,0.2638662596818059,-9.586493921902775,-2.0493632635965944,50,walking
1783066661819760400,8.7471484,0.1789891877872869,-0.2880588169783353,-0.0357183791130781,0.3125819265842438,1.0059970617294312,0.013360409066081,0.2949129571894183,-9.599096213844415,-1.985137313532084,50,walking
1783066661839685000,8.767073,-0.3161762926336378,0.0271796833485364,0.1922160779006779,0.2832975685596466,1.028943657875061,-0.1445162296295166,0.3473009872809052,-9.610270518809555,-1.921577572291344,50,walking
1783066661859610400,8.7869984,-0.1578687679450958,-0.0971276643216609,-0.087386607030034,0.2971931099891662,0.893359363079071,-0.2428546994924545,0.4228768546057865,-9.61944049821496,-1.859548401618749,50,walking
1783066661879534800,8.8069228,-0.0212189483132213,-0.1250835927397012,-0.1072229418784379,0.3412396609783172,0.7678883671760559,-0.2522864639759063,0.5018550046548247,-9.6287443331331,-1.7904811490029096,50,walking
1783066661899459600,8.8268476,0.162269231393747,-0.2102759045958518,-0.1333341192126274,0.3127430379390716,0.5962263941764832,-0.2017702311277389,0.5703563670162111,-9.637973349249362,-1.7188804323866962,50,walking
1783066661919384800,8.8467728,0.0651568011738359,-0.3795452605426311,-0.0201237734876573,0.1492999345064163,0.4521434605121612,-0.127640962600708,0.6194352360270917,-9.644228317990898,-1.6659923072859644,50,walking
1783066661939309600,8.8666976,-0.1404006965979933,-0.3799105867236852,0.1004144309073686,-0.1292068064212799,0.4059213399887085,-0.0746658071875572,0.6523109390601516,-9.643414663520456,-1.658142324437946,50,walking
1783066661959234800,8.8866228,-0.3478368477232754,-0.4811766660243272,-0.1479943665973842,-0.3846779763698578,0.2755773961544037,-0.0795381963253021,0.6776381264097988,-9.63357657559514,-1.704518875687569,50,walking
1783066661979159800,8.9065478,-0.6409663190294057,0.0742734429568052,-0.1666023286946117,-0.5235815048217773,0.2831692099571228,-0.0963307917118072,0.7029163600511849,-9.616514966157078,-1.7885626020304857,50,walking
