time,seconds_elapsed,acc_x,acc_y,acc_z,gyr_x,gyr_y,gyr_z,grav_x,grav_y,grav_z,fs_hz,activity
1783069009987240200,0.0,1.177948970362544,-0.2652782453715801,-1.0589362219691276,0.4266933798789978,-1.6646897792816162,-0.7521712183952332,-2.136527606178075,-9.11355784547925,-2.923818239700794,100,walking
1783069009997203500,0.0099633,1.524391441117972,-0.1419172386407852,-1.2639356474667789,0.3265355825424194,-1.8222160339355469,-0.7574761509895325,-2.117405264817924,-9.140552235388755,-2.8525945397034285,100,walking
1783069010007167200,0.019927,1.5894116103000937,0.1069043774485588,-1.3645415092930198,0.2230369001626968,-1.9526246786117556,-0.7869868874549866,-2.100573518612981,-9.164318895423412,-2.788051632644236,100,walking
1783069010017130500,0.0298903,1.1908357783339918,0.7547434317916631,-1.563255278649926,0.153510496020317,-2.020620584487915,-0.8288624882698059,-2.0811795207045973,-9.186373490843176,-2.72939866040647,100,walking
1783069010027093200,0.039853,1.43486577623263,0.6709475427299737,-0.8832841792479157,0.0797193646430969,-2.027935266494751,-0.8507089018821716,-2.05885443778038,-9.206874427080152,-2.676743759539723,100,walking
1783069010037056300,0.0498161,1.6359594264633952,0.6646791299849748,-0.7460124283254146,0.0130909178406,-1.833834409713745,-0.8332047462463379,-2.0324992225572465,-9.225296803477406,-2.6331042320385576,100,walking
1783069010047019300,0.0597791,1.9140680734440685,0.474783750116825,-0.5510840227261186,-0.0589920617640018,-1.5726372003555298,-0.7660601139068604,-2.0031024476811288,-9.240853269049524,-2.600881878347695,100,walking
1783069010056982300,0.0697421,1.770239448224008,0.1981990978330373,-0.375683032156527,-0.1168539524078369,-1.385324001312256,-0.6958386301994324,-1.9737462970763444,-9.253068607500197,-2.5798086951807138,100,walking
1783069010066945300,0.0797051,1.5299083048433064,0.4482026171833276,-0.6881400850713253,-0.1625620573759079,-1.3614593744277954,-0.6529783010482788,-1.9467986689180132,-9.262605666652322,-2.5660291761532426,100,walking
1783069010076909300,0.0896691,1.4987065263718369,0.6781716487646102,-1.0209025516510009,-0.2326208502054214,-1.3900692462921145,-0.654565155506134,-1.9217321783311665,-9.270063581442832,-2.557980017471313,100,walking
1783069010086872300,0.0996321,1.520159794897586,0.849569833433628,-1.3618880721747877,-0.279325783252716,-1.3510746955871582,-0.6822047233581543,-1.8953012675233183,-9.27611221395731,-2.5557740318596363,100,walking
1783069010096835300,0.1095951,1.3640012649364768,1.0046791466027498,-1.286102763350308,-0.3117373287677765,-1.2663601636886597,-0.7403044104576111,-1.8630423812143504,-9.281882614052297,-2.55853619004935,100,walking
1783069010106798000,0.1195578,1.0340163002461191,1.0458476078152656,-1.055802892379463,-0.3352320194244385,-1.257667064666748,-0.8236021995544434,-1.822456688325852,-9.288035875985026,-2.565426826345921,100,walking
1783069010116761000,0.1295208,0.9151853381603956,1.0885112760215998,-1.2267758373737334,-0.3448086977005005,-1.4522013664245603,-0.8915480375289917,-1.7773973571546375,-9.294637466207146,-2.5731214725017546,100,walking
1783069010126724400,0.1394842,0.7759479862533509,1.1576198835611342,-1.7519614487335085,-0.3226067125797272,-1.7989606857299805,-0.9850071668624878,-1.7322817657515406,-9.302394656205175,-2.575857034945488,100,walking
1783069010136687400,0.1494472,0.8748268781565129,1.2932576035410166,-2.253919329240918,-0.2669034600257873,-2.196498155593872,-1.1246689558029177,-1.6857130529306827,-9.312785701838136,-2.569199915143847,100,walking
1783069010146650400,0.1594102,1.3095162260331212,1.5134125125944613,-2.357472350434959,-0.2493428736925125,-2.7531557083129883,-1.3402882814407349,-1.6343793176651,-9.326739408388732,-2.551688223850727,100,walking
1783069010156614400,0.1693742,1.6776479660272596,1.746173220720887,-2.518000766043365,-0.2987912893295288,-3.200934171676636,-1.5187716484069824,-1.5767920749627051,-9.342824866271018,-2.528976041305065,100,walking
1783069010166577400,0.1793372,1.8301050111219288,1.9238234515219923,-2.193056864260137,-0.3996862173080444,-3.278610944747925,-1.5579129457473757,-1.5148188722610472,-9.357970412954687,-2.5108017944499847,100,walking
1783069010176540400,0.1893002,2.110830708733201,1.9321961430698635,-1.206970189924538,-0.4693093001842499,-2.9032516479492188,-1.42916738986969,-1.452425252190232,-9.369184465408324,-2.505837742301821,100,walking
1783069010186503200,0.199263,2.821645859210193,1.5248860927671193,0.084357906858623,-0.4185214638710022,-2.202500581741333,-1.111325979232788,-1.3966469586059451,-9.37607305587828,-2.5117791150495408,100,walking
1783069010196466200,0.209226,3.81516005319804,0.7697153754740953,1.1268968285173178,-0.2416320741176605,-1.446386694908142,-0.5468899011611938,-1.3631982779905198,-9.37926454539597,-2.5182269760146734,100,walking
1783069010206429200,0.219189,4.591751451921462,0.0117155722349882,1.253556584532559,0.0075194220989942,-0.900444746017456,0.125701829791069,-1.37274702758044,-9.379178620678186,-2.5133552783250805,100,walking
1783069010216392200,0.229152,4.5241234383285045,-0.6941805342793465,0.4508388109058141,0.1994473934173584,-0.4816933572292328,0.6795956492424011,-1.4285704754807054,-9.37613092354536,-2.4935420320913195,100,walking
1783069010226355200,0.239115,4.16034331767261,-0.6466635808229446,-0.009690496148169,0.2655893862247467,-0.1902162581682205,1.0834554433822632,-1.519688085732609,-9.36902956710756,-2.466213003399968,100,walking
1783069010236319200,0.249079,3.9925627389788634,0.2076151609539985,0.1499544146239757,0.1814125180244445,-0.0948846042156219,1.309046983718872,-1.6357706258930265,-9.35571006680727,-2.4424023580931125,100,walking
1783069010246282200,0.259042,2.795477983252704,0.7382073075324297,0.2623790167987346,-0.0921327322721481,-0.3234658539295196,1.2793726921081543,-1.7626792421028017,-9.334887643530964,-2.4337702849566933,100,walking
1783069010256245200,0.269005,1.5126238464348016,1.206367840117216,-0.0690972093626856,-0.3748410642147064,-0.4704560041427612,1.0894362926483154,-1.882827716527879,-9.307599239110946,-2.448256490948796,100,walking
1783069010266208300,0.2789681,1.077901473071426,1.322399526873231,0.4938844641670584,-0.5849325060844421,-0.4833403825759887,0.8885881304740906,-1.9860519441589712,-9.276685045409202,-2.4837650267034768,100,walking
1783069010276171300,0.2889311,0.7752293165899813,1.0094295560002329,1.3067860704168677,-0.6938521862030029,-0.3763942122459411,0.7207791209220886,-2.070941181415319,-9.244285581585764,-2.534712246869504,100,walking
1783069010286134300,0.2988941,0.8635957284376025,0.5657341871082783,1.8341200919821856,-0.6983936429023743,-0.3063384294509887,0.5775763988494873,-2.1388072415478527,-9.212841811051964,-2.5921839003682137,100,walking
1783069010296097300,0.3088571,1.297030546208471,0.0404325481534004,1.7537819421589371,-0.637106716632843,-0.3253448605537414,0.4766651391983032,-2.194856314897537,-9.184038325893878,-2.6469685067400333,100,walking
1783069010306060300,0.3188201,1.531484029727429,-0.3932230727612972,1.0485223799824714,-0.5244691371917725,-0.3769143223762512,0.4261276721954345,-2.245105908188224,-9.158594672557712,-2.6925904402300715,100,walking
1783069010316024300,0.3287841,1.7247611609883606,-0.6883487593859434,0.5035787597075104,-0.3833370804786682,-0.4381957948207855,0.402158260345459,-2.2936837688744065,-9.137006525605916,-2.7247993499174714,100,walking
1783069010325987300,0.3387471,1.86460042431131,-0.9107827192872762,0.3215074975937604,-0.2412206530570984,-0.425413429737091,0.379623144865036,-2.341345829889923,-9.119425860729812,-2.743093131498992,100,walking
1783069010335950300,0.3487101,1.880646719226986,-1.0551800843060015,0.2946943094700575,-0.10811797529459,-0.2927282154560089,0.3795957267284393,-2.385524140442908,-9.105811761397122,-2.7502470949068663,100,walking
1783069010345913000,0.3586728,1.9739618395231664,-1.309765670749545,0.6144052790358662,0.0120811341330409,-0.0497296713292598,0.4502816200256347,-2.427663492514193,-9.094687140792608,-2.750183089759945,100,walking
1783069010355876000,0.3686358,1.990830702868104,-1.692407143741846,0.8161065397709608,0.0983658879995346,0.0758850425481796,0.5556003451347351,-2.472364511767029,-9.084044166225194,-2.7455338026493785,100,walking
1783069010365839400,0.3785992,2.075654765933752,-2.025707370460033,0.5537196319267154,0.1302753388881683,0.0808097571134567,0.6430814266204834,-2.5244176473483444,-9.072315149986744,-2.736931686259806,100,walking
1783069010375802400,0.3885622,1.971452340920269,-1.875268971711397,-0.3163014533832669,0.1490164548158645,-0.0081339180469512,0.6717391014099121,-2.5831705728292462,-9.059198478782177,-2.7255314635843035,100,walking
1783069010385765400,0.3985252,1.9670263411715625,-1.8144769416183235,-0.3239706728368997,0.1522322297096252,-0.1498798578977584,0.617584764957428,-2.643986860580742,-9.046369976869226,-2.709782398049533,100,walking
1783069010395729400,0.4084892,1.778163811482489,-1.7985393677741288,-0.2743599619716406,0.1088541001081466,-0.2121567130088806,0.5317190885543823,-2.7006790541395542,-9.034772478055954,-2.6925045155122875,100,walking
1783069010405692400,0.4184522,1.477291690160334,-2.009308608844876,0.1125707326471805,-0.0096834618598222,-0.2472475916147232,0.4424757361412048,-2.75040842294842,-9.023022419029472,-2.6815491139948366,100,walking
1783069010415655400,0.4284152,1.2212047592431303,-2.321789334896206,0.3003007511749863,-0.1549226939678192,-0.317436546087265,0.3679110705852508,-2.7941949577048417,-9.009667847415804,-2.681184372335672,100,walking
1783069010425618200,0.438378,1.127353047852218,-2.385053308060765,0.1842994595572352,-0.2735912799835205,-0.3652876913547516,0.3109183609485626,-2.8335212981820104,-8.99443871410191,-2.691028597740829,100,walking
1783069010435581200,0.448341,1.1609349994584917,-2.2313515236020085,0.0887482507720589,-0.3034870326519012,-0.3515876233577728,0.2987959682941437,-2.87009541734159,-8.978000789520143,-2.707107041360438,100,walking
1783069010445544200,0.458304,1.1569669726103544,-2.126726197001338,0.1359042619615793,-0.2683085501194,-0.3235125541687011,0.3110715448856354,-2.90637932138294,-8.961418488031626,-2.723287776310742,100,walking
1783069010455507200,0.468267,1.2029214990556238,-2.1618781744033098,0.032398879301548,-0.1850623041391372,-0.2749329805374145,0.3432894945144653,-2.9435061059892176,-8.945721152684092,-2.7350036408066747,100,walking
1783069010465470200,0.47823,1.237304830172658,-2.26020118598938,-0.1088330074235796,-0.0864182859659195,-0.2506827712059021,0.3800581395626068,-2.982976823373139,-8.931343667763471,-2.7392192126750943,100,walking
1783069010475434200,0.488194,1.0800029753953218,-2.305615029686689,-0.3325844796642661,0.0108188278973102,-0.2880474030971527,0.3724217414855957,-3.024094431181252,-8.918850681415199,-2.7348364675462244,100,walking
1783069010485397200,0.498157,0.8534013744205236,-2.2221797906309364,-0.5384703326076269,0.1283212155103683,-0.4155425131320953,0.2842119932174682,-3.063249799005687,-8.910558653888106,-2.7182427678808567,100,walking
1783069010495360300,0.5081201,0.6649591159701347,-2.112311887201667,-0.7197483985170722,0.2590331733226776,-0.5624055862426758,0.123452179133892,-3.0947748180821537,-8.909396624371409,-2.686153100658953,100,walking
1783069010505323300,0.5180831,0.3117974199622869,-2.026023012280464,-0.8214613448023795,0.4019687473773956,-0.6158703565597534,-0.0624452568590641,-3.1133126375526188,-8.917274225878716,-2.6381600541234014,100,walking
1783069010515286300,0.5280461,-0.1063069960772991,-2.1268998000025747,-0.7609738506138324,0.537138044834137,-0.556165337562561,-0.2238608449697494,-3.115689888077974,-8.93401317923367,-2.5780393474206327,100,walking
1783069010525249300,0.5380091,-0.4933297528937458,-2.2917490014195443,-0.6149135208189487,0.6658260226249695,-0.4348423779010772,-0.3236923813819885,-3.1035087441578506,-8.957855242592096,-2.5090704406127333,100,walking
1783069010535212300,0.5479721,-0.7835217825084925,-2.548169986596704,-0.626181349286437,0.7812265753746033,-0.2731592655181885,-0.3444777727127075,-3.082066435417533,-8.98619578641355,-2.4330101142391563,100,walking
1783069010545175300,0.5579351,-0.957919441254437,-2.8705039981424805,-0.6890586612209677,0.8271818161010742,-0.1485321223735809,-0.3211221396923065,-3.05685775988102,-9.01581058795452,-2.3539719410985707,100,walking
1783069010555139300,0.5678991,-0.962740577800572,-3.0410762533813718,-0.7829802229776978,0.8132496476173401,-0.0368973538279533,-0.2843620777130127,-3.0318349623054264,-9.04395473242104,-2.277108773909509,100,walking
1783069010565102300,0.5778621,-0.9612012394040822,-2.884209867411852,-0.8042907220318913,0.7506924867630005,-0.0186259392648935,-0.2811018228530884,-3.0071880123049017,-9.069888799622657,-2.205519893861562,100,walking
1783069010575065300,0.5878251,-0.9256038563221692,-2.5274106916844845,-0.5879647236168384,0.6322044730186462,-0.0880040824413299,-0.3600092828273773,-2.979638326600194,-9.094343441921472,-2.141275385227054,100,walking
1783069010585028000,0.5977878,-0.970345792107284,-1.863099810490012,-0.6188263103485107,0.5093041062355042,-0.1564174890518188,-0.4774333834648132,-2.944323852112889,-9.118654291835426,-2.086023161343485,100,walking
1783069010594991000,0.6077508,-1.061319025452435,-1.219458207836747,-0.3504486376568674,0.4259949922561645,-0.1546301990747451,-0.5816113352775574,-2.8992887786000967,-9.143692871502042,-2.03896461917907,100,walking
1783069010604954400,0.6177142,-1.2127578334152698,-0.8296277001231909,0.0228302559673786,0.3672166466712951,-0.0924661681056022,-0.6451290845870972,-2.8455636181533337,-9.169306620708108,-1.9992435802958903,100,walking
1783069010614917400,0.6276772,-1.3908695442482828,-0.609955606150627,0.2360224864013493,0.3050898313522339,-0.0015681344084441,-0.6772585511207581,-2.7856653220295904,-9.194598882874846,-1.9671796320371329,100,walking
1783069010624880400,0.6376402,-1.4945216419026257,-0.395155502128601,0.3353099591054022,0.2507861256599426,0.0739300847053527,-0.6645771265029907,-2.7231638576701283,-9.218461404499411,-1.942866736296564,100,walking
1783069010634843400,0.6476032,-1.4698042570143937,-0.2764636562526226,0.4309118751645088,0.206518217921257,0.1033932641148567,-0.6188554167747498,-2.6624384630724784,-9.240039030057192,-1.9244445060297848,100,walking
1783069010644807400,0.6575672,-1.4707991132706404,-0.1392202546417713,0.4637731112807989,0.1810482740402221,0.1080303564667701,-0.596206545829773,-2.604431679783761,-9.259666690590976,-1.9094221473343669,100,walking
1783069010654770400,0.6675302,-1.5282143604069949,0.1349795483320951,0.5688128639012575,0.1494709402322769,0.1039765402674675,-0.6156315803527832,-2.5467168651789427,-9.278286050865054,-1.8968467433996496,100,walking
1783069010664733200,0.677493,-1.6588304528325797,0.4041185607850551,0.7732920649170875,0.1260625571012497,0.0386537201702594,-0.6948028206825256,-2.4849340704828498,-9.297230989831686,-1.8859972864747043,100,walking
1783069010674696200,0.687456,-1.767701892570406,0.7697370027840137,0.937147725252062,0.1016708090901374,-0.0553322881460189,-0.8158339262008667,-2.4151178991958497,-9.317785117560623,-1.8752257170915605,100,walking
1783069010684659500,0.6974193,-1.8148145030096168,1.2687047615647316,1.0764537584811449,0.08284492790699,-0.1632813960313797,-0.9381659626960754,-2.335384437267482,-9.34030674597025,-1.8641462508030235,100,walking
1783069010694622500,0.7073823,-1.8041944709263744,1.663037256872654,1.2391314610779285,0.0823972895741462,-0.25888392329216,-1.0375514030456543,-2.246944229531288,-9.36443522505462,-1.8517478108704089,100,walking
1783069010704585500,0.7173453,-1.8186681096978483,1.865835957455635,1.41087685174942,0.0685757473111152,-0.3505805432796478,-1.1127854585647583,-2.1518160684637726,-9.389464452371,-1.8379424267493187,100,walking
1783069010714548500,0.7273083,-1.7411026394583284,2.017287332639098,1.437725695708394,0.0591124147176742,-0.4472095370292663,-1.1388888359069824,-2.053108295343816,-9.414322999295592,-1.823641221935302,100,walking
1783069010724512500,0.7372723,-1.7008796424023809,2.125588717404008,1.3559762177824972,0.0498206466436386,-0.547580897808075,-1.1028873920440674,-1.9564128849595783,-9.437779862728714,-1.8086301152862607,100,walking
1783069010734475500,0.7472353,-1.7282678539350629,2.041175573226809,1.3061119705475863,0.0200737603008747,-0.7093449234962463,-1.0437908172607422,-1.866625792659074,-9.45886064468026,-1.7933320083893836,100,walking
1783069010744438500,0.7571983,-1.5535400864519178,1.9386171160280703,1.029453522375226,-0.0027231641579419,-0.8748742341995239,-0.9756424427032472,-1.785473549973965,-9.477359593445062,-1.778240383850038,100,walking
1783069010754401500,0.7671613,-1.3921201288312672,1.993127873894572,0.8190281263060867,-0.0288321785628795,-0.9870049357414246,-0.8952556848526001,-1.713458553468436,-9.493412318101525,-1.763390897503495,100,walking
1783069010764364500,0.7771243,-1.3430280350126325,1.991544988617301,0.9194296977318824,-0.0997383072972297,-1.0775729417800903,-0.8139491081237793,-1.6506215735442935,-9.50664414011836,-1.7520131789207458,100,walking
1783069010774327600,0.7870874,-1.292860274786502,1.9029086737871168,0.9513801026135682,-0.1932480037212371,-1.1746339797973633,-0.7314103841781616,-1.596941275152564,-9.516619590687752,-1.747601792219281,100,walking
1783069010784290600,0.7970504,-1.2657827366381882,1.800306961968541,0.9089046504557132,-0.293650209903717,-1.266771674156189,-0.6552101969718933,-1.5524920387037098,-9.523253329613803,-1.7515141433574255,100,walking
1783069010794253600,0.8070134,-1.1843094453051686,1.7821721703410147,0.8875463667370378,-0.3759704530239105,-1.3555290699005127,-0.5825717449188232,-1.5167989401623605,-9.526815406009554,-1.763374969282001,100,walking
1783069010804217600,0.8169774,-1.0449687791541218,1.801267331433296,0.8964759615153074,-0.4376924037933349,-1.4505068063735962,-0.513043224811554,-1.4895928071983158,-9.527805001568794,-1.7811334749430416,100,walking
1783069010814180600,0.8269404,-0.9016868280313908,1.8468699757009743,0.7968563342474401,-0.4826620519161224,-1.4656177759170532,-0.4345549046993255,-1.4706677419759333,-9.526572244903443,-1.8033191493965683,100,walking
1783069010824143600,0.8369034,-0.9103267922133208,1.8220915082752704,0.8837230090565978,-0.5275291800498962,-1.446264624595642,-0.3698529005050659,-1.4587354582503438,-9.523339838853476,-1.829881577629596,100,walking
1783069010834106400,0.8468662,-0.913183642949164,1.869098174121976,0.90567005244866,-0.5674088001251221,-1.395182490348816,-0.3029543459415436,-1.4528861477002502,-9.518122980988023,-1.8614054276622831,100,walking
1783069010844069400,0.8568292,-0.8013558376237749,1.9615046551406383,0.8761170640975237,-0.5858996510505676,-1.3685312271118164,-0.2327720522880554,-1.4532337920941412,-9.511170677632093,-1.8963462465316057,100,walking
1783069010854032600,0.8667924,-0.6066023501999676,2.0180653312742707,0.784962336705625,-0.5679627060890198,-1.3635263442993164,-0.1564977914094925,-1.4607907833449545,-9.502938855859636,-1.9314858028434216,100,walking
1783069010863995600,0.8767554,-0.3772762926973402,2.0832494588464496,0.6196165839433669,-0.5152116417884827,-1.4004454612731934,-0.0926596969366073,-1.4758357922635972,-9.494202007174492,-1.9627637152910231,100,walking
1783069010873958700,0.8867185,-0.2011142546273767,2.0664578985214237,0.5162218220509588,-0.4456742405891418,-1.4729565382003784,-0.075011171400547,-1.496374576292932,-9.485938621219992,-1.9870096832752224,100,walking
1783069010883922700,0.8966825,-0.011435147858411,2.1269974151581525,0.4095845711059868,-0.3927053213119507,-1.5297281742095947,-0.0859319940209388,-1.5187588420584797,-9.478841940957308,-2.0038231631711123,100,walking
1783069010893885700,0.9066455,0.0696202103234827,2.0968062750339507,0.4457604847282171,-0.3645648956298828,-1.5546472072601318,-0.0980450585484504,-1.5408571304894982,-9.472742455038428,-2.0157580772452057,100,walking
1783069010903848700,0.9166085,0.022591624905914,1.9316665662378072,0.5868737135097384,-0.3639630377292633,-1.5253385305404663,-0.0693092867732048,-1.563559522293508,-9.466816572120786,-2.026087894210219,100,walking
1783069010913811500,0.9265713,0.0217554663427174,1.6189181291610002,0.7813901773072779,-0.3838742971420288,-1.5259162187576294,0.0099678728729486,-1.5911543623141944,-9.459778344047068,-2.0374479310058056,100,walking
1783069010923774500,0.9365343,0.2796430169411003,1.3335785080134868,0.6573692453630268,-0.3985531032085418,-1.568683624267578,0.1321840584278106,-1.6292245652504265,-9.450669739440084,-2.0495972184829414,100,walking
1783069010933737500,0.9464973,0.5512604022063314,1.1564052470743655,0.4019783338859677,-0.4013718068599701,-1.5938940048217771,0.2919879555702209,-1.6814733695343136,-9.438997421824933,-2.061160376635194,100,walking
1783069010943700500,0.9564603,0.8172595091983675,1.0037076712220907,0.2929543339349329,-0.4032267034053802,-1.5894020795822144,0.4717305302619934,-1.7499506934329867,-9.42426454759538,-2.071546892223507,100,walking
1783069010953663500,0.9664233,0.9553646422050892,0.7762275338470935,0.2537674019284546,-0.4349968731403351,-1.5701634883880615,0.6625309586524963,-1.8358321565970777,-9.405528282943369,-2.0823387737423182,100,walking
1783069010963626500,0.9763863,0.9806294318430124,0.5614718534886837,0.191035343683511,-0.5056263208389282,-1.4963932037353516,0.8523959517478943,-1.9387588625863192,-9.381561131900549,-2.097118994244933,100,walking
1783069010973590500,0.9863503,0.8793963780291378,0.2276473106354475,0.3385173768445849,-0.604707658290863,-1.3560550212860107,1.0065016746520996,-2.0558470726579428,-9.351350118032098,-2.120401670154929,100,walking
1783069010983553500,0.9963133,0.832691763868928,-0.0290028071224689,0.5804366661995649,-0.6515878438949585,-1.1016895771026611,1.0811623334884644,-2.1797293267838658,-9.315715325549244,-2.153277519318461,100,walking
1783069010993516500,1.0062763,1.0954416598066687,-0.1253250002801418,0.9041356824882328,-0.5761085748672485,-0.7999739050865173,1.074773907661438,-2.3004729906231165,-9.27805165758729,-2.189971319334954,100,walking
1783069011003479600,1.0162394,1.7244107401154931,-0.2400824293166399,0.9341495663493872,-0.3422137498855591,-0.5471794605255127,1.043147325515747,-2.4130428464874623,-9.242901433750989,-2.21729216471985,100,walking
1783069011013442600,1.0262024,2.622173380440473,-0.9155681999981404,0.341534678839147,-0.0089128306135535,-0.401468276977539,0.9927701950073242,-2.517128367123008,-9.213851280355453,-2.222479796490818,100,walking
1783069011023405600,1.0361654,3.310784005632996,-1.8747826494991775,-0.4632825512848794,0.3781270384788513,-0.3512834012508392,0.9075373411178588,-2.61287363717556,-9.193611625403165,-2.1956275915309784,100,walking
1783069011033368600,1.0461284,3.1053754148125647,-2.579011115062237,-0.7914607588142156,0.6578171849250793,-0.2911661267280578,0.7199133038520813,-2.695069105303287,-9.18325272847414,-2.1388925817437467,100,walking
1783069011043331600,1.0560914,2.2488699368968605,-2.671615164479613,-0.28948621943295,0.7726678252220154,-0.2369987517595291,0.394503504037857,-2.752250835944712,-9.1831247181803,-2.065360604804009,100,walking
1783069011053295600,1.0660554,1.573617974971235,-2.0176035589814183,0.2898167665615677,0.7551336288452148,-0.2001149952411651,0.0009640074567869,-2.7747584358289834,-9.193244545656444,-1.9888019735194744,100,walking
1783069011063258600,1.0760184,1.142821250618994,-1.227573125231266,0.6680296094566583,0.6383633017539978,-0.1118080466985702,-0.3277174830436706,-2.7621996907681226,-9.211595610383153,-1.9201972238488492,100,walking
1783069011073221400,1.0859812,1.0663234096109866,-0.8790104474514723,0.7716171174421906,0.5044112801551819,0.0070556695573031,-0.4842815101146698,-2.7246070422157644,-9.233796920797229,-1.8665150257609784,100,walking
1783069011083184400,1.0959442,1.1898068736776708,-1.0693541556090116,0.6317299233242869,0.4043632447719574,0.075686402618885,-0.5035268664360046,-2.6776532756000755,-9.255639334771036,-1.8258380013272164,100,walking
1783069011093147400,1.1059072,1.368589615640044,-1.2998761448979377,0.0722032125540077,0.3418926000595093,0.1452113389968872,-0.4507029056549072,-2.6313810615077613,-9.27501214376092,-1.7945318856984376,100,walking
1783069011103110700,1.1158705,1.6158981968179345,-1.0891676941037178,-0.2909555613331496,0.3280385732650757,0.2153893709182739,-0.3460553288459778,-2.591086168259382,-9.291341931793092,-1.768506633082032,100,walking
1783069011113073700,1.1258335,1.6881988783970474,-0.7522299876660108,-0.4262169953465461,0.3373166620731354,0.2918697893619537,-0.2267257571220398,-2.5601374877661467,-9.304465032738449,-1.7444259386621417,100,walking
1783069011123036700,1.1357965,1.690445196019113,-0.5752981342673301,-0.5724916985444725,0.3627652823925018,0.3411204218864441,-0.1279344707727432,-2.5382918589219448,-9.314998701712488,-1.7199559526637196,100,walking
1783069011133000700,1.1457605,1.5760580615997313,-0.4503016352891921,-0.802554984280467,0.3749703764915466,0.3780752122402191,-0.05984353646636,-2.523712713949382,-9.323577729487418,-1.6947466926053163,100,walking
1783069011142963700,1.1557235,1.3005039214074612,-0.3245914350837469,-0.9516935524769128,0.3781214356422424,0.4429309070110321,-0.0102746533229947,-2.513616559609771,-9.330776116558908,-1.669957265394181,100,walking
1783069011152926500,1.1656863,0.9622522097617388,-0.238482008382678,-0.916076149520278,0.3948596119880676,0.5160155296325684,0.0225584208965301,-2.50636264295876,-9.336977893808484,-1.646018609793484,100,walking
1783069011162889500,1.1756493,0.7194330489575862,-0.3366284943580627,-0.9371423184245824,0.4297334551811218,0.5581462383270264,0.0477149076759815,-2.500719084113836,-9.342829542446136,-1.621211939186603,100,walking
1783069011172852500,1.1856123,0.6311079920336604,-0.4931207863181829,-1.15190209043622,0.4947535097599029,0.5910729169845581,0.0711249783635139,-2.497088618656993,-9.34869463508725,-1.5927506915949283,100,walking
1783069011182815500,1.1955753,0.5743620224609971,-0.6929436859607696,-1.3686147500813006,0.5824801325798035,0.6146754622459412,0.0968729481101036,-2.4954098717898128,-9.355071184381842,-1.5575482991799712,100,walking
1783069011192778500,1.2055383,0.6017845746546984,-0.8490501934736967,-1.497173471585661,0.6798248291015625,0.6144989132881165,0.1471456587314605,-2.49709446387589,-9.36177155880332,-1.51398388274163,100,walking
1783069011202741500,1.2155013,0.67180299051553,-0.9823796365112064,-1.6108575723022225,0.7693672180175781,0.5697266459465027,0.230834424495697,-2.505611824591458,-9.367904362469911,-1.4610526491515337,100,walking
1783069011212704800,1.2254646,0.7185796469986439,-1.3359434835791586,-1.8650445148169996,0.854470431804657,0.5513293147087097,0.3628985285758972,-2.525005091847479,-9.372123441469668,-1.3992996650718152,100,walking
1783069011222668500,1.2354283,0.5018050280332566,-2.045602157497406,-2.2181103492349385,0.951521098613739,0.6009341478347778,0.5173288583755493,-2.55842454636842,-9.373243385410309,-1.32934861535877,100,walking
1783069011232631600,1.2453914,-0.0559957357272505,-3.1800019089907408,-2.48047592203021,1.051014065742493,0.701919436454773,0.6328135132789612,-2.604111946310103,-9.37130043464899,-1.2520843200229108,100,walking
1783069011242594600,1.2553544,-0.6949956500545144,-4.372886582678556,-2.697255801692605,1.0557734966278076,0.7696164846420288,0.6370444893836975,-2.655091315180063,-9.367287107354402,-1.1725219038125128,100,walking
1783069011252557600,1.2653174,-1.4581518131434916,-4.964556590554118,-2.8222283352732656,0.947278618812561,0.7795032858848572,0.4915955662727356,-2.6998282825291158,-9.3633936070472,-1.0991744896594435,100,walking
1783069011262520600,1.2752804,-2.2530554058879613,-4.6276516173422335,-2.59297475848496,0.7902799248695374,0.7844964265823364,0.2210633903741836,-2.7252374490737914,-9.362865199258923,-1.0393286543752998,100,walking
1783069011272483600,1.2852434,-2.820558356234431,-3.78896441245079,-2.166488298547268,0.6879593133926392,0.8452610373497009,-0.0732600837945938,-2.7236645006686446,-9.36837081093788,-0.992810210436955,100,walking
1783069011282446600,1.2952064,-3.051313862018287,-2.935851791843772,-1.7095102542340754,0.6558711528778076,0.9329450726509094,-0.3011667430400848,-2.6970141018912197,-9.380070601081847,-0.9543381487015634,100,walking
1783069011292409600,1.3051694,-2.9334967531502247,-2.4635183574885127,-1.587524627509713,0.6314794421195984,0.9454916715621948,-0.4618970453739166,-2.652325357598066,-9.39630920369923,-0.9192042914781718,100,walking
1783069011302373600,1.3151334,-2.6743334835276005,-2.1224854906916617,-1.9267144967883825,0.6027085185050964,0.9547812938690186,-0.5982373356819153,-2.5939573397815225,-9.415770860016345,-0.8860234680186957,100,walking
1783069011312336400,1.3250962,-2.413892449054122,-1.325232119950652,-1.978534700396657,0.5419601202011108,1.0299232006072998,-0.6925164461135864,-2.524447457964718,-9.43730230834484,-0.8572476015198975,100,walking
1783069011322299400,1.3350592,-2.072672535252571,-0.4397960233658552,-1.5965303562641142,0.4465113282203674,1.103382229804993,-0.7110475301742554,-2.448777299952507,-9.45903074055016,-0.8370262859418988,100,walking
1783069011332262400,1.3450222,-1.6743942249283197,0.1491851838171482,-1.3298118489563464,0.2896865308284759,1.145501971244812,-0.6579589247703552,-2.3745000576034188,-9.478640865427256,-0.8291596442200243,100,walking
1783069011342225700,1.3549855,-1.3485907837063074,0.5865513496875763,-1.197074526593089,0.1122680753469467,1.1774539947509766,-0.5808969140052795,-2.306158050522208,-9.494777176713942,-0.8373981149289756,100,walking
1783069011352188700,1.3649485,-1.121552398749441,1.2768120801746845,-0.930808950684592,-0.041510809212923,1.2092115879058838,-0.5034170150756836,-2.244844773034006,-9.507328615251184,-0.8612509188771247,100,walking
1783069011362151700,1.3749115,-0.9190746006838976,2.133144247350097,-0.6507517269194125,-0.1379601210355758,1.2234710454940796,-0.4315574765205383,-2.189796401159465,-9.516862167271972,-0.8969497895721346,100,walking
1783069011372114700,1.3848745,-0.6933163186654449,2.8428105200529097,-0.6060830755662173,-0.1606329381465912,1.25610089302063,-0.3424676656723022,-2.1415679384328423,-9.523829668197036,-0.9384763435073196,100,walking
1783069011382078700,1.3948385,-0.4932648709639907,3.2397610889047384,-0.7810486703932285,-0.0941279530525207,1.3059403896331787,-0.2407343834638595,-2.1016006697036325,-9.528730884242057,-0.9782405639450996,100,walking
1783069011392041500,1.4048013,-0.3354543360121548,3.3131396288484334,-0.9673613694690169,0.0137240039184689,1.3406968116760254,-0.1521174758672714,-2.0699698521651326,-9.532376547268033,-1.0096505783397705,100,walking
1783069011402004500,1.4147643,-0.333107772886008,3.278684401538968,-1.1575572666537015,0.1426023542881012,1.3554999828338623,-0.1104978621006012,-2.044184691914916,-9.535780218231675,-1.0298450059108435,100,walking
1783069011411967500,1.4247273,-0.4554281845226883,3.260945915752649,-1.2643399904839694,0.2696261405944824,1.3709375858306885,-0.1208085119724273,-2.01942785179913,-9.540187513279914,-1.037834689490497,100,walking
1783069011421930500,1.4346903,-0.6138318630620837,3.288107478922605,-1.2203542798936369,0.3966666460037231,1.3804967403411863,-0.1566581279039383,-1.9919573688104748,-9.546401565489171,-1.033786363947764,100,walking
1783069011431893500,1.4446533,-0.6974060721971094,3.1662498624920845,-1.1918033081918955,0.5151283740997314,1.365217208862305,-0.1798156946897506,-1.9616541466139257,-9.55442880460024,-1.0174464198477566,100,walking
1783069011441856500,1.4546163,-0.6155728615105152,2.938395046585798,-1.3266193365253507,0.6259930729866028,1.340679407119751,-0.1721263527870178,-1.9311098091378809,-9.5636011220932,-0.9893223683211952,100,walking
1783069011451819800,1.4645796,-0.4593744379304349,2.663273452591896,-1.4109563467264177,0.7118887901306152,1.2857664823532104,-0.1459205746650695,-1.9034030331753196,-9.573088496884704,-0.9504749704673886,100,walking
1783069011461783600,1.4745434,-0.4414760854072868,2.260412782913446,-1.6149258446544408,0.7703350782394409,1.22063410282135,-0.1282702088356018,-1.878954382225871,-9.582479425564408,-0.9033253890186548,100,walking
1783069011471746600,1.4845064,-0.4512470994457602,1.8943676399350164,-1.7722633552670477,0.8009572625160217,1.1529860496520996,-0.1257554143667221,-1.856464025737345,-9.59172656185925,-0.8501357236880809,100,walking
1783069011481709600,1.4944694,-0.4832334524236619,1.6616712292164564,-1.752875933229923,0.8079829216003418,1.1035919189453125,-0.1146175265312194,-1.8357004930414256,-9.600544074565171,-0.7938062259618193,100,walking
1783069011491672600,1.5044324,-0.4644736607655882,1.3881728525102135,-1.7104256155133246,0.7869613766670227,1.0533719062805176,-0.0736132785677909,-1.818247838459164,-9.608364977449178,-0.7373464529193937,100,walking
1783069011501635600,1.5143954,-0.355104646769166,1.025437856993079,-1.7034189516216516,0.7435222864151001,0.9876832365989684,0.0033712533768266,-1.807308657424152,-9.614487259721756,-0.6824032219197601,100,walking
1783069011511598600,1.5243584,-0.2841227927036583,0.5808446624785661,-1.771069177046418,0.6824448108673096,0.9098973870277404,0.1066481545567512,-1.806164894216508,-9.618207741549613,-0.6310632030438631,100,walking
1783069011521561600,1.5343214,-0.3221151080980897,0.0472533340841531,-1.9587667546093463,0.5991496443748474,0.8560996651649475,0.2043763250112533,-1.8159069744214416,-9.619270986866953,-0.5852220373125746,100,walking
1783069011531524600,1.5442844,-0.5086709682799876,-0.5428554158240556,-2.1231816562622785,0.485889732837677,0.854205846786499,0.2672353982925415,-1.834055356182903,-9.617986792275309,-0.5485977588683366,100,walking
1783069011541487400,1.5542472,-0.731993401453644,-1.0054647440224886,-2.103646934708953,0.3578508198261261,0.8910709023475647,0.2922326326370239,-1.8564374299913644,-9.615063013783097,-0.5239896430408582,100,walking
1783069011551451400,1.5642112,-0.9316121568262576,-1.2723644531160592,-1.9486369902610776,0.2241210490465164,0.9348353147506714,0.2733527719974518,-1.87918059219718,-9.611226796621084,-0.5132006841314957,100,walking
1783069011561414400,1.5741742,-1.0549448142454028,-1.3898966075628996,-1.730934150534868,0.0811431109905242,0.967140018939972,0.2098957598209381,-1.8977043831422924,-9.607419221031666,-0.516323090468347,100,walking
1783069011571377400,1.5841372,-1.0382733731687068,-1.2977321186065671,-1.575198814421892,-0.0544411651790142,0.9710409641265868,0.0927816703915596,-1.9073425645813344,-9.604563247078657,-0.5336438988318667,100,walking
1783069011581340700,1.5941005,-0.9226039438538252,-0.9091209235548972,-1.508203838035464,-0.1825410723686218,0.9419595003128052,-0.0524482205510139,-1.9040503911681472,-9.603519290983677,-0.5633788561537861,100,walking
1783069011591303700,1.6040635,-0.6740624598801136,-0.4176952507168054,-1.5374480526983738,-0.2605832815170288,0.8976649641990662,-0.1792483329772949,-1.8874337490186093,-9.604431729653475,-0.6023696810662746,100,walking
1783069011601266700,1.6140265,-0.2993507569737732,-0.024974282258749,-1.5852759718000888,-0.3027597665786743,0.872344970703125,-0.2629405856132507,-1.860219140487164,-9.606898996549845,-0.6461202677264809,100,walking
1783069011611229700,1.6239895,0.0814323748007416,0.2361784076154232,-1.6041367396146058,-0.3152489066123962,0.84311842918396,-0.2839542031288147,-1.828002485884726,-9.60992623541653,-0.6914538857944309,100,walking
1783069011621192400,1.6339522,0.4557372504718601,0.355292862817645,-1.7456372141480443,-0.3209925591945648,0.8226874470710754,-0.2600145041942596,-1.795741846010089,-9.612623803937437,-0.7370001236997544,100,walking
1783069011631156500,1.6439163,0.7812601211868226,0.3513292198836803,-1.9054010751247408,-0.3189858496189117,0.8101314306259155,-0.2046182453632354,-1.7672224384903907,-9.61434697446823,-0.7820904345311224,100,walking
1783069011641119500,1.6538793,0.972685487101227,0.3244581640928983,-1.925161422127485,-0.3186263144016266,0.8018998503684998,-0.1483973115682602,-1.7439178430095317,-9.614859600165486,-0.826823967814073,100,walking
1783069011651082500,1.6638423,1.0466880041621625,0.2631266202956437,-1.913208534005284,-0.3141348958015442,0.8038206696510315,-0.1145711466670036,-1.724696132928133,-9.614429392054676,-0.8709488676793873,100,walking
1783069011661045500,1.6738053,1.0229695671834051,0.1954068367660045,-1.8761872556000947,-0.3241523802280426,0.8160160779953003,-0.1100328564643859,-1.707112545442581,-9.613447979801892,-0.9153025347992776,100,walking
1783069011671008500,1.6837683,0.8780237745016812,0.1266325757473707,-1.7236188590854404,-0.3512401580810547,0.8268967270851135,-0.1498446613550186,-1.6872639356344938,-9.612459553286431,-0.9613288843717426,100,walking
1783069011680971300,1.6937311,0.7933712686106562,0.2364227377653121,-1.6427397342532872,-0.3708106577396393,0.8291864991188049,-0.2255468815565109,-1.661419154151529,-9.611966216811537,-1.010035486004129,100,walking
1783069011690934300,1.7036941,0.7326236621811986,0.4110381309151649,-1.5426431371234357,-0.3558096289634704,0.8232307434082031,-0.3062561154365539,-1.6273067489303648,-9.612552492266891,-1.0588065311748531,100,walking
1783069011700897300,1.7136571,0.7200006197124719,0.5660755478918552,-1.519185250777006,-0.2983956038951874,0.8056176900863647,-0.3778954148292541,-1.5855045198589564,-9.614511809641122,-1.1035128841899335,100,walking
1783069011710861300,1.7236211,0.7961173524484038,0.6380512353003025,-1.5852333017021416,-0.2152411043643951,0.7874138355255127,-0.4076330363750458,-1.5386191423043607,-9.617804421445728,-1.1405655075814574,100,walking
1783069011720824300,1.7335841,0.8448996496655047,0.5779769980877637,-1.544953898283839,-0.1472543329000473,0.759002149105072,-0.4117108881473541,-1.4902864885509013,-9.621923547202348,-1.1696220176525414,100,walking
1783069011730787000,1.7435468,0.9071814799249172,0.5007610719382762,-1.4452555066913366,-0.0885024592280387,0.7366293668746948,-0.4123788475990295,-1.441986129631847,-9.62655997483134,-1.1918079843670129,100,walking
1783069011740750000,1.7535098,0.9126987820416688,0.5744190133452415,-1.2974375195741652,-0.0531625859439373,0.7173954844474792,-0.4128568768501282,-1.3937833858683704,-9.631533671590685,-1.2088425596676766,100,walking
1783069011750713000,1.7634728,0.843981365776807,0.4906880062133073,-1.129154178990051,-0.0470150671899318,0.6798586249351501,-0.4344157576560974,-1.34481827943027,-9.636687401092052,-1.2231489521134644,100,walking
1783069011760676000,1.7734358,0.6998578492633998,0.3970604589670896,-1.0057217875234783,-0.0572764948010444,0.650804877281189,-0.4907964766025543,-1.2924226140215993,-9.642120532056689,-1.2367471962898968,100,walking
1783069011770639000,1.7833988,0.5008060801237821,0.4078957412362098,-0.8138193056166172,-0.0821645334362983,0.6087200045585632,-0.5616767406463623,-1.234179976150393,-9.647867551276088,-1.251329556132853,100,walking
1783069011780602000,1.7933618,0.4014972723707556,0.4404261379629373,-0.7361264096051454,-0.1100315824151039,0.5662694573402405,-0.6156696677207947,-1.169886367677152,-9.653763039055466,-1.2675209586076437,100,walking
1783069011790565400,1.8033252,0.364041694201529,0.4279524408370256,-0.664253598049283,-0.1298183500766754,0.5261278748512268,-0.6167095303535461,-1.103251456774771,-9.659245854380726,-1.2853745952062308,100,walking
1783069011800529200,1.813289,0.4195722235698252,0.3474398112297058,-0.6466388847731054,-0.1434079259634018,0.4867632091045379,-0.5783184766769409,-1.0389221924662588,-9.663876436790824,-1.304036479447782,100,walking
1783069011810492200,1.823252,0.4811605916723608,0.2889963900893926,-0.6617096126548946,-0.1461654007434845,0.4533696472644806,-0.530593991279602,-0.9793041015233844,-9.667532621210812,-1.3229340721413492,100,walking
1783069011820455200,1.833215,0.4846373278722167,0.3348725906014442,-0.6183237676538527,-0.1393437087535858,0.425772100687027,-0.4931633174419403,-0.924422318387404,-9.670464583009482,-1.3408813783727584,100,walking
1783069011830418200,1.843178,0.4139974921774119,0.4090864123255014,-0.5016191500723362,-0.1285560429096222,0.3872750401496887,-0.4769140183925628,-0.8721878348898142,-9.673000823488833,-1.3574785851694642,100,walking
1783069011840381200,1.853141,0.3534136249423026,0.5219540820926427,-0.4470430718846619,-0.120038203895092,0.3764538168907165,-0.4612093865871429,-0.8217794708408415,-9.675286888599397,-1.372550189834088,100,walking
1783069011850344200,1.863104,0.248895777304098,0.5873977373838425,-0.2807416258327663,-0.1123797819018364,0.3941795229911804,-0.4017801880836487,-0.7747221707854419,-9.677133393248916,-1.3868198304660615,100,walking
1783069011860307200,1.873067,0.1404938547741621,0.5228571684122085,-0.043335283857584,-0.080773651599884,0.4320427477359772,-0.301033616065979,-0.7347048523694276,-9.678433954453467,-1.3994706377245485,100,walking
1783069011870270200,1.88303,0.0532893993780016,0.4158686198115348,0.2421815935529768,-0.0179815515875816,0.5115880966186523,-0.1900297105312347,-0.7045122509405016,-9.679483755767343,-1.4077085969768464,100,walking
1783069011880234200,1.892994,-0.0092144761342555,0.3482961357980966,0.586434445309639,0.0993224382400512,0.5994554162025452,-0.1158276572823524,-0.6822608908396214,-9.68104384469092,-1.4079447438202797,100,walking
1783069011890197000,1.9029568,-0.0047069355819374,0.475457119333744,1.0011194082945585,0.2627288401126861,0.6199946999549866,-0.1144312545657157,-0.6629760523941367,-9.68430547683537,-1.3946665984436868,100,walking
1783069011900160000,1.9129198,0.1109346558779478,0.7789344547182321,1.2478833612017333,0.4566783308982849,0.5804651379585266,-0.1776592284440994,-0.6409511945255101,-9.690154202863573,-1.3640022878497835,100,walking
1783069011910123000,1.9228828,0.2660746564462781,0.9612047465354204,1.3115500699482858,0.6324912309646606,0.5196482539176941,-0.2737705111503601,-0.6118872318003327,-9.698844289797544,-1.314692459627241,100,walking
1783069011920086300,1.9328461,0.3683346421550959,0.92023093111217,1.2736666217558086,0.772488534450531,0.4718557298183441,-0.3828772902488708,-0.5737871817151085,-9.709794722878932,-1.249425476077199,100,walking
1783069011930049300,1.9428091,0.5119281069124118,0.8155722867637872,1.1969557225190102,0.8820948004722595,0.4677345752716064,-0.4756997227668762,-0.5262933899385854,-9.722153269192576,-1.1718164589568971,100,walking
1783069011940012300,1.9527721,0.6726192022692412,0.7439484815329312,1.1619393541954457,0.9664645195007324,0.460630863904953,-0.53525710105896,-0.4719552486926316,-9.735074710085987,-1.084427075447887,100,walking
1783069011949975300,1.9627351,0.8027417390242219,0.5966618248134851,0.9090354372285306,1.0441114902496338,0.4696672260761261,-0.558380126953125,-0.4136840423140674,-9.74790087391138,-0.9887924992281945,100,walking
1783069011959939300,1.9726991,0.983213310856372,0.4118506163418293,0.4830507162678986,1.0941054821014404,0.4955499768257141,-0.5176202058792114,-0.3563813521740958,-9.760010998421906,-0.8863239122699945,100,walking
1783069011969902000,1.9826618,1.126581186696887,-0.0222954184383153,0.2284018553297966,1.063660979270935,0.4970593452453613,-0.4313396513462066,-0.3056693472697399,-9.770588506537676,-0.7826593935254961,100,walking
1783069011979865000,1.9926248,1.2716241561427712,-0.4222346477121114,-0.0740326930034905,0.9423954486846924,0.4735737442970276,-0.3050024807453155,-0.2660595319423824,-9.779010882446167,-0.685976696492359,100,walking
1783069011989828000,2.0025878,1.4441722414992748,-0.7607680989086627,-0.2493793230373412,0.7633949518203735,0.4033229053020477,-0.1564560383558273,-0.240637012725789,-9.78509224818647,-0.6037049482580275,100,walking
1783069011999791000,2.0125508,1.6640519868731498,-1.072572533133626,-0.4031312667807564,0.5544281601905823,0.2901872992515564,0.0142656313255429,-0.2315710782167501,-9.78902198885083,-0.5401842603860423,100,walking
1783069012009754000,2.0225138,1.687469541209191,-1.3989450064152478,-0.6516413692355155,0.3493236601352691,0.171928733587265,0.2019069045782089,-0.2407731515271589,-9.791103471300003,-0.4966775289516896,100,walking
1783069012019717000,2.0324768,1.551053822594136,-1.8087977269381283,-0.960911389612034,0.1636001318693161,0.0602536089718341,0.405786782503128,-0.269856768800877,-9.79155939837396,-0.4721682338561862,100,walking
1783069012029680000,2.0424398,1.2581336831897496,-2.221192533159256,-1.241719139483571,0.014486838132143,-0.0252283848822116,0.5879638195037842,-0.3182598574420437,-9.79051661132276,-0.4635510660279542,100,walking
1783069012039644200,2.052404,0.8547682788595556,-2.4767852508187294,-1.4455670568585397,-0.1089307069778442,-0.0284180529415607,0.7404313683509827,-0.383260116347298,-9.78796166614294,-0.4682976029679179,100,walking
1783069012049607000,2.0623668,0.3955506754586473,-2.6739696186512707,-1.4811621018528938,-0.2172521948814392,0.0487596169114112,0.8619331121444702,-0.4613912576455622,-9.783809807160496,-0.4843276408685371,100,walking
1783069012059570200,2.07233,-0.1132919961264356,-3.006310644948482,-1.4375836568892002,-0.3155997991561889,0.158286914229393,0.9210158586502076,-0.5481061394264921,-9.777978032267091,-0.5109975115314126,100,walking
1783069012069533200,2.082293,-0.5672090089011937,-3.2927789778649803,-1.459206875154376,-0.3958752155303955,0.2685444355010986,0.8870713114738464,-0.6355780501198023,-9.770734052488208,-0.5469842957897112,100,walking
1783069012079496200,2.092256,-0.954992301761359,-3.2957588704586027,-1.466103648930788,-0.445444107055664,0.3460240364074707,0.7443216443061829,-0.7137662553675472,-9.762815534448624,-0.5902164845990017,100,walking
1783069012089459200,2.102219,-1.345174545522034,-2.9800767180174588,-1.3380138601124285,-0.4816779196262359,0.3643132448196411,0.5144789218902588,-0.7732450109049678,-9.755281047290564,-0.6379507706005126,100,walking
1783069012099422200,2.112182,-1.6394959300264715,-2.5136335107445715,-1.2212754133265464,-0.5151447653770447,0.3433922529220581,0.2369871586561203,-0.8075278042569756,-9.74901847976446,-0.6891480200048535,100,walking
1783069012109385200,2.122145,-1.8252865049242968,-2.008590815964341,-1.0821329000961035,-0.5678784251213074,0.3309202790260315,-0.0446721203625202,-0.8141711877942085,-9.74439491161704,-0.744493182868883,100,walking
1783069012119349200,2.132109,-2.0227599188312886,-1.489539469575882,-0.8438380117833614,-0.6382104158401489,0.3667195737361908,-0.2781059145927429,-0.7953649997111409,-9.741061967802048,-0.8059163504723459,100,walking
1783069012129312000,2.1420718,-2.1069538672998545,-1.1085656375348567,-0.5718658217310905,-0.72346031665802,0.425069510936737,-0.4129964113235473,-0.7578579836156218,-9.738065708595514,-0.8752794442296028,100,walking
1783069012139275000,2.1520348,-2.002376763755083,-0.7733253826647997,-0.4007395858712494,-0.7935144901275635,0.4914741218090057,-0.4684418439865112,-0.7105532116051763,-9.73437795999348,-0.952583267858252,100,walking
1783069012149238000,2.1619978,-1.932626058919728,-0.4271294340163469,-0.3638075931847095,-0.8372989296913147,0.5802375078201294,-0.4761458039283752,-0.6592469488684087,-9.729522921177743,-1.0354536395728589,100,walking
1783069012159201000,2.1719608,-1.8280508550710972,0.0604009849488735,-0.2487070497989654,-0.8502501845359802,0.6786216497421265,-0.4662609398365021,-0.6067025226388126,-9.723398885339495,-1.1215241955682635,100,walking
1783069012169164300,2.1819241,-1.7640601750671865,0.5948878008782863,-0.0616647212743759,-0.8250584602355957,0.7650554776191711,-0.460877388715744,-0.5533773578276857,-9.71634779778421,-1.2069629564661533,100,walking
1783069012179127300,2.1918871,-1.7180822677463292,1.1077069748789072,0.0612054331995546,-0.7405259609222412,0.8324225544929504,-0.4681792557239532,-0.498349882610701,-9.709025492072104,-1.287186466933787,100,walking
1783069012189090300,2.2018501,-1.6388894885659218,1.6061363889992235,0.2125393194831907,-0.6131778359413147,0.8621134161949158,-0.4775731563568115,-0.4413724058371037,-9.702278355899452,-1.3569678591683507,100,walking
1783069012199053000,2.2118128,-1.6147440583467485,1.95792153595686,0.332233035878092,-0.4589480757713318,0.8493385314941406,-0.4972880184650421,-0.3824689294369891,-9.696877958160638,-1.412317113685608,100,walking
1783069012209017000,2.2217768,-1.587438995052874,2.1601906597077845,0.3659868369199335,-0.3035566508769989,0.8162122964859009,-0.5345783233642578,-0.3207396184938028,-9.693246323660016,-1.45205641887784,100,walking
1783069012218980000,2.2317398,-1.5224435219205914,2.3675217430233952,0.4370633835315704,-0.1523322463035583,0.7705401182174683,-0.5668100118637085,-0.2559993622316047,-9.691534843567013,-1.4761469040393829,100,walking
1783069012228943000,2.2417028,-1.5596267128892245,2.441061611008644,0.5813767235286533,-0.0173799116164445,0.7159822583198547,-0.5941246747970581,-0.1888886322447098,-9.691600894540548,-1.4857859622612597,100,walking
1783069012238906000,2.2516658,-1.556241308234632,2.3241028725355863,0.6228437292963266,0.0789335742592811,0.6519899964332581,-0.5993636846542358,-0.1208968816395849,-9.693006669685245,-1.4837090098567307,100,walking
1783069012248869000,2.2616288,-1.4597072258919477,2.1480086390048263,0.6090817459255456,0.1383834779262542,0.5812997817993164,-0.5654639005661011,-0.0553735898074926,-9.695130237710476,-1.4736881127104162,100,walking
1783069012258832100,2.2715919,-1.315253308380395,1.9658108279019595,0.6913042481906712,0.172288179397583,0.5163069367408752,-0.4822670221328735,0.0035301480291702,-9.697585229647158,-1.4584959504060446,100,walking
1783069012268795100,2.2815549,-1.140743129170686,1.7843471762925385,0.7782077478788793,0.1796915233135223,0.450052410364151,-0.3612769246101379,0.0515309566044248,-9.70002794662416,-1.4412521162688732,100,walking
1783069012278758100,2.2915179,-0.9525810759011656,1.5367401966899632,0.7614126804225146,0.169160857796669,0.3781870305538177,-0.2079755067825317,0.0851318777726497,-9.702315180778502,-1.4241576274745165,100,walking
1783069012288722000,2.3014818,-0.7488869608484208,1.3371703950256109,0.7173574117273092,0.150685653090477,0.3019877672195434,-0.0407616905868053,0.1018539895906578,-9.704456284460424,-1.4083838658899068,100,walking
1783069012298685200,2.311445,-0.6166475780699402,1.186558977797627,0.7208505145400762,0.1077656149864196,0.2174377590417862,0.1059063151478767,0.1021934689444024,-9.706326169985532,-1.3954168322890996,100,walking
1783069012308648200,2.321408,-0.5379411941669882,1.043138933378458,0.7176363747991621,0.0256685838103294,0.1446723043918609,0.2181967049837112,0.0887290894138626,-9.707454297232628,-1.3884614601932466,100,walking
1783069012318611200,2.331371,-0.5858902919629588,0.9059013769865036,0.7988425396285951,-0.0863668695092201,0.0700622498989105,0.3026793897151947,0.0650017795754829,-9.707286539450289,-1.3909585377059877,100,walking
1783069012328574200,2.341334,-0.6725427029669284,0.7937742964535951,0.8869618448473513,-0.2276929169893264,-0.0008598043350502,0.356337308883667,0.0335901554623269,-9.705290981718898,-1.4059047624252736,100,walking
1783069012338537200,2.351297,-0.7514421252239495,0.7046861462026834,0.9787025554336608,-0.4031480848789215,-0.0470006689429283,0.3960929811000824,-0.0031802702935863,-9.700898299717904,-1.4362940554700792,100,walking
1783069012348500200,2.36126,-0.840887856740877,0.6259679987967014,1.065837671920657,-0.5936568975448608,-0.0834751799702644,0.4342714548110962,-0.044218542098673,-9.693557289305328,-1.484374195767194,100,walking
1783069012358463000,2.3712228,-0.8214329954907298,0.6641589055031537,1.122921056754142,-0.7430000901222229,-0.0950753763318061,0.4711245596408844,-0.0892614244585856,-9.683115974789857,-1.5490886600010096,100,walking
1783069012368427000,2.3811868,-0.7182850479662418,0.87129358946383,1.0782516016833483,-0.8185027837753296,-0.0774632021784782,0.5211283564567566,-0.1383902792241889,-9.670135497185589,-1.6247282767444848,100,walking
1783069012378390000,2.3911498,-0.5359525776330382,1.0541893197029828,0.9407895888857544,-0.8252421617507935,-0.0199778117239475,0.5887510776519775,-0.1926329150732606,-9.65550900593996,-1.704240789398551,100,walking
1783069012388353000,2.4011128,-0.2965744241282343,1.1953162847489118,0.770839557198435,-0.7660002112388611,0.0541953183710575,0.6527064442634583,-0.2521466505925171,-9.640264090535045,-1.7810428740501405,100,walking
1783069012398316000,2.4110758,-0.0699376422422006,1.3701830223113298,0.7120283256590366,-0.6363889575004578,0.1116234511137008,0.6748806834220886,-0.3144813618166372,-9.6256896217376,-1.8486752715572716,100,walking
1783069012408279300,2.4210391,0.1673752492958679,1.5282722280740737,0.590797462824732,-0.4642411172389984,0.1581648886203766,0.6570802330970764,-0.3759700324043631,-9.61304173708856,-1.902221422175318,100,walking
1783069012418242300,2.4310021,0.3813763118946924,1.618071741464734,0.5300239913016558,-0.2694154381752014,0.211257666349411,0.5975458025932312,-0.4327019734516739,-9.603482466104628,-1.9381136965505776,100,walking
1783069012428205300,2.4409651,0.5208698305198922,1.6234470047622918,0.5695061068624258,-0.0732595771551132,0.2728641033172607,0.5076361298561096,-0.4810662279197946,-9.5976349091202,-1.9555993766196071,100,walking
1783069012438168000,2.4509278,0.6252782629668713,1.533676717466116,0.7161550502002239,0.1338259577751159,0.3229579031467438,0.38884237408638,-0.5182874128112569,-9.596001754960415,-1.9541070922352373,100,walking
1783069012448132000,2.4608918,0.7935584617458283,1.372107268372178,0.7668950573563575,0.3388152420520782,0.344888836145401,0.2479482442140579,-0.5423169615658,-9.598883447876572,-1.933320324794203,100,walking
1783069012458095000,2.4708548,1.089356275478378,1.2627841393440962,0.7485792100735008,0.5392804741859436,0.3383217453956604,0.0999201610684394,-0.5524564801231027,-9.606277065259215,-1.8933064404442903,100,walking
1783069012468058000,2.4808178,1.315204354672134,1.139794304013252,0.7019405007563531,0.7178866863250732,0.3168702125549316,-0.0347352772951126,-0.5495087727660313,-9.617813189274072,-1.834697599609196,100,walking
1783069012478021000,2.4907808,1.559868266560137,0.9513006076365708,0.6041255848228931,0.8652859926223755,0.2822065055370331,-0.1608806997537613,-0.5347009701367468,-9.632526189759371,-1.7603750568136571,100,walking
1783069012487984000,2.5007438,1.7562395644441249,0.7696592613726854,0.5323328527659178,0.974522590637207,0.2579497992992401,-0.28053879737854,-0.5088605360353365,-9.649453943684696,-1.6731700899608433,100,walking
1783069012497947100,2.5107069,1.8008152037516236,0.6040425827145576,0.5046598329424857,1.0424798727035522,0.2682375907897949,-0.3780240714550018,-0.4729310714548453,-9.6674426048398,-1.577112539088726,100,walking
1783069012507910100,2.5206699,1.79994485065788,0.3626981706380844,0.5815548565745353,1.0705260038375854,0.2889873683452606,-0.4505658745765686,-0.4286658132707699,-9.685420744600892,-1.476238089454174,100,walking
1783069012517873200,2.530633,1.7427656042344868,0.1386374863177537,0.6275976458251475,1.077209234237671,0.2984072268009186,-0.4975413680076599,-0.3786691718278452,-9.702575293019413,-1.373690738171339,100,walking
1783069012527837000,2.5405968,1.6841610011830923,-0.1176695170909166,0.5752632090844214,1.0633296966552734,0.2825973033905029,-0.5213780999183655,-0.3254515955770388,-9.718458506327869,-1.2712278503015637,100,walking
1783069012537800200,2.55056,1.7093408890165387,-0.2579167766928673,0.4404237998753786,1.036690592765808,0.2615522146224975,-0.5137244462966919,-0.2717724479627795,-9.732787475931644,-1.170206247281283,100,walking
1783069012547763200,2.560523,1.7190478979080914,-0.5089268427371978,0.3669833006113767,0.9785603880882264,0.2204628139734268,-0.476313829421997,-0.2208761725326999,-9.74528923010826,-1.072823804480955,100,walking
1783069012557726200,2.570486,1.695512416280806,-0.8488847737789154,0.2542494863569736,0.8603610396385193,0.1728391051292419,-0.4268501400947571,-0.1748951051403768,-9.755632344946264,-0.9835831670820712,100,walking
1783069012567689200,2.580449,1.5897330973394217,-1.1475111620008944,0.1971937201827764,0.6936444044113159,0.102636344730854,-0.3776991367340088,-0.1345074281751643,-9.763613991349937,-0.9078226273726672,100,walking
1783069012577652200,2.590412,1.4308045181430875,-1.381197168278694,0.298216711442545,0.4836701452732086,0.040226761251688,-0.3492382168769836,-0.0987304964084178,-9.76919734444022,-0.8505291799850762,100,walking
1783069012587615200,2.600375,1.222772812277451,-1.4792384403139351,0.361369625448063,0.2711133360862732,-0.0015997372101992,-0.3300969004631042,-0.0656251767374109,-9.7726103677541,-0.8137239554833621,100,walking
1783069012597578000,2.6103378,1.075256438455358,-1.537018429109454,0.4294312812179326,0.0599651262164115,-0.0288020633161067,-0.2862769663333893,-0.0357239708869368,-9.774087454569338,-0.7976895702011882,100,walking
1783069012607542000,2.6203018,0.9271570040483028,-1.5875047537654636,0.4642747041273862,-0.119863636791706,-0.0453414991497993,-0.2255429923534393,-0.0110756212304811,-9.773879364776612,-0.8009589472606777,100,walking
1783069012617505000,2.6302648,0.8391484657276421,-1.5215993261814116,0.4205355156440287,-0.2701575458049774,-0.0533789210021495,-0.1488381028175354,0.0067528837809601,-9.772298233065008,-0.8200675523564219,100,walking
1783069012627468000,2.6402278,0.7976112442679703,-1.4331202477395533,0.4164362636316567,-0.3939601480960846,-0.0701405555009841,-0.0807964131236076,0.0174647514454321,-9.769498373213407,-0.8526295132651924,100,walking
1783069012637431000,2.6501908,0.7716592030182481,-1.2352742011278868,0.3996523020911962,-0.4872786402702331,-0.0983716621994972,-0.040903590619564,0.0226172251380514,-9.765632929956912,-0.8957007393591105,100,walking
1783069012647394300,2.6601541,0.6815101455375552,-0.9492103573590516,0.4190233575154096,-0.5237103700637817,-0.1043426766991615,-0.0293859988451004,0.0250785988664603,-9.760950909620522,-0.945298736873269,100,walking
1783069012657357300,2.6701171,0.5267613362438976,-0.6733686323970556,0.4502192177027463,-0.5074672102928162,-0.1000291556119918,-0.0363778620958328,0.0273467104785144,-9.755923436847327,-0.9957981402065604,100,walking
1783069012667320300,2.6800801,0.3336949616568163,-0.4957254158586263,0.4404382667921483,-0.4533138871192932,-0.0963914915919303,-0.0512905567884445,0.0305229430615669,-9.751009945842624,-1.0427299141861497,100,walking
1783069012677283300,2.6900431,0.2083821084721945,-0.3714490478485822,0.3851080092363059,-0.3737887144088745,-0.0747210830450058,-0.0834373012185096,0.036125720088242,-9.74659739009738,-1.0830180123675617,100,walking
1783069012687247400,2.7000072,0.0683075613889144,-0.2561076814442873,0.3648106327474117,-0.279144674539566,-0.0318566188216209,-0.1150455623865127,0.0451177468275651,-9.74297686151266,-1.1147941566608843,100,walking
1783069012697210000,2.7099698,-0.0280213263710262,-0.1741068591058254,0.3871113849479705,-0.1893213093280792,0.0397619046270847,-0.130102276802063,0.0573503012745175,-9.740281631079316,-1.137543967803195,100,walking
1783069012707173000,2.7199328,-0.0614324377553071,-0.1775906095683574,0.4432428028188646,-0.0920688211917877,0.1184345930814743,-0.1163823679089546,0.0704106939808931,-9.73859528542757,-1.1511785984672604,100,walking
1783069012717136100,2.7298959,-0.0192589824850205,-0.3241395996630191,0.4315490040242671,-0.0072516687214374,0.1822894662618637,-0.079383336007595,0.0816578723859973,-9.7379417899549,-1.1559444246295838,100,walking
1783069012727099100,2.7398589,0.0861221583184786,-0.5182902988880872,0.3796446292638778,0.0528346374630928,0.2301687598228454,-0.0364110134541988,0.0897020352324005,-9.738170338013768,-1.1534205321751534,100,walking
1783069012737062100,2.7498219,0.2116950141461566,-0.6691717652291059,0.3727057699114084,0.0931370481848716,0.2699404060840606,0.0122579876333475,0.0938649453318212,-9.739021401885152,-1.145883487733826,100,walking
1783069012747025200,2.759785,0.2109740246615372,-0.9334534007787704,0.3777700675636529,0.0997795611619949,0.2888611555099487,0.0511371493339538,0.093987393534556,-9.7401974599272,-1.1358340951453894,100,walking
1783069012756988200,2.769748,0.1834431715214625,-1.2292325828760862,0.3417337085425853,0.0867316722869873,0.295224517583847,0.0770289376378059,0.0911418313777074,-9.74129811464548,-1.1265831594582647,100,walking
1783069012766951200,2.779711,0.1459923791252076,-1.4247685989797114,0.304111541634798,0.0641380324959755,0.2850121855735779,0.105889618396759,0.0854969756248407,-9.742236856800318,-1.1188885133024304,100,walking
1783069012776915200,2.789675,0.0508998875926947,-1.667436953136325,0.2832873647928238,0.0275725647807121,0.2728205025196075,0.1459978967905044,0.0765913325443165,-9.742879246357084,-1.1139259224589912,100,walking
1783069012786878200,2.799638,-0.0607539402721216,-1.958447021135688,0.1886633538551628,-0.0152115654200315,0.2765412926673889,0.1880441308021545,0.0635970730098662,-9.743062786230444,-1.1131243968177589,100,walking
1783069012796841200,2.809601,-0.2438265842810273,-2.228212641054392,0.1600070951480418,-0.0540258064866066,0.2797054052352905,0.2406602054834365,0.0458560390734346,-9.742795075204969,-1.1163408015809952,100,walking
1783069012806804200,2.819564,-0.4744588655440137,-2.501799865087867,0.0797031398553401,-0.0772389322519302,0.2732379734516144,0.2813839018344879,0.0234511209622141,-9.742146840429305,-1.1226770188651978,100,walking
1783069012816767200,2.829527,-0.7418949830692261,-2.679085938751697,-0.0875742385566234,-0.1115210056304931,0.2768191397190094,0.2897155880928039,-0.0015046054379425,-9.741134448516368,-1.1316728107474745,100,walking
1783069012826730200,2.83949,-1.100529411399737,-2.630481190058589,-0.1337486913628876,-0.1516959518194198,0.3056177794933319,0.2388805001974105,-0.0242964834618847,-9.739611768993734,-1.1444560852792114,100,walking
1783069012836693200,2.849453,-1.4743183734379708,-2.2958938461393115,0.0199006322562694,-0.2009718865156173,0.3461292684078216,0.1203186884522438,-0.0383681538363453,-9.73751333540976,-1.1617849673513323,100,walking
1783069012846656000,2.8594158,-1.781656475903839,-1.7359452566951512,0.1691028402734547,-0.2263543456792831,0.3763922154903412,-0.0542759634554386,-0.0376374946243711,-9.734973587799072,-1.182897678811103,100,walking
1783069012856620000,2.8693798,-1.9640569699719548,-1.0641495727032422,0.188828042897582,-0.2148401737213134,0.3898829817771911,-0.2390095889568328,-0.0187908946158131,-9.732353176167608,-1.2047176617573947,100,walking
1783069012866583000,2.8793428,-1.9223171386122704,-0.3212228354334831,0.1041010104656219,-0.1546027809381485,0.3694041967391968,-0.3807869851589203,0.0162332642885623,-9.730084646713731,-1.2229413737773895,100,walking
1783069012876546000,2.8893058,-1.6929250301361085,0.2983358808428049,-0.0827585088379681,-0.0759143605828285,0.3422721922397613,-0.4630259275436401,0.0618751537212403,-9.728498838827011,-1.2340525503784416,100,walking
1783069012886509000,2.8992688,-1.4703583837658163,0.708498982489109,-0.2806080625809729,-0.0033815158531069,0.347585529088974,-0.4951626360416412,0.1128460881229955,-9.727607442945242,-1.237465719822794,100,walking
1783069012896472300,2.9092321,-1.2742797852180898,1.0031851086527108,-0.3257030495874583,0.042248286306858,0.3592603206634521,-0.4650966227054596,0.1641183663917705,-9.727206460928915,-1.2348673738926648,100,walking
1783069012906435300,2.9191951,-1.163450197149813,1.2555857522726055,-0.2605323660187423,0.0569931045174598,0.3562659025192261,-0.4193445146083832,0.211605399633944,-9.727018244880435,-1.229109833279252,100,walking
1783069012916398300,2.9291581,-1.0712695607762783,1.4992986470460892,-0.2115343802243471,0.0601827725768089,0.3501278758049011,-0.3707050681114197,0.2540986066441983,-9.726823014569282,-1.2225923411440105,100,walking
1783069012926361000,2.9391208,-1.0270512835390866,1.7439964612036942,-0.149987074784562,0.051701620221138,0.3445666134357452,-0.3320417702198028,0.2924803049487061,-9.726563486850262,-1.2160545368731022,100,walking
1783069012936325000,2.9490848,-1.0389677851736543,1.8724270262837408,-0.0657856005966663,0.0427659153938293,0.3129109442234039,-0.3005240559577942,0.3271417040884494,-9.72615665961504,-1.2104734488051383,100,walking
1783069012946288000,2.9590478,-0.96604276115112,1.9325000944525,-0.1306434918891638,0.057071104645729,0.270344078540802,-0.2687225639820099,0.3582147781463339,-9.725775551342965,-1.2047224840629844,100,walking
1783069012956251100,2.9690109,-0.8494185883946717,1.9586527728408571,-0.1984488348104059,0.0940171331167221,0.2228492498397827,-0.2221939414739608,0.3852427415318787,-9.725743402639033,-1.1966226911723612,100,walking
1783069012966214100,2.9789739,-0.798422122259438,1.827744419470429,-0.2455734279483556,0.1360922902822494,0.1678135693073272,-0.1638569235801696,0.4063715638762339,-9.726365333929657,-1.1845132973141967,100,walking
1783069012976177200,2.988937,-0.7603459279738366,1.5447551608413457,-0.3377531144738197,0.1474480032920837,0.1281063705682754,-0.1039147451519966,0.4209678426466882,-9.727537884840368,-1.1696960327368229,100,walking
1783069012986140200,2.9989,-0.7831918199017643,1.3166507540881631,-0.2832318352133035,0.1288423985242843,0.0737745910882949,-0.0537669733166694,0.4297478363538161,-9.728827924650908,-1.1556833625406029,100,walking
1783069012996103200,3.008863,-0.8156300083003938,1.154469895097613,-0.1749240207076072,0.1038291975855827,0.0180309023708105,0.0103419739753007,0.4325577061427756,-9.73005132896602,-1.1442813862994312,100,walking
1783069013006066200,3.018826,-0.7552329688742756,0.9767711489796638,-0.2142043300859629,0.078064888715744,-0.0593923404812812,0.1009086444973945,0.4270777403617277,-9.731317987900972,-1.1355267096966504,100,walking
1783069013016029200,3.028789,-0.6235714590489864,0.7151958497792482,-0.3052272477917373,0.0428544320166111,-0.1363928467035293,0.2090106159448623,0.4110860617101192,-9.732656543028352,-1.1299466445419937,100,walking
1783069013025993200,3.038753,-0.5522893068626523,0.4061614647895097,-0.3925982188612222,-0.021983552724123,-0.1969313025474548,0.3175375163555145,0.3837973284965381,-9.73382207967639,-1.129515413517877,100,walking
1783069013035956200,3.048716,-0.5566502054858953,0.1049585040777921,-0.3573024490743875,-0.111945666372776,-0.2397815585136413,0.4296523332595825,0.3450626337695867,-9.73443758122623,-1.1366793868631124,100,walking
1783069013045919200,3.058679,-0.6091283615462482,-0.2205208197563886,-0.3226318985138088,-0.2133932113647461,-0.265059232711792,0.5301752686500549,0.2954879257994703,-9.73411960131824,-1.1532434220425785,100,walking
1783069013055882200,3.068642,-0.6671709468007088,-0.5762661025166511,-0.3586456803768873,-0.3329505026340484,-0.2836752533912658,0.5909520983695984,0.2375613498738035,-9.732418058097362,-1.180676130304113,100,walking
1783069013065845200,3.078605,-0.7131215277232229,-0.8289081536769867,-0.4054300087098032,-0.4631974995136261,-0.2880811095237732,0.6033504009246826,0.1759225302256643,-9.728920863631368,-1.219634221990779,100,walking
1783069013075808300,3.0885681,-0.7949414405368268,-0.959159504443407,-0.35364699530676,-0.6003154516220093,-0.2774684131145477,0.5545740723609924,0.1160356140124611,-9.72317033728063,-1.2715670191280544,100,walking
1783069013085771000,3.0985308,-0.9061321170024572,-0.981690485203266,-0.2477079557590186,-0.7233799695968628,-0.2503494024276733,0.4537439942359924,0.0635227702312171,-9.715003397437927,-1.336056150173396,100,walking
1783069013095734000,3.1084938,-1.0552142788365482,-0.834689075165987,-0.1343089555941522,-0.7949411869049072,-0.202417567372322,0.3255647122859955,0.0228644619143684,-9.704735101401806,-1.4099511152066289,100,walking
1783069013105698000,3.1184578,-1.027708213077858,-0.5431815790385007,-0.0353863706797361,-0.7891669273376465,-0.1750261932611465,0.2245538979768753,-0.0062876448851427,-9.693227618959543,-1.487176539836824,100,walking
1783069013115661000,3.1284208,-0.7725739797756075,-0.2555073774635791,-0.120691056869179,-0.692594587802887,-0.1605258136987686,0.152918055653572,-0.0267901314751012,-9.681926472744346,-1.558841699991375,100,walking
1783069013125624000,3.1383838,-0.4446599761404097,-0.0198310741513967,-0.3255522429399192,-0.5660715699195862,-0.1563977748155594,0.1017953529953956,-0.041512584775337,-9.671896661639211,-1.6195866760723292,100,walking
1783069013135587300,3.1483471,-0.178864100102894,0.1605032811671495,-0.4035907375186681,-0.4538211822509765,-0.1554174721240997,0.0632317140698432,-0.0521763829350704,-9.663538583138584,-1.668441015612334,100,walking
1783069013145550300,3.1583101,-0.0715543521572602,0.3800041102260351,-0.3290022372633218,-0.3726983964443207,-0.1347599327564239,0.0222033690661191,-0.0587800144172273,-9.656637717708945,-1.707714895249903,100,walking
1783069013155513300,3.1682731,-0.0735513346607564,0.6124123516529798,-0.0915844971112906,-0.3265234529972076,-0.1071495935320854,-0.0163469538092613,-0.0609728711192728,-9.650673256346582,-1.7410270900040865,100,walking
1783069013165476000,3.1782358,-0.0720399985160445,0.7590291462868451,0.1321342419035732,-0.2966375350952148,-0.0853773951530456,-0.0381070636212825,-0.0599403269008733,-9.645257076516748,-1.7708153484158218,100,walking
1783069013175439000,3.1881988,-0.0638298451527021,0.8515215520232915,0.3160032010890543,-0.2758137583732605,-0.0595532543957233,-0.045064304023981,-0.0570773112857248,-9.640185764601826,-1.7983131578028202,100,walking
1783069013185403100,3.1981629,-0.0044916397302877,0.9016250148415564,0.499852286530286,-0.2447516024112701,-0.0648614913225174,-0.0544229000806808,-0.0534180900918552,-9.635521864444016,-1.8232471080511807,100,walking
1783069013195366100,3.2081259,0.1150706779704429,0.982623382139206,0.6266521816685795,-0.2116101533174514,-0.0857987329363823,-0.0718740597367286,-0.0486315545016434,-9.63137701972425,-1.8451510429538784,100,walking
1783069013205329200,3.218089,0.2497520653398707,1.1129004518687724,0.7376251237303019,-0.1910611242055893,-0.0984838157892227,-0.090408056974411,-0.0425039932657498,-9.627729603132606,-1.8642464963071048,100,walking
1783069013215292200,3.228052,0.2852900829173624,1.159136717864871,0.9226356541663407,-0.2013425230979919,-0.1099772229790687,-0.0999741330742836,-0.0352456630178145,-9.624135962554812,-1.882860011362284,100,walking
1783069013225255200,3.238015,0.3312888503631577,1.1175047307938335,1.0556687446057795,-0.222276896238327,-0.1226994767785072,-0.0860243439674377,-0.0284223609029897,-9.620212651631237,-1.9029167109631,100,walking
1783069013235218200,3.247978,0.4326672674644738,1.1598176858663558,1.1273872423827649,-0.2406268715858459,-0.1408686190843582,-0.0481701754033565,-0.0243062536539393,-9.61583867433071,-1.924955524291843,100,walking
1783069013245181200,3.257941,0.5669784880809485,1.2236346167385577,1.177576045396924,-0.2455256432294845,-0.1804935336112976,-0.0017361841164529,-0.0249910872630774,-9.61112216720283,-1.9483596346244212,100,walking
1783069013255144200,3.267904,0.6963455302935093,1.312277945831418,1.1392018910780548,-0.2214448004961013,-0.2112706303596496,0.0473759658634662,-0.0309070858242339,-9.606539515587686,-1.9707377629101277,100,walking
1783069013265108200,3.277868,0.7286707598369568,1.4086620983093976,1.1362199526578187,-0.1821256279945373,-0.2338138967752456,0.0846233442425727,-0.0416845209758728,-9.602518004986644,-1.9900519735805688,100,walking
1783069013275071200,3.287831,0.7070670499898493,1.4693237800210714,1.1499236299701034,-0.1369842439889907,-0.2365636080503463,0.1050210297107696,-0.0555449369195615,-9.599283845371009,-2.005251880799979,100,walking
1783069013285034200,3.297794,0.6243985575228929,1.490816649904847,1.1700126244053244,-0.0871777907013893,-0.2297679930925369,0.1076412051916122,-0.0704401347045088,-9.59698375173509,-2.01576436085552,100,walking
1783069013294997200,3.307757,0.5455313935676589,1.4830062684148548,1.2035475219994782,-0.0413884632289409,-0.2364322990179062,0.085896760225296,-0.0844979729164391,-9.595609540772438,-2.021765793227404,100,walking
1783069013304960300,3.3177201,0.5527487776005641,1.5323282254666089,1.1919891861528158,0.0115783661603927,-0.2719463407993316,0.0591127090156078,-0.0965037511365022,-9.59525122885406,-2.022926799830794,100,walking
1783069013314923300,3.3276831,0.6216429752044379,1.6011083317041397,1.1159513638719916,0.0756265893578529,-0.3212909698486328,0.0227070301771163,-0.1064407511253375,-9.596097032028435,-2.018415752147138,100,walking
1783069013324886000,3.3376458,0.7036226086243986,1.6035276678055523,1.0410833160229027,0.1359264254570007,-0.3799916803836822,-0.0088534140959382,-0.1140504680772312,-9.59821533935666,-2.007891727784276,100,walking
1783069013334849000,3.3476088,0.8094312267255037,1.5913322030991317,0.9725918174684048,0.1844958215951919,-0.4209671020507812,-0.0214347187429666,-0.1204997264150064,-9.601433132359386,-1.9920726657532155,100,walking
1783069013344812000,3.3575718,0.90076744816415,1.5698673902660607,0.935218656885624,0.214697927236557,-0.4456753730773926,-0.0012050822842866,-0.127889197345497,-9.605406712165474,-1.9723571808055045,100,walking
1783069013354776000,3.3675358,0.99244875671342,1.4633300925642252,0.8834101437151431,0.2276712507009506,-0.4709056317806244,0.0474937446415424,-0.138915883134026,-9.609750878849624,-1.9503264046527444,100,walking
1783069013364739000,3.3774988,1.090446627998352,1.3186346213817597,0.8212678680568933,0.2504826486110687,-0.5056740641593933,0.1033526137471199,-0.1555108979736454,-9.614244098615648,-1.9267901923730968,100,walking
1783069013374702300,3.3874621,1.2020273266948758,1.2490975592970848,0.6724339818954468,0.2803728878498077,-0.5405532121658325,0.1639866679906845,-0.1783564611080102,-9.619076925599574,-1.9005096498213707,100,walking
1783069013384665300,3.3974251,1.2967771559692918,1.1819167049497366,0.5393026917785406,0.3211201131343841,-0.577405571937561,0.2255519479513168,-0.20741536406558,-9.624321255993843,-1.8707779439024623,100,walking
1783069013394628400,3.4073882,1.3290806120723486,1.0462912599295378,0.4208709581434726,0.3510998487472534,-0.6103020310401917,0.2904782295227051,-0.2431605215877294,-9.629953124400974,-1.837191169990599,100,walking
1783069013404591000,3.4173508,1.3086737838596103,0.8756903631180525,0.3188688196532428,0.3485549390316009,-0.6432895064353943,0.3371108770370483,-0.2847037891956977,-9.63547627173662,-1.8019269643858076,100,walking
1783069013414554000,3.4273138,1.2737620449543,0.7337889065682888,0.2988590279340744,0.319629818201065,-0.6833306550979614,0.3626007735729217,-0.3299976780414581,-9.640368719953296,-1.7677014541789888,100,walking
1783069013424517000,3.4372768,1.21334016334787,0.6029547874778509,0.3082240915201604,0.257101446390152,-0.7235445976257324,0.3958135545253753,-0.3786616095758974,-9.64405939116478,-1.7375627748943865,100,walking
1783069013434480000,3.4472398,1.192030102685094,0.3616039456605911,0.2598461373202502,0.186646431684494,-0.7616744041442871,0.4494355022907257,-0.4318711851833388,-9.646169515186548,-1.7132764748997986,100,walking
1783069013444444200,3.457204,1.230877719734609,0.0836205324947833,0.1367892281025648,0.1367512047290802,-0.782771646976471,0.5180660486221313,-0.4913687550190836,-9.646660513573885,-1.6943668995074928,100,walking
1783069013454407200,3.467167,1.246393561035395,-0.1817676029920578,-0.0455761946521699,0.1363762319087982,-0.7723096609115601,0.5975760817527771,-0.5580605472078547,-9.645980130094287,-1.6775003742501138,100,walking
1783069013464370200,3.47713,1.1647149563886223,-0.5026180979818106,-0.2153686976902186,0.1693434566259384,-0.7546405792236328,0.6570943593978882,-0.6311071152508259,-9.644755556735396,-1.6585430141933262,100,walking
1783069013474333200,3.487093,1.0992487239394335,-0.8388970482498407,-0.4722878416478633,0.2270957082509994,-0.7123003005981445,0.6818641424179077,-0.7074974772963672,-9.64351637032926,-1.6347592568933962,100,walking
1783069013484296200,3.497056,1.016125473442301,-1.0424866069495675,-0.6498306665517389,0.2822403609752655,-0.6439934968948364,0.6896753907203674,-0.7843368982836604,-9.642537296164036,-1.6052081682384014,100,walking
1783069013494259200,3.507019,0.9713003894183784,-1.264405018544197,-0.7098077270001173,0.3444773554801941,-0.5859594941139221,0.7008644342422485,-0.8607182002399116,-9.64178209388256,-1.5702205876179038,100,walking
1783069013504222200,3.516982,0.9768884917490184,-1.5715052206009623,-0.7894418202072382,0.4131785035133362,-0.5308258533477783,0.7137725353240967,-0.9372345998179168,-9.641288757407663,-1.5288938671037553,100,walking
1783069013514185200,3.526945,0.9535716213084756,-1.9033248533725735,-0.8157895827762782,0.4801804423332214,-0.4792742431163788,0.7059692144393921,-1.0131273876048623,-9.641066054567696,-1.481147634936124,100,walking
1783069013524149200,3.536909,0.9388256684016436,-2.1893033569455147,-0.7893072340421378,0.5358786582946777,-0.4563040137290954,0.6724950671195984,-1.0863681995783,-9.641194649383426,-1.4274243741855024,100,walking
1783069013534112300,3.5468721,0.9779192230362443,-2.414498598253727,-0.823561385821551,0.6061552166938782,-0.4478242695331573,0.6109172105789185,-1.1544915224075316,-9.64195218975246,-1.367581753771752,100,walking
1783069013544075300,3.5568351,0.9158026663411408,-2.64204186399281,-0.8834099975846708,0.6856305003166199,-0.4409410357475281,0.53119295835495,-1.2152273653339594,-9.643803370577096,-1.3002511156901717,100,walking
1783069013554038300,3.5667981,0.8597606803193688,-2.831888728544116,-0.9574417407400906,0.7445481419563293,-0.4266688823699951,0.4610134065151214,-1.268121993240714,-9.646691493234036,-1.226219810926169,100,walking
1783069013564001000,3.5767608,0.7177027180336415,-3.028310879832506,-0.9449135369479656,0.7706396579742432,-0.3989993631839752,0.3930553793907165,-1.3140085690163077,-9.650184011524916,-1.14791791617088,100,walking
1783069013573964000,3.5867238,0.4783260988987982,-3.203119165205955,-0.8148029828917235,0.7542657852172852,-0.3644056916236877,0.3243133425712585,-1.3526584715366363,-9.653892802914976,-1.069134594574198,100,walking
1783069013583927000,3.5966868,0.2273326917283236,-3.2554122470229863,-0.6370393548440187,0.6948314309120178,-0.3525320589542389,0.2559627890586853,-1.384330497868359,-9.657414547300338,-0.9941603098716586,100,walking
1783069013593890300,3.6066501,-0.0216008603028953,-3.2645114992797373,-0.4810001404136419,0.5913193821907043,-0.3784305155277252,0.1745055019855499,-1.4086353564329444,-9.660586163073775,-0.9269399272315204,100,walking
1783069013603854000,3.6166138,-0.3024015228465199,-3.2156834632247686,-0.4361304865956306,0.4361063838005066,-0.3738168179988861,0.0963814258575439,-1.4250149749562144,-9.663325232648848,-0.8717024625256657,100,walking
1783069013613817000,3.6265768,-0.6170384040184319,-3.137491385519505,-0.191494558693096,0.203564777970314,-0.3584176301956177,0.0336421430110931,-1.4340439384557306,-9.665202132436631,-0.8353187513716518,100,walking
1783069013623780400,3.6365402,-0.7980573806002735,-2.9758909567654133,0.0805021082133054,-0.0472896955907344,-0.3385985493659973,-0.0047478023916482,-1.4382766075894236,-9.665643446463346,-0.8228540412697941,100,walking
1783069013633743400,3.6465032,-0.9641916533917188,-2.7136031253814696,0.2398340075135231,-0.2731809020042419,-0.3031670451164245,-0.0313983224332332,-1.4391379005938767,-9.664568510708213,-0.8338955136355012,100,walking
1783069013643706000,3.6564658,-1.0614543422698974,-2.293517764657736,0.3593050210684537,-0.4558318257331848,-0.2599451839923858,-0.0761971250176429,-1.43644617729187,-9.662228085061908,-0.8650798295155167,100,walking
1783069013653669000,3.6664288,-1.079433504944295,-1.6139081920444964,0.378680168145895,-0.578055739402771,-0.2172888219356537,-0.1220144182443618,-1.4289416468806564,-9.659040687197448,-0.9118391695376484,100,walking
1783069013663632100,3.6763919,-1.145916732416302,-0.8061445332050323,0.5015123286969959,-0.6250000596046448,-0.1565958857536316,-0.175809845328331,-1.4163278106316923,-9.65546867392957,-0.967633172147721,100,walking
1783069013673595100,3.6863549,-1.249055473721027,-0.0601291822701692,0.6082447105795145,-0.5889198184013367,-0.0788049474358558,-0.2279489487409591,-1.3980337367892264,-9.652249127361175,-1.024686088777706,100,walking
1783069013683562200,3.696322,-1.384498255650699,0.4629956971675157,0.649978988981247,-0.497638076543808,-0.0024967840872704,-0.295493334531784,-1.3733227816417812,-9.650146017602086,-1.07659557810463,100,walking
1783069013693526300,3.7062861,-1.4576369954891502,0.9143822050839662,0.6312902167327702,-0.3692958056926727,0.0593378208577632,-0.3767756819725036,-1.340735686291754,-9.649925652849674,-1.1188093836516142,100,walking
1783069013703489300,3.7162491,-1.5873653452947736,1.323038993820548,0.7219243543166667,-0.2332343459129333,0.1284090429544448,-0.4790288507938385,-1.2985453346855935,-9.652166709774733,-1.1488402186475692,100,walking
1783069013713452300,3.7262121,-1.7412725891977547,1.5706512341201304,0.9379852720547468,-0.1273662447929382,0.1709247976541519,-0.5913518667221069,-1.245194560509175,-9.656917119172215,-1.1678284852992742,100,walking
1783069013723415300,3.7361751,-1.7972719781868158,1.7387661593347787,1.1161025358457115,-0.0382625721395015,0.1739022433757782,-0.6891879439353943,-1.1814140891898424,-9.663722707533836,-1.177753447790444,100,walking
1783069013733378300,3.7461381,-1.7777186980634927,1.931100164526701,1.2257014861404896,0.046536736190319,0.151869386434555,-0.7752373218536377,-1.1087907515276223,-9.672152682226896,-1.1791641183059662,100,walking
1783069013743341300,3.7561011,-1.6676815755471586,2.080290609040856,1.3721839868701993,0.1245022043585777,0.0795778334140777,-0.8329508304595947,-1.0296856506306675,-9.68173007338941,-1.172267929051444,100,walking
1783069013753304300,3.7660641,-1.3964100811101496,2.241720357403159,1.3122072186827658,0.2152755111455917,-0.0155966207385063,-0.8448447585105896,-0.9478125463251024,-9.69202701099813,-1.1561354902222751,100,walking
1783069013763267300,3.7760271,-1.146571396932751,2.365793896317482,1.2943880688756704,0.2923659682273865,-0.136202335357666,-0.79034423828125,-0.869196836380288,-9.70237597105503,-1.1308340949010105,100,walking
1783069013773230300,3.7859901,-0.9636460752729326,2.288817624142766,1.3316840725690129,0.3618430495262146,-0.2628761231899261,-0.6871635317802429,-0.7995337367631494,-9.712188924539088,-1.097501076554507,100,walking
1783069013783194400,3.7959542,-0.7659762620110064,2.112740341746807,1.2541840687811374,0.4002097845077514,-0.3996480405330658,-0.5476874113082886,-0.7431188988409936,-9.7210637203902,-1.0578595326483249,100,walking
1783069013793157400,3.8059172,-0.6137655928928405,1.8642349519997836,1.129817757465318,0.3880889415740967,-0.5365875363349915,-0.3983964025974273,-0.7019977108363061,-9.728588270676136,-1.015943760199845,100,walking
1783069013803120400,3.8158802,-0.5483008948136121,1.6442320186376571,1.0742150396436452,0.3261756896972656,-0.6231706142425537,-0.2425003051757812,-0.6764828919600695,-9.734389065909385,-0.9769508163955062,100,walking
1783069013813083400,3.8258432,-0.6075575320329517,1.3699036208480595,1.1781126364916563,0.2178995311260223,-0.7255685925483704,-0.0749531164765358,-0.6673548520002514,-9.738087335905432,-0.9458748562607914,100,walking
1783069013823046100,3.8358059,-0.6276279678981751,1.0000555784553289,1.1150355642013252,0.0913672670722007,-0.8440067172050476,0.0803346410393714,-0.6752667211033403,-9.73949194200635,-0.925594430906698,100,walking
1783069013833009200,3.845769,-0.7018873092643916,0.6871253550708294,0.9911321942221372,-0.0497089028358459,-0.9527336955070496,0.2065612822771072,-0.6976733448311686,-9.738705175542831,-0.917211510225758,100,walking
1783069013842972200,3.855732,-0.8129831470534205,0.4064554793000221,1.0065689058721066,-0.2130252569913864,-1.051638960838318,0.2802399396896362,-0.7308280109360814,-9.735761523306367,-0.9226221370976416,100,walking
1783069013852935400,3.8656952,-0.9921147024534642,0.1794353606522083,0.9926086234502494,-0.3856841325759887,-1.1458059549331665,0.2894707322120666,-0.7689704023256897,-9.730804193159935,-0.9436774923469872,100,walking
1783069013862898400,3.8756582,-1.0883191875156015,0.1490425604760646,0.9258313084024936,-0.5257642865180969,-1.227452278137207,0.2722599506378174,-0.8075891790553927,-9.724202602937815,-0.9788030931986867,100,walking
1783069013872862500,3.8856223,-1.081361988788843,0.3170283063530921,0.837688987634331,-0.6127828359603882,-1.3024578094482422,0.2476504892110824,-0.8452220134876668,-9.71636357987523,-1.023838166711479,100,walking
1783069013882825500,3.8955853,-0.9290332462489604,0.5105296017587184,0.6565350595612078,-0.6329120993614197,-1.355762958526611,0.250138908624649,-0.882928351547569,-9.707705057123302,-1.072976437759399,100,walking
1783069013892788500,3.9055483,-0.6911473771285265,0.6979501159459353,0.4379752376794815,-0.6258682608604431,-1.367735505104065,0.2712058424949646,-0.9228438170243054,-9.698502344492075,-1.1215195924583825,100,walking
1783069013902751200,3.915511,-0.5807764926131814,0.7618225763976574,0.3236008166112005,-0.6217442750930786,-1.3635355234146118,0.2813998758792877,-0.9652790833022444,-9.688752519372104,-1.1690533509191126,100,walking
1783069013912714200,3.925474,-0.5056154531668872,0.8264888175755739,0.2574538353562355,-0.6040233373641968,-1.3611232042312622,0.2652722895145416,-1.0079689819283784,-9.678750180795788,-1.2149848618149757,100,walking
1783069013922677200,3.935437,-0.4668366635698824,1.039997128221393,0.2290273668169975,-0.5732864141464233,-1.382063388824463,0.2146476656198501,-1.0482440744977444,-9.668999186632036,-1.257786184926331,100,walking
1783069013932640300,3.9454001,-0.4142965481892228,1.20932552087903,0.1034029451988637,-0.5032982230186462,-1.3939054012298584,0.1414541453123092,-1.0829774611614644,-9.660259999859331,-1.294967476198822,100,walking
1783069013942603300,3.9553631,-0.3267398452892899,1.3058791847050188,0.0141993518747389,-0.4119801521301269,-1.3930935859680176,0.0743424743413925,-1.1114272375110537,-9.653113050714136,-1.323827367719263,100,walking
1783069013952566300,3.9653261,-0.2181635891057551,1.2932108417898416,-0.0743861095510423,-0.3169958591461181,-1.3773226737976074,0.0473888851702213,-1.135457955309376,-9.647627312779424,-1.3432802562080324,100,walking
1783069013962530300,3.9752901,-0.0917391031511127,1.0586790323376656,-0.1510791808702051,-0.2393458783626556,-1.367827534675598,0.0441097244620323,-1.158184020249918,-9.6433895290792,-1.3542749668225644,100,walking
1783069013972493300,3.9852531,0.085294018664956,0.756188954424858,-0.2938018906749784,-0.1735681891441345,-1.360063552856445,0.06138751283288,-1.1815392499394717,-9.640024436560273,-1.3580474710986017,100,walking
1783069013982456300,3.9952161,0.2732552156001329,0.5144114116281271,-0.3764250826954841,-0.1348429769277572,-1.366660714149475,0.097120501101017,-1.2072932113338262,-9.637068509364129,-1.3563783688426017,100,walking
1783069013992419300,4.0051791,0.4113474891252816,0.2960919013082981,-0.3767812026567756,-0.130600020289421,-1.359404683113098,0.1321804821491241,-1.2365990199908614,-9.633927873250842,-1.3522817471787332,100,walking
1783069014002382300,4.0151421,0.4291510029718279,0.1117728602677583,-0.2779008494488895,-0.1833439767360687,-1.3231945037841797,0.1800051927566528,-1.2695157856866717,-9.62992156021893,-1.350305770930648,100,walking
1783069014012345300,4.0251051,0.3664199676401913,-0.1705617338448762,-0.0733409844122827,-0.2711755633354187,-1.29515540599823,0.2301743477582931,-1.3067423774056135,-9.624266310936212,-1.355099288817495,100,walking
1783069014022308400,4.0350682,0.371999667468667,-0.4206897563576698,-0.0034695758067071,-0.3737995624542236,-1.2853559255599976,0.2734630107879638,-1.3485346696048974,-9.616551206514238,-1.3688570344045758,100,walking
1783069014032271400,4.0450312,0.3647387365549802,-0.5754004255980253,0.0112527770288288,-0.492716372013092,-1.2848044633865356,0.2997859418392181,-1.3936467538766562,-9.606690322235226,-1.3927068426780402,100,walking
1783069014042235400,4.0549952,0.3994952848985791,-0.653035453942418,0.037944384599477,-0.6204854249954224,-1.2850457429885864,0.3166559934616089,-1.4409728609360757,-9.59459656433761,-1.4274790269821882,100,walking
1783069014052198400,4.0649582,0.4800738193489611,-0.597950695580244,0.053409080234915,-0.7463027238845825,-1.2607406377792358,0.3584649562835693,-1.4913245994269848,-9.579799977222084,-1.4743679116681216,100,walking
1783069014062161200,4.074921,0.5695756649672985,-0.5145002589553594,0.1048566511385142,-0.851479709148407,-1.2229304313659668,0.4387453496456146,-1.5477568268753588,-9.561797287541628,-1.5319506243258714,100,walking
1783069014072124200,4.084884,0.6689398561693728,-0.5194733711928129,0.0366248264335095,-0.9390835762023926,-1.1748409271240234,0.5307573080062866,-1.6125548777393997,-9.54021498580873,-1.5982428592704236,100,walking
1783069014082087200,4.094847,0.8098375425040721,-0.5560691176623106,-0.0798643948316574,-1.007114291191101,-1.1003379821777344,0.6108883023262024,-1.6853670159719882,-9.514989943659304,-1.6717933947801589,100,walking
1783069014092050400,4.1048102,0.9026773003734648,-0.4275941289186477,-0.0754245126880705,-1.0397974252700806,-0.9203847646713256,0.6652769446372986,-1.763392943330109,-9.486496255102754,-1.7513515001416204,100,walking
1783069014102013400,4.1147732,0.9598790508896112,-0.2817641007483005,0.1760414804302155,-0.9730333089828492,-0.6768096685409546,0.6646428108215332,-1.840795916484296,-9.456353045773506,-1.8328293215192848,100,walking
1783069014111976400,4.1247362,1.2675541302248834,-0.175592129227519,0.2932698296248913,-0.7441710829734802,-0.3972145020961761,0.5916205644607544,-1.9102477845035493,-9.428298333156109,-1.9048669682480397,100,walking
1783069014121939500,4.1346993,1.8370049997687337,-0.004461071062088,0.1207896949380636,-0.3397431671619415,-0.169677048921585,0.4677810668945312,-1.9653940637946128,-9.40744493021965,-1.9513065017312765,100,walking
1783069014131902200,4.144662,2.602054136997461,-0.0266442612975835,-0.4072264636725187,0.1605164855718612,-0.0101350527256727,0.3218904435634613,-2.0041024185039102,-9.397831298699977,-1.958244776561856,100,walking
1783069014141866200,4.154626,3.0856817033052444,-0.4009142117857933,-1.0421306331187483,0.615129828453064,0.1344349384307861,0.1682954728603363,-2.0259483396090565,-9.400497887560723,-1.9226392101734875,100,walking
1783069014151829200,4.164589,2.9693180081158874,-0.8157973276913165,-1.0992885444931686,0.9293450117111206,0.2879629731178283,0.0042900219559669,-2.0301921146586537,-9.41342868080437,-1.8536597819715737,100,walking
1783069014161792300,4.1745521,2.4440676609568297,-1.0079887095421551,-0.6040798459850252,1.087759494781494,0.4151262044906616,-0.1682605445384979,-2.0161041142039,-9.43342400560677,-1.7652819719471036,100,walking
1783069014171755300,4.1845151,1.9364372877709568,-1.2499971384853124,-0.186655375033617,1.1131864786148071,0.510517954826355,-0.2939095497131347,-1.985967480745912,-9.457022323337196,-1.670646270571649,100,walking
1783069014181718300,4.1944781,1.6981263981714845,-1.4381664252132176,-0.0738368051052093,1.0760060548782349,0.571408212184906,-0.3566704094409942,-1.9462253990747036,-9.4811887963444,-1.5778633574560283,100,walking
1783069014191681300,4.2044411,1.5776342248752713,-1.6340297735750675,-0.0145522569656372,0.998401403427124,0.595703661441803,-0.3698810338973999,-1.9026472463719544,-9.504095624679326,-1.490802182988077,100,walking
1783069014201644500,4.2144043,1.585760248185694,-1.6706658520549535,-0.1604115112304687,0.9111341834068298,0.6203265190124512,-0.3231062889099121,-1.860644526292384,-9.52447147323191,-1.4116813000001012,100,walking
1783069014211607300,4.2243671,1.6150009557172655,-1.5996189699292185,-0.3804407480776309,0.8177126049995422,0.6322468519210815,-0.2145901918411255,-1.8261394684918224,-9.541349542796612,-1.3409902455747127,100,walking
1783069014221571300,4.2343311,1.5658721831500528,-1.5989344947963953,-0.4938286423265933,0.6981878280639648,0.6581839919090271,-0.0685966461896896,-1.8040952483356,-9.553855388626456,-1.28042457158342,100,walking
1783069014231534300,4.2442941,1.3292965929105878,-1.6843068393945693,-0.6056856737464666,0.5544346570968628,0.6977249979972839,0.0987912863492965,-1.7970638883940877,-9.561407995963096,-1.233061055123061,100,walking
1783069014241497300,4.2542571,1.013421548245847,-1.7399194210231304,-0.6168189891140907,0.4292591214179992,0.713466465473175,0.256073534488678,-1.8054532388158144,-9.564154079800844,-1.1990331133149563,100,walking
1783069014251460400,4.2642202,0.6948486427992582,-1.6831810502350328,-0.7104704286925494,0.3658524453639984,0.7271228432655334,0.367731362581253,-1.826857115241885,-9.56313175101578,-1.1745143197387455,100,walking
1783069014261423400,4.2741832,0.5470905691757798,-1.6463205153495073,-0.880330809335038,0.3434349000453949,0.7045280933380127,0.4237819015979767,-1.8565692396774889,-9.55988940809369,-1.154142270578444,100,walking
1783069014271386400,4.2841462,0.3861895208626985,-1.7434247987955809,-1.0149163899134843,0.319286435842514,0.6782528162002563,0.4077688455581665,-1.8887004079535603,-9.555859714186193,-1.1352264846410602,100,walking
1783069014281349400,4.2941092,0.0110021632686257,-1.7531471513867378,-1.028776646026969,0.2997906804084778,0.7231935858726501,0.3776661157608032,-1.917834147979319,-9.551973812663554,-1.1189717346064745,100,walking
1783069014291312000,4.3040718,-0.0071811436757445,-2.033542886391282,-0.8339007012672722,0.2756730914115906,0.7524425387382507,0.3861312568187713,-1.9458890067271888,-9.547810847765207,-1.106001486135274,100,walking
1783069014301275100,4.3140349,0.0780981158114969,-2.9854630872309205,-0.95781795364134,0.2754600346088409,0.7600290775299072,0.367516279220581,-1.973706987979263,-9.543393615844844,-1.0947609840661288,100,walking
1783069014311238400,4.3239982,-0.1270968322582542,-3.5230788488358256,-1.0296545979052782,0.2972934246063232,0.7343466281890869,0.2621967792510986,-1.996110981358588,-9.540133737266062,-1.082480398359522,100,walking
1783069014321202200,4.333962,-0.414084512873739,-3.360640800213813,-0.8891390427559613,0.3401839733123779,0.6905058026313782,0.0439465008676052,-2.0036102510727942,-9.54036520793438,-1.066474508519471,100,walking
1783069014331165400,4.3439252,-0.7723445549339055,-2.678737563705444,-0.7574719799727201,0.4039131700992584,0.6449188590049744,-0.2644728422164917,-1.986523945584893,-9.546354803737998,-1.0446136821061371,100,walking
1783069014341128400,4.3538882,-1.2708894121274352,-1.4906108981996773,-0.552285069078952,0.4952254295349121,0.6222265958786011,-0.6115249395370483,-1.938238930365443,-9.559528758087753,-1.0144205692205577,100,walking
1783069014351091500,4.3638513,-1.4018572406001388,-0.1288853231102228,-0.4506184461534023,0.597358226776123,0.5808961987495422,-0.8886880874633789,-1.859943246155232,-9.57930313361585,-0.9736324125625192,100,walking
1783069014361054500,4.3738143,-0.9962747447423635,0.7755541646301746,-0.5583325325496494,0.6656559705734253,0.4745731651782989,-1.0360902547836304,-1.7621451352261006,-9.602827217066288,-0.922481194256991,100,walking
1783069014371017200,4.383777,-0.3736963883839547,1.14351010966599,-1.0501198052417486,0.6723953485488892,0.4428029954433441,-1.0302759408950806,-1.658082703205198,-9.626614919888972,-0.8656904356945305,100,walking
1783069014380980200,4.39374,-0.011911679328978,1.1795540674716234,-1.1603969470590352,0.6187114119529724,0.4591990411281585,-0.891347348690033,-1.5615277242049574,-9.64754606423676,-0.8104801512565464,100,walking
1783069014390943200,4.403703,0.0265789409764111,1.0445558144390583,-0.871080823495984,0.5279620289802551,0.5108190774917603,-0.7212161421775818,-1.480158477768302,-9.664280341416596,-0.762363113015145,100,walking
1783069014400906200,4.413666,0.0337418183431029,1.135643029552698,-0.8108634514857083,0.4051132798194885,0.5323489308357239,-0.5832585692405701,-1.413699946346134,-9.677108258807658,-0.7248674220312387,100,walking
1783069014410870300,4.4236301,0.0925781843237578,1.264052551844716,-0.774438312342763,0.2969817519187927,0.4972652792930603,-0.4953933954238891,-1.3582131830543278,-9.687003629878165,-0.6982950569260865,100,walking
1783069014420833300,4.4335931,0.0976411668017506,1.4216449140012264,-0.8801105176478624,0.1962823271751403,0.4431667625904083,-0.4514572024345398,-1.3094064820483329,-9.694957803753018,-0.6809091109044849,100,walking
1783069014430796300,4.4435561,0.0380183266185224,1.4612112007141111,-0.8861573235314338,0.111324556171894,0.3869090974330902,-0.4260820746421814,-1.264298343299329,-9.701604402160644,-0.6714204209387302,100,walking
1783069014440759300,4.4535191,-0.0575176115322858,1.4256319378107785,-0.9090630558878184,0.030875626951456,0.3371877372264862,-0.4228071868419647,-1.220836510452628,-9.707325117895008,-0.6691648240316659,100,walking
1783069014450722300,4.4634821,-0.1826472353707998,1.4690934783965348,-0.9387070104580372,-0.0303171575069427,0.2995713651180267,-0.4117369353771209,-1.178156987090036,-9.712329209792614,-0.6730396927036345,100,walking
1783069014460685300,4.4734451,-0.3102575701091438,1.528758550286293,-0.9444581213306636,-0.063311219215393,0.2576383948326111,-0.3842551112174988,-1.1374861732013524,-9.716627783769368,-0.6809056037731468,100,walking
1783069014470648300,4.4834081,-0.3509846442297101,1.498032572633028,-1.0176637158602475,-0.0772318318486213,0.2429103255271911,-0.3348071277141571,-1.1007994605127722,-9.720169986420869,-0.6905991686612367,100,walking
1783069014480611300,4.4933711,-0.3723180127028375,1.435512111312151,-1.075250154845044,-0.0864389687776565,0.2427407652139663,-0.2745555639266968,-1.0695897179305554,-9.72289093581736,-0.7012476231213659,100,walking
1783069014490574300,4.5033341,-0.4289538729645311,1.3610241488218306,-1.0576339071989058,-0.0781176537275314,0.2569047808647156,-0.2127899527549743,-1.0442282629851252,-9.72486778884828,-0.7119803948640823,100,walking
1783069014500538400,4.5132982,-0.499880343580991,1.3217501230537891,-1.0748638589411974,-0.0587286613881588,0.2597114741802215,-0.1651449054479599,-1.024178723777458,-9.726295775824784,-0.7215357203252614,100,walking
1783069014510501400,4.5232612,-0.5581410285655409,1.2539058363616469,-1.07855854874067,-0.0175221022218465,0.2591825723648071,-0.1517846286296844,-1.0072177982348949,-9.727583477547764,-0.7280160222552716,100,walking
1783069014520464400,4.5332242,-0.6076173724614083,1.1987310616284608,-1.08545188845098,0.0485572069883346,0.2522445023059845,-0.1719144284725189,-0.9899136852778494,-9.72927099224329,-0.7292032592784613,100,walking
1783069014530427100,4.5431869,-0.6577670125089585,1.0972124688714742,-1.0858540395110845,0.1120192632079124,0.2234996855258941,-0.2190574407577514,-0.969242653170973,-9.73175111862123,-0.7238634326204657,100,walking
1783069014540390100,4.5531499,-0.622834157750383,0.963446972504258,-1.1338741932492702,0.1602836400270462,0.1758086532354354,-0.2693527042865753,-0.9441707557566464,-9.73505308277607,-0.7125042726077139,100,walking
1783069014550353400,4.5631132,-0.6613588264558464,0.8145534651100635,-1.1610246505033224,0.1676025390625,0.153833582997322,-0.3146695792675018,-0.9146242702115328,-9.738938984298706,-0.6977738095309585,100,walking
1783069014560316400,4.5730762,-0.7464734699659049,0.6377747564464807,-1.0685351673763244,0.1252264231443405,0.1580861955881118,-0.3438365161418915,-0.8814338752061128,-9.74292308549881,-0.6847686358768492,100,walking
1783069014570279400,4.5830392,-0.8143371920108795,0.4850754270285368,-0.9063320965539664,0.0346078388392925,0.1838791817426681,-0.3369538486003876,-0.8467897011958062,-9.74644482988417,-0.6783302733924239,100,walking
1783069014580242400,4.5930022,-0.7476349880259484,0.3785100722759962,-0.7864929072737693,-0.0746136531233787,0.2019688934087753,-0.3021048307418823,-0.8142823200184851,-9.74896587279439,-0.6819008984208107,100,walking
1783069014590206500,4.6029663,-0.561137872293964,0.3462117307394742,-0.7403196965765207,-0.1801533997058868,0.2081921696662902,-0.2211037129163742,-0.787246575185284,-9.750186939021944,-0.6960516619134693,100,walking
1783069014600169500,4.6129293,-0.3347081938199698,0.4288473438501358,-0.7144189471226186,-0.2701639533042907,0.2029906511306762,-0.1169197484850883,-0.7691684091158211,-9.749923319649696,-0.7195582097072154,100,walking
1783069014610132200,4.622892,-0.0943953898135572,0.5487123251587153,-0.6510065053980797,-0.3581832945346832,0.1885536462068557,-0.0140090826898813,-0.7612322823543101,-9.748132344579696,-0.751546973837912,100,walking
1783069014620095200,4.632855,0.1141478457707911,0.7454308290451764,-0.5912537552248687,-0.4311580061912536,0.1767784059047699,0.0510766208171844,-0.7617793948430568,-9.74493442532122,-0.7913975573848933,100,walking
1783069014630058200,4.642818,0.1892433457002043,1.0181617285102604,-0.4325367729526013,-0.4928698241710663,0.1635832339525222,0.0726434290409088,-0.766545147940144,-9.74068612022698,-0.8377366992335766,100,walking
1783069014640021200,4.652781,0.1997043878294527,1.2277899828523398,-0.3251039877157658,-0.5476149320602417,0.1519797295331955,0.0830041393637657,-0.7726666264951229,-9.735584413173797,-0.8898034249488264,100,walking
1783069014649984300,4.6627441,0.2426829672038555,1.435970376473665,-0.2593996356617659,-0.574574887752533,0.1354529559612274,0.0893792137503624,-0.7795826164286583,-9.729783617940544,-0.9454824959423392,100,walking
1783069014659947500,4.6727073,0.3228108352772891,1.613493181502819,-0.2423953093688935,-0.5815333724021912,0.1343445181846618,0.1032894477248191,-0.7874355218861252,-9.723401807948946,-1.002888829119876,100,walking
1783069014669910300,4.6826701,0.4053324666194617,1.700477052950859,-0.2637349614523351,-0.567110002040863,0.1299470961093902,0.1308691501617431,-0.7972332778010517,-9.716562901839612,-1.0598096438027915,100,walking
1783069014679870200,4.69263,0.4837778614986687,1.7513602679699658,-0.2541966601911932,-0.5338531136512756,0.1416177153587341,0.1659740358591079,-0.8101373291682451,-9.709385557556152,-1.1143888637956232,100,walking
1783069014689834200,4.702594,0.5337011454444378,1.801551993593573,-0.2244517294645309,-0.5060446262359619,0.1704802513122558,0.2020795792341232,-0.8262425877295434,-9.70196855929792,-1.1659808846712112,100,walking
1783069014699797200,4.712557,0.5511741121623664,1.819585662934184,-0.109068788940832,-0.4605873227119446,0.2027021944522857,0.2311048507690429,-0.8450622198160738,-9.69441302935183,-1.2143263979062435,100,walking
1783069014709760000,4.7225198,0.5630465554594993,1.796176145774126,-0.0390482541881501,-0.4132280647754669,0.2319327890872955,0.2443729788064956,-0.8653145150542259,-9.687014735794069,-1.2583094781480728,100,walking
1783069014719723000,4.7324828,0.6021585225336253,1.747103779569268,-0.025644582735747,-0.3557198643684387,0.2564493417739868,0.2449143528938293,-0.8858713461969048,-9.679991120767593,-1.2974508174471555,100,walking
1783069014729686000,4.7424458,0.6072267657086253,1.6632652204096317,0.0121722299613058,-0.3030768930912018,0.2644454836845398,0.234210580587387,-0.9056040014751257,-9.673514618229865,-1.331676181523502,100,walking
1783069014739649000,4.7524088,0.5933490470036864,1.5572528233647345,0.0547149021364748,-0.2573781013488769,0.2774747908115387,0.1976647824048996,-0.923000615021214,-9.6677600002259,-1.3612005283020436,100,walking
1783069014749612000,4.7623718,0.5658566444441676,1.4749012878924608,0.1202203706175088,-0.2015318721532821,0.2945533692836761,0.1643459647893905,-0.9366586265608668,-9.662921328023076,-1.3860048608213662,100,walking
1783069014759575000,4.7723348,0.5456847209658473,1.345592770934105,0.2135807913601398,-0.1501796841621399,0.2975569367408752,0.141922727227211,-0.9473120494570584,-9.659009123015403,-1.4058932181179522,100,walking
1783069014769538000,4.7822978,0.5475571637742221,1.1334802985608576,0.2689858677178621,-0.0933558195829391,0.2980099320411682,0.1153699532151222,-0.9553196340195834,-9.656090605220198,-1.4204469363883137,100,walking
1783069014779502000,4.7922618,0.5995437369253486,0.9613222354352474,0.3274859874814748,-0.0400296673178672,0.2921022772789001,0.1070713698863983,-0.9616668110892176,-9.654069328525662,-1.429865922118723,100,walking
1783069014789464800,4.8022246,0.6827163795221597,0.7717612020879984,0.4108072447687387,0.0010157714132219,0.2581283450126648,0.1102719604969024,-0.9682250005610288,-9.652752985230087,-1.4343284544855357,100,walking
1783069014799428000,4.8121878,0.8175530122522264,0.4924971014618873,0.4441133020430803,0.020820565521717,0.2189629226922989,0.121984489262104,-0.9758695970300584,-9.65181424307525,-1.435462573082,100,walking
1783069014809391000,4.8221508,0.8993382921438664,0.2794178298830986,0.5153489847391843,0.0137658510357141,0.1799558699131012,0.1421004086732864,-0.9856791164480148,-9.65077204054594,-1.4357700315959752,100,walking
1783069014819354000,4.8321138,0.8900612721674144,0.0565881486624479,0.7028117306329309,-0.0200370475649833,0.1245426163077354,0.1536904573440551,-0.997650709270686,-9.649255790764093,-1.43768200269714,100,walking
1783069014829317000,4.8420768,0.8909605590946972,-0.1920382371157407,0.7889153121151029,-0.060116022825241,0.0581348277628421,0.1652147471904754,-1.0115683946598322,-9.647083122900128,-1.4425322192072867,100,walking
1783069014839280000,4.8520398,0.9115400404606014,-0.3988753994345664,0.8107166634261608,-0.0804205685853958,-0.0106732156127691,0.1723119169473648,-1.027509256439656,-9.644351652109622,-1.4495198861375451,100,walking
1783069014849243100,4.8620029,0.9411004084005952,-0.5852233159542083,0.8119418213069438,-0.0779851078987121,-0.0886561647057533,0.189816877245903,-1.0456971664939074,-9.641309800195694,-1.4567301097773016,100,walking
1783069014859206000,4.8719658,0.9582533493839204,-0.7712006455957889,0.7551743705548346,-0.0609020739793777,-0.1719053238630294,0.2042481899261474,-1.0665909014407544,-9.638189622348548,-1.4622120483197272,100,walking
1783069014869169000,4.8819288,0.937520577152446,-0.9666396310657264,0.6397264750361442,-0.0302743893116712,-0.2409107536077499,0.2230953723192215,-1.0903005705911666,-9.63518401079178,-1.4645290930904449,100,walking
1783069014879133000,4.8918928,0.8870642092432827,-1.1655851633518934,0.5201392877556383,0.0154459802433848,-0.3017333447933197,0.2319910228252411,-1.1160095968652517,-9.632562430116534,-1.4624072786308824,100,walking
1783069014889096000,4.9018558,0.8455806176669896,-1.4158739293843507,0.4106717818208039,0.0691683292388916,-0.3594224750995636,0.2374451756477356,-1.1433593760836869,-9.630523033243415,-1.4546933432526885,100,walking
1783069014899059000,4.9118188,0.7608526353869587,-1.7873124558389186,0.2610937992937863,0.1318992376327514,-0.4104786813259125,0.2224281430244445,-1.1711588718309998,-9.62928793849051,-1.440687029732019,100,walking
1783069014909022200,4.921782,0.6035838060963898,-2.1708622758477927,0.1477913913711905,0.1820273846387863,-0.4369550347328186,0.1864264607429504,-1.1970463234119118,-9.629109074792265,-1.4204589190870522,100,walking
1783069014918985200,4.931745,0.3953124462559819,-2.5952216606289147,0.1247235272556543,0.2185613512992859,-0.4695089757442474,0.1333620399236679,-1.2187681797459722,-9.630020928940176,-1.395595403726399,100,walking
1783069014928948200,4.941708,0.1978875476658344,-3.0248090091913937,0.0643802638433873,0.2345642745494842,-0.5153315663337708,0.0602217875421047,-1.2348762878514823,-9.63198959866464,-1.367574154987186,100,walking
1783069014938911000,4.9516708,0.0891628229223191,-3.283074745452404,0.0313023162364959,0.2158910930156707,-0.5661055445671082,-0.0316415391862392,-1.2437664274021982,-9.634839727398752,-1.339134826966375,100,walking
1783069014948874000,4.9616338,-0.0080626026853919,-3.4038118334203955,0.0932448315389454,0.1694522351026535,-0.6193807125091553,-0.1138820871710777,-1.2445536322571336,-9.638301850551366,-1.3132397766008972,100,walking
1783069014958837000,4.9715968,0.0418809933960437,-3.402528807872533,0.1348622055627405,0.1502171605825424,-0.6595754623413086,-0.1694569885730743,-1.2389816773436964,-9.642128715363144,-1.2902139980614185,100,walking
1783069014968800000,4.9815598,0.1741175266303121,-3.314719591516256,0.141683576015383,0.1664512604475021,-0.6949371695518494,-0.1800073683261871,-1.2305590091742575,-9.646290511217712,-1.2669580640278757,100,walking
1783069014978764000,4.9915238,0.3311757819101214,-3.271334038776159,0.016260814449191,0.2054339498281479,-0.7172017097473145,-0.1754481941461563,-1.222267785364762,-9.65077087150216,-1.2405959806725382,100,walking
1783069014988727000,5.0014868,0.3749632665146142,-3.261139977020025,-0.1380091252863407,0.2440575063228607,-0.7344810962677002,-0.1872449368238449,-1.213831600126624,-9.655728201648593,-1.209926482446864,100,walking
1783069014998690000,5.0114498,0.2371837852656841,-3.235070885261893,-0.2054115134298801,0.2545603811740875,-0.732894778251648,-0.2204446196556091,-1.2030945906002073,-9.661146135044095,-1.1769408892985431,100,walking
1783069015008653000,5.0214128,-0.1243943683665245,-3.1546114471465345,-0.105003512263298,0.2485773116350174,-0.719207227230072,-0.2843146622180938,-1.1871793016530572,-9.66708663100898,-1.1438717095199973,100,walking
1783069015018616000,5.0313758,-0.5921367486044764,-3.0640234137266877,0.052218263015151,0.2140858620405197,-0.6885462999343872,-0.3825824856758117,-1.1632618349708617,-9.67357833111584,-1.1131488736718893,100,walking
1783069015028579000,5.0413388,-1.0925935038339345,-2.9684359645843506,0.197166905241087,0.1397394686937332,-0.6506553888320923,-0.5023787021636963,-1.1280285359609872,-9.680579734310507,-1.0882588356304914,100,walking
1783069015038542000,5.0513018,-1.488957285773754,-2.7646242875665425,0.3203599349938333,0.0321218557655811,-0.6099807024002075,-0.6299802660942078,-1.0800213147696107,-9.687769353553652,-1.0728874443016945,100,walking
1783069015048505000,5.0612648,-1.7746292076155543,-2.3973557402729986,0.4849176061183214,-0.0974260121583938,-0.5612810850143433,-0.7259949445724487,-1.0204515930131075,-9.694559744346142,-1.0698510722804817,100,walking
1783069015058468000,5.0712278,-1.9532851083278653,-2.0329934358149764,0.614843962714076,-0.2332166135311126,-0.5109502673149109,-0.7907028198242188,-0.952826940421015,-9.700240712592006,-1.080666042413935,100,walking
1783069015068432100,5.0811919,-2.0097873322725297,-1.5964385863274335,0.7341419577896594,-0.3731971383094787,-0.4663148522377014,-0.8313295841217041,-0.8797149424590169,-9.704342302691936,-1.1055427095171064,100,walking
1783069015078395100,5.0911549,-1.9689757216736676,-0.941906171825528,0.8347611174888908,-0.4793878197669983,-0.4245467185974121,-0.8481175303459167,-0.8033600170530378,-9.706604402405024,-1.1431637804463506,100,walking
1783069015088358100,5.1011179,-1.8971017410740256,-0.2011708071202039,0.9419273607440292,-0.5528577566146851,-0.3838200569152832,-0.8590096235275269,-0.7252971917506307,-9.707081956788898,-1.1903254176590592,100,walking
1783069015098321000,5.1110808,-1.829332857705653,0.5239993241846561,1.019004755205661,-0.5834906101226807,-0.3424488306045532,-0.8651378154754639,-0.6462715858306736,-9.706061381569503,-1.2430119557730852,100,walking
1783069015108284000,5.1210438,-1.831782588945329,1.2193623462468386,1.099054443476349,-0.5787477493286133,-0.300397515296936,-0.8838542699813843,-0.5657110619610175,-9.703962947985527,-1.2974736138008534,100,walking
1783069015118247000,5.1310068,-1.9241390933424236,1.881534461846948,1.2488709109343588,-0.5317460298538208,-0.2606174945831299,-0.9081601500511168,-0.4827818361986428,-9.701295190081,-1.3498761473417282,100,walking
1783069015128210200,5.14097,-1.973244192773104,2.514696756061912,1.353380648331344,-0.4165864288806915,-0.2426054626703262,-0.9332178235054016,-0.3971649422548711,-9.69879694352448,-1.394979902176559,100,walking
1783069015138173200,5.150933,-1.972918614080548,3.0798195332735774,1.3821465779580175,-0.2287135571241378,-0.2490585297346115,-0.945914089679718,-0.3096533571382984,-9.697541975027322,-1.425541336917877,100,walking
1783069015148136200,5.160896,-1.9209774144411087,3.426795234122872,1.3459493292868137,0.000374489929527,-0.2718184292316437,-0.9326872229576112,-0.2225813507490791,-9.698406482902168,-1.4358816752769052,100,walking
1783069015158099000,5.1708588,-1.8533907557718452,3.5272996814012525,1.3332657888025046,0.20075324177742,-0.3204811811447143,-0.9014829397201538,-0.1379864019978791,-9.701496850132942,-1.4255923364527523,100,walking
1783069015168062000,5.1808218,-1.7555866534933446,3.4648850185424087,1.335795599541068,0.3484071493148803,-0.3933631181716919,-0.852752149105072,-0.0580211360410554,-9.706268886840345,-1.3983439717821775,100,walking
1783069015178026000,5.1907858,-1.6965388367190957,3.3178824394613504,1.395319947785884,0.4382579326629638,-0.4893717169761657,-0.7796275019645691,0.0150609930807084,-9.711896663594246,-1.3598555434338748,100,walking
1783069015187989000,5.2007488,-1.6488623087868093,3.0629245125740763,1.459086609775573,0.462047666311264,-0.6012710928916931,-0.6769160628318787,0.0784157303933054,-9.717607442456483,-1.316182698184997,100,walking
1783069015197952000,5.2107118,-1.5334737422399225,2.739195247277617,1.487883226801455,0.4318317770957947,-0.7140811681747437,-0.5342100262641907,0.1288256288122385,-9.722780461180207,-1.2733024646185338,100,walking
1783069015207915000,5.2206748,-1.4173571536794305,2.4105361243635413,1.516701032745838,0.3556091785430908,-0.8197066783905029,-0.361916571855545,0.1629450848286971,-9.727066760197282,-1.2361303795658052,100,walking
1783069015217878000,5.2306378,-1.4107941419020291,2.0544705236077307,1.557470265507698,0.2427824437618255,-0.9083303213119508,-0.1762805134057998,0.1785284932066686,-9.730281046068669,-1.2083659551318735,100,walking
1783069015227841000,5.2406008,-1.4273688446059822,1.6890893974959849,1.6123533638179302,0.1141850501298904,-0.9930942058563232,0.0008178374264389,0.1755005236876197,-9.732259652665256,-1.1927695959407836,100,walking
1783069015237804000,5.2505638,-1.4140449603915213,1.3997773655861616,1.610193847696483,-0.0209054537117481,-1.074974536895752,0.1669123470783233,0.1549942719547078,-9.73294471231997,-1.1900111640781164,100,walking
1783069015247767000,5.2605268,-1.3404660755701363,1.1484937432974576,1.5630834292143585,-0.1429932713508606,-1.1567280292510986,0.3215911090373993,0.1179269624507054,-9.732304660850764,-1.1994642712738364,100,walking
1783069015257730000,5.2704898,-1.2373868093676863,0.9427800320506096,1.4505489369243385,-0.2546929717063904,-1.21965491771698,0.4499783217906952,0.0660237293346319,-9.730248312842845,-1.219957535661012,100,walking
1783069015267694000,5.2804538,-1.2263976517111062,0.7953706257343292,1.3575778077602385,-0.3575535714626312,-1.2810887098312378,0.5459207892417908,0.0022123330113674,-9.7266406437397,-1.2501383005216715,100,walking
1783069015277657000,5.2904168,-1.2877845789574085,0.6508692158192396,1.24601493698135,-0.4547256827354431,-1.3270353078842163,0.591536819934845,-0.0697275979544036,-9.721301620799302,-1.2891101284727453,100,walking
1783069015287620000,5.3003798,-1.3729123011447488,0.5253063151299953,1.178698327425122,-0.5481195449829102,-1.3473719358444214,0.5953470468521118,-0.144862005122099,-9.714102649205923,-1.3362665780536829,100,walking
1783069015297583000,5.3103428,-1.4629486920312047,0.5429886868149042,1.1352185205303131,-0.6335623264312744,-1.352890968322754,0.5717036128044128,-0.2195765063772909,-9.705001058861614,-1.3910989690899849,100,walking
1783069015307546000,5.3203058,-1.5004428486451509,0.5397229630172252,1.0898843179404736,-0.7008281350135803,-1.3513431549072266,0.5417574644088745,-0.2925148648054338,-9.694102648228409,-1.4523067403770982,100,walking
1783069015317508900,5.3302687,-1.3856480102077129,0.6254904444128274,0.996891123075038,-0.7183114886283875,-1.335001826286316,0.5182833671569824,-0.363316339069046,-9.681856914639472,-1.5165822286717592,100,walking
1783069015327471900,5.3402317,-1.18731191505678,0.7827864539712667,0.9107717595018446,-0.6824576258659363,-1.3268967866897583,0.5079728960990906,-0.4331135499272495,-9.669014968723058,-1.5789033680282532,100,walking
1783069015337435000,5.3501948,-0.9331332289136944,0.8890887738734483,0.7059843693196773,-0.6031861305236816,-1.3133610486984253,0.4962117373943329,-0.5026394695634022,-9.656356562680006,-1.63478482972607,100,walking
1783069015347398100,5.3601579,-0.7016694287300109,0.9726520232230425,0.4953052907504141,-0.503124475479126,-1.2983860969543457,0.4796154499053955,-0.5711480288505554,-9.64459890486896,-1.681033370681852,100,walking
1783069015357361200,5.370121,-0.5816298945721239,1.0843488956451417,0.3976813673444092,-0.3934655785560608,-1.258844017982483,0.4530177414417267,-0.637617154731974,-9.63419149262309,-1.716437715409696,100,walking
1783069015367325200,5.380085,-0.5010146813731641,1.1424439417392014,0.3816935246177017,-0.2702339291572571,-1.2191320657730105,0.421540766954422,-0.7008744789600372,-9.625549336484074,-1.740103691548854,100,walking
1783069015377288200,5.390048,-0.4731597291115671,1.0782669453829523,0.3693634737461805,-0.1349433809518814,-1.1753478050231934,0.3782789409160614,-0.760153401076421,-9.619131870657204,-1.750668194052577,100,walking
1783069015387251200,5.400011,-0.4567813526973128,0.9060451693713664,0.3110422176808118,-0.0128736644983291,-1.129946231842041,0.3188800811767578,-0.8136419762883335,-9.615103345793486,-1.748760022343695,100,walking
1783069015397214000,5.4099738,-0.4123785857386887,0.7046703641116618,0.3312598069317639,0.0924713984131813,-1.076787352561951,0.2682482302188873,-0.8608877115879208,-9.613344519427418,-1.7357582096904516,100,walking
1783069015407177000,5.4199368,-0.3375068846277892,0.4986971251457929,0.4046769253201782,0.1830745339393615,-1.014149785041809,0.2386741042137146,-0.9029887044101952,-9.613571898442506,-1.7129586411222817,100,walking
1783069015417140000,5.4298998,-0.2319906736019998,0.2085340293645858,0.5236790061891079,0.2637802064418793,-0.927549123764038,0.2027733027935028,-0.9405696625247596,-9.615351767596602,-1.682472609704733,100,walking
1783069015427103000,5.4398628,-0.1089683242410421,-0.08297405128479,0.6630654111780225,0.3464327454566955,-0.8332545757293701,0.169059008359909,-0.9730610424153506,-9.618629181832077,-1.6448377294458447,100,walking
1783069015437066000,5.4498258,0.0791883222009986,-0.3919008842468262,0.815009392184019,0.4284010529518127,-0.7695766091346741,0.1133025363087654,-0.9996091498620808,-9.623493572998049,-1.5998586239039898,100,walking
1783069015447029000,5.4597888,0.2752898632328957,-0.6717395698904991,0.9016618397206068,0.5117987394332886,-0.7263372540473938,0.0159687884151935,-1.0176420885503292,-9.630210898554324,-1.5471984623402355,100,walking
1783069015456992300,5.4697521,0.3741415018029511,-0.935833573913574,1.000885015016794,0.565270721912384,-0.71377032995224,-0.1171535402536392,-1.0238679773278534,-9.638906246185302,-1.487805923781544,100,walking
1783069015466955000,5.4797148,0.3373226871673017,-1.192221825864911,1.1737472808890044,0.5787116885185242,-0.7312451601028442,-0.265507310628891,-1.0160790770173072,-9.649172788655758,-1.4252882389396428,100,walking
1783069015476919000,5.4896788,0.234782350147143,-1.31604168227911,1.3413199159204958,0.5321539640426636,-0.7455431222915649,-0.4101733863353729,-0.9938940601509064,-9.660325466310978,-1.3640649778224527,100,walking
1783069015486882000,5.4996418,0.0746203566983342,-1.3312830905526876,1.6097072332233189,0.4521685838699341,-0.770117461681366,-0.511798083782196,-0.9591282325223088,-9.671420276299118,-1.3092349248737096,100,walking
1783069015496845000,5.5096048,0.0598970540147274,-1.288437636038661,1.7848611171640454,0.3613060414791107,-0.8043649196624756,-0.5442558526992798,-0.9177693633042276,-9.681643564149736,-1.262475950177759,100,walking
1783069015506808000,5.5195678,0.0850404822953045,-1.26915484341979,1.7423814272224902,0.265529990196228,-0.8326631188392639,-0.5176820755004883,-0.8763239848464727,-9.690303255945445,-1.2249344472907482,100,walking
1783069015516771000,5.5295308,0.0406415877941995,-1.2523083380371332,1.649386186530441,0.1720481663942337,-0.8545501232147217,-0.459910899400711,-0.8392574059948325,-9.697125210919976,-1.1965828706186263,100,walking
