time,seconds_elapsed,acc_x,acc_y,acc_z,gyr_x,gyr_y,gyr_z,grav_x,grav_y,grav_z,fs_hz,activity
1783066732783304400,0.0,0.2276139198224991,0.4991828628361225,0.7710840334787964,0.1186752989888191,0.6233068704605103,0.0825606659054756,1.1119419821001588,-9.428358538910746,-2.457649465455115,50,walking
1783066732803229400,0.019925,0.2177054700747132,0.3174655287265777,0.7634243125058711,0.0686163455247879,0.6572436690330505,0.0131312850862741,1.134419917498529,-9.434285590872168,-2.4244014219783243,50,walking
1783066732823153200,0.0398488,0.4495081468239426,-0.0929109234094619,0.5476476185366511,-0.04040964320302,0.6271077394485474,-0.0208664983510971,1.1665781199119984,-9.435115027433634,-2.4058478204168376,50,walking
1783066732843077400,0.059773,0.6024837358999997,-0.2503518943965435,0.4674715274073183,-0.1296401470899582,0.5739055275917053,-0.0455655045807361,1.201696779566258,-9.429704108300804,-2.409767478078604,50,walking
1783066732863002400,0.079698,0.5199269601792097,-0.2635387082278728,0.7218560383208096,-0.1282020062208175,0.6205837726593018,-0.0110110165551304,1.2360701738111677,-9.422652436223624,-2.41994356578663,50,walking
1783066732882926600,0.0996222,0.3203261788547039,0.1181967558354139,0.7431067700117826,-0.1089386641979217,0.6307045817375183,0.0029707916546612,1.26687988422513,-9.41682709107101,-2.4266794499129056,50,walking
1783066732902851300,0.1195469,0.0581665038950741,0.4581652082711458,0.8033098943009972,-0.0605063289403915,0.6352238059043884,-0.0039851716719567,1.296802144280076,-9.412779861506818,-2.42657891214788,50,walking
1783066732922775300,0.1394709,-0.2710125512398779,0.7282435474008321,0.9145107998996972,-0.0212335381656885,0.6172670125961304,-0.0481129251420497,1.3305964234627785,-9.410366955146191,-2.4176203835360703,50,walking
1783066732942700300,0.1593959,-0.580715337010473,0.8023679372757673,1.1014387082643806,0.0016463346546515,0.6578182578086853,-0.1194151788949966,1.3763383300706744,-9.407727254292368,-2.4022381054870783,50,walking
1783066732962624300,0.1793199,-0.6539158900387585,0.6242892519295216,1.3232035367324948,0.0238145813345909,0.7679259777069092,-0.1363526582717895,1.4348746901914478,-9.404875371992588,-2.379046761122346,50,walking
1783066732982548200,0.1992438,-0.6708160253047942,0.4979828393965959,1.2008616439163684,-0.0356524102389812,0.799642026424408,-0.1477384865283966,1.4989105245113372,-9.40082171268761,-2.3554652483962477,50,walking
1783066733002473500,0.2191691,-0.7796160072416066,0.2538116794615984,1.1193185022175312,-0.1605888903141021,0.8079257011413574,-0.1565270870923996,1.565213426980376,-9.391581590655443,-2.3491902597799896,50,walking
1783066733022397200,0.2390928,-0.835832107721269,-0.0282370834469795,1.0329524704068898,-0.2609010636806488,0.8070213794708252,-0.106841966509819,1.628163219629228,-9.377384138476849,-2.363080984096974,50,walking
1783066733042322400,0.259018,-1.0808300738692282,-0.0702227062612771,0.9030009793698788,-0.3396224081516266,0.7929990291595459,-0.0672990307211875,1.6810265025496482,-9.360238357886672,-2.393840571758896,50,walking
1783066733062246400,0.278942,-1.414266640318185,-0.1174684415608644,0.8945195667505264,-0.3673477172851562,0.837848424911499,-0.0665794685482978,1.7320969107039272,-9.3408252168864,-2.432943771004677,50,walking
1783066733082170400,0.298866,-1.57402801707685,-0.1146498770087957,0.6164511056497692,-0.3249697983264923,0.8229628801345825,-0.0869842618703842,1.7872614563040434,-9.321197556352615,-2.468066814573109,50,walking
1783066733102095400,0.318791,-1.5715541743092238,-0.1901408790618181,0.3056441580295562,-0.2559821605682373,0.7401804327964783,-0.0868195965886116,1.8423982371144,-9.303317031747104,-2.494842008773982,50,walking
1783066733122019300,0.3387149,-1.6256174806691706,-0.350626624572277,0.2988505523666739,-0.1164239570498466,0.6790746450424194,-0.0466705337166786,1.890176617985964,-9.29157106437385,-2.502862525883317,50,walking
1783066733141944300,0.3586399,-1.7462828185752033,-0.4916518828094005,0.4845324061930179,-0.0843895748257637,0.613482654094696,-0.0015452094376087,1.926596131105721,-9.286267697268723,-2.494763975101709,50,walking
1783066733161868300,0.3785639,-2.060935774099081,-0.3553822946667671,0.6061766721338033,-0.1563874930143356,0.5147460699081421,-0.0274450965225696,1.9561894514672455,-9.28008228663206,-2.4947525769248604,50,walking
1783066733181792300,0.3984879,-2.3137691100478173,-0.3734551269739866,0.6531327768370508,-0.1363445967435836,0.4873510003089905,-0.0761198699474334,1.9910006526075303,-9.269940247324108,-2.504897831103205,50,walking
1783066733201717500,0.4184131,-2.201830537824333,-0.4287602500885725,0.2578323132798075,0.0006016725674271,0.3838058114051819,-0.1075839474797248,2.0300468609690663,-9.262669964060189,-2.5004516653493045,50,walking
1783066733221641200,0.4383368,-2.0666635040961205,-0.8151783190101385,0.115289051695168,0.1543071568012237,0.2685461044311523,-0.114496611058712,2.0675610374577342,-9.26186566193998,-2.472530223722756,50,walking
1783066733241566500,0.4582621,-1.976756000286341,-1.122103164499998,0.3251835557579994,0.3036588430404663,0.2173487991094589,-0.1009420752525329,2.099907748180628,-9.268433349892495,-2.420110008394718,50,walking
1783066733261490400,0.478186,-1.807766191933304,-1.4585218154996633,0.255756529919058,0.3977830111980438,0.1447603553533554,-0.0621442422270774,2.123651173470169,-9.281866831961274,-2.346792112597078,50,walking
1783066733281414100,0.4981097,-1.6360881674095988,-1.862194970604777,0.1842740328550338,0.453012466430664,0.0803564041852951,0.0117211127653718,2.133932475118339,-9.30047099466622,-2.2622915823973715,50,walking
1783066733301339400,0.518035,-1.4859280010804532,-2.0777467697769403,-0.0327057532936334,0.3715217411518097,-0.0665564090013504,0.0955764129757881,2.1242820187196134,-9.321646469163896,-2.182828607973456,50,walking
1783066733321263400,0.537959,-1.4592909001760184,-2.034322638592124,-0.0714728524528443,0.191174104809761,-0.2175753563642501,0.1327336877584457,2.095849266570061,-9.338883435168862,-2.13613086194545,50,walking
1783066733341188000,0.5578836,-1.802530190975964,-1.749246636816859,0.0577596766598522,0.058218203485012,-0.1824914067983627,0.1056897640228271,2.063198750595004,-9.3489243521899,-2.123955417113751,50,walking
1783066733361112300,0.5778079,-1.968710787127167,-1.4435919573932885,-0.4510793416634202,0.013870527036488,-0.1468724310398101,-0.0257983785122632,2.048018863250315,-9.3523134101063,-2.1237354907527566,50,walking
1783066733381037300,0.5977329,-1.6821099138721822,-1.4026128812730312,-1.438394973272085,0.0037847124040126,-0.2517700791358948,-0.2332125008106231,2.062787977837026,-9.3475016259104,-2.1306113678716123,50,walking
1783066733400961300,0.6176569,-0.9639477616332472,-2.0311656358659267,-2.1256405937217173,0.1184227690100669,-0.33775395154953,-0.3204513192176819,2.105383256982267,-9.337101812449095,-2.134541693057865,50,walking
1783066733420885200,0.6375808,0.0642385172851383,-2.451938394331932,-2.4947540382295847,0.3524066805839538,-0.4692321419715881,-0.1375827342271804,2.1337882443420586,-9.336661667466164,-2.108098653420806,50,walking
1783066733440810200,0.6575058,0.5029929226435721,-2.0068577085614203,-2.500375677503645,0.5782672166824341,-0.647777795791626,0.110701598227024,2.1117742731936278,-9.355872563892602,-2.0441183486804366,50,walking
1783066733460734500,0.6774301,0.0352965004391968,-0.8337275366574526,-2.074629368408769,0.7173975706100464,-0.7917031645774841,0.1947419643402099,2.050801187445223,-9.389214277002214,-1.951220284752548,50,walking
1783066733480659200,0.6973548,-0.2592819275662303,0.2278688444316387,-1.4517062902659177,0.7730298638343811,-0.8427435755729675,0.1724595874547958,1.9859502373501656,-9.424745609110593,-1.8440620786733923,50,walking
1783066733500583400,0.717279,-0.1662906323969364,0.9580056582331656,-0.7889728875212371,0.6640450954437256,-0.8854109048843384,0.190017744898796,1.9203424775384368,-9.458169739806651,-1.7394534109465778,50,walking
1783066733520507400,0.737203,-0.2096361453875899,1.58303549939692,-0.4856219549953937,0.4835394918918609,-0.917320430278778,0.1690159291028976,1.8546023235186933,-9.484499528327584,-1.6658676579929887,50,walking
1783066733540432100,0.7571277,-0.4487319017544388,1.957114895749092,-0.2123078488148748,0.3295393288135528,-0.837660551071167,0.1044583469629287,1.7992112756863234,-9.502892094108462,-1.6212021484449506,50,walking
1783066733560356400,0.777052,-0.485075865419954,2.116935455349088,-0.3799244691185653,0.1826209723949432,-0.8088952898979187,0.0126764420419931,1.7619333921715616,-9.513221764943005,-1.6014270422644912,50,walking
1783066733580281300,0.7969769,-0.4703764550685882,2.1109242322355506,-0.6929191360414028,0.1015546172857284,-0.8406488299369812,-0.1077558547258377,1.742894637441635,-9.516040329495072,-1.605514749969542,50,walking
1783066733600205300,0.8169009,-0.6768813166931271,1.7907734099477528,-0.7033518288590014,0.1288065016269683,-0.7362151145935059,-0.2771095335483551,1.7532247466675936,-9.512972174096108,-1.612440019188076,50,walking
1783066733620130300,0.8368259,-0.4717579725548624,1.2095341951936482,-1.071394575395435,0.212210327386856,-0.6376878023147583,-0.429208755493164,1.799043371773511,-9.505592000716923,-1.605472079871595,50,walking
1783066733640054300,0.8567499,-0.0617168898530304,0.430273577260971,-1.518414850926399,0.3079313337802887,-0.6049922704696655,-0.4948761165142059,1.8685909552522,-9.496815989065167,-1.5777369545973836,50,walking
1783066733659978500,0.8766741,0.5174792747661471,-0.1746791060358286,-1.8014064476430416,0.3175483345985412,-0.7075817584991455,-0.4248858094215393,1.937924165327847,-9.488917929291723,-1.5411983451426028,50,walking
1783066733679903200,0.8965988,0.5502190764598548,-0.2261287227660417,-1.4646828223474322,0.1939025521278381,-0.8385316729545593,-0.299500048160553,1.9823976594351231,-9.48295814410448,-1.521186361466348,50,walking
1783066733699827200,0.9165228,0.015170827255398,0.1545434959799051,-0.7189563713565469,-0.0002655021380633,-0.8256003260612488,-0.2045570015907287,2.003739430410415,-9.476066631025075,-1.536082171172649,50,walking
1783066733719752200,0.9364478,-0.3898138488397002,0.7931634710788726,-0.4300144879333674,-0.1893562376499176,-0.8195295333862305,-0.1492104232311248,2.0106880805045364,-9.466157815951108,-1.587249756091088,50,walking
1783066733739676200,0.9563718,-0.8078934226989746,1.583071155232191,-0.5802291609287261,-0.253400057554245,-0.8736158013343811,-0.1995778232812881,2.0136732337951657,-9.452063824146986,-1.665531996297836,50,walking
1783066733759600400,0.976296,-1.151363161253929,1.9642489854127168,-0.5675736774951219,-0.0860825553536415,-0.8606634140014648,-0.3438541889190674,2.0351228490591047,-9.434756715515256,-1.7360972323864698,50,walking
1783066733779525400,0.996221,-1.0687933068558573,1.7114502823859452,-0.5402724135935306,0.2266258001327514,-0.8216052055358887,-0.4328829050064087,2.080044233064353,-9.42077904356718,-1.7586098007068036,50,walking
1783066733799449000,1.0161446,-0.8015854085959494,1.0122866989970207,-0.3966818349130451,0.4624924659729004,-0.804786205291748,-0.4285533726215362,2.133360374318808,-9.415037869566678,-1.7251793864004312,50,walking
1783066733819374300,1.0360699,-0.7278422731235623,0.4451256939560175,-0.3324291429720818,0.6252627968788147,-0.8216314315795898,-0.3962772786617279,2.1839655030488965,-9.415599595102668,-1.6574517118252814,50,walking
1783066733839298300,1.0559939,-0.8149139689855277,0.1188742167055606,-0.1282446871191263,0.7104911208152771,-0.8265549540519714,-0.3447479605674743,2.227044035666436,-9.4210952699095,-1.5664014677211642,50,walking
1783066733859223300,1.0759189,-0.943873964767158,-0.2076438025265932,0.2298351760685443,0.6599311232566833,-0.7846125364303589,-0.2637494802474975,2.259787052230537,-9.428568966791032,-1.4716773574098945,50,walking
1783066733879147300,1.0958429,-1.1790052014172077,-0.1851461395144462,0.5517623603790998,0.439024955034256,-0.758786141872406,-0.2254892140626907,2.282732166749238,-9.433858305370808,-1.4006561942473053,50,walking
1783066733899071200,1.1157668,-1.471287335179001,0.0261626152604818,0.6767739107958972,0.1878363341093063,-0.7102571725845337,-0.2624585926532745,2.307013644438237,-9.43133609341681,-1.3776765929371118,50,walking
1783066733918996200,1.1356918,-1.3041053069002926,-0.1564391004681587,0.3601058160573244,0.1237867325544357,-0.6297482252120972,-0.2270225435495376,2.336305497635156,-9.423360292232037,-1.3828789838857949,50,walking
1783066733938920200,1.1556158,-1.1601901724405586,-0.5817904188960791,0.002925093666464,0.2106714695692062,-0.4986493587493896,-0.1314164102077484,2.35310114961341,-9.419836794281006,-1.3783938012957573,50,walking
1783066733958846200,1.1755418,-1.2745019035361709,-0.6448094773888587,-0.4781989653877914,0.3109424114227295,-0.4573283493518829,-0.142168328166008,2.3640131503805515,-9.420862630197403,-1.352467332878709,50,walking
1783066733978770200,1.1954658,-1.2079976332761346,-0.9980646968990564,-0.6668294398866593,0.4584301114082336,-0.3854970932006836,-0.1272246539592743,2.3787620989620684,-9.424493095654247,-1.3003064991392197,50,walking
1783066733998695200,1.2153908,-0.907922799811512,-1.5680530343204735,-0.5537526574134827,0.5409670472145081,-0.2697579860687256,-0.0296688582748174,2.3861926873542365,-9.433303594097495,-1.2203507727622984,50,walking
1783066734018619400,1.235315,-0.7182752572245895,-1.8437462907224893,-0.4642635251462459,0.4656780660152435,-0.1975897997617721,0.1089470759034156,2.3728182419963177,-9.447457791656255,-1.133866083008051,50,walking
1783066734038543000,1.2552386,-0.8272742688648402,-1.6789087797433138,-0.3627279812544584,0.3017347157001495,-0.171446606516838,0.2103182822465896,2.338314791630953,-9.463406471416354,-1.0708001166336238,50,walking
1783066734058468400,1.275164,-1.0814520051598548,-1.3935393479794262,-0.3220283065974712,0.1968871653079986,-0.1079581752419471,0.2142150253057479,2.2933669580101967,-9.478829665997624,-1.0308455612555143,50,walking
1783066734078392300,1.2950879,-1.174808334249258,-1.2524778493851425,-0.3966670757353305,0.1069881916046142,-0.0493890754878521,0.1731196492910385,2.255640746206045,-9.49060427494347,-1.0054374176241456,50,walking
1783066734098317000,1.3150126,-0.8857150596566498,-1.2990636594712734,-0.5057569805294275,0.097292274236679,-0.0031410870142281,0.1905830204486847,2.22153009455055,-9.500282203871013,-0.989870942114666,50,walking
1783066734118241300,1.3349369,-0.8628007786676287,-1.1123439870297909,-0.5340203674614429,0.1044957041740417,0.0333808362483978,0.180138811469078,2.1849986454889176,-9.51102746976912,-0.967742404675856,50,walking
1783066734138166300,1.3548619,-1.0777625029921531,-1.077660211661458,-0.4043370989065617,-0.0485717356204986,0.0437600426375865,0.0753590539097786,2.160240928590297,-9.517579960152506,-0.9588615444101392,50,walking
1783066734158090200,1.3747858,-1.1205964131988584,-1.1656944689452649,-0.3461591237694025,-0.2838916182518005,0.0502050258219242,-0.0470406301319599,2.158931745687872,-9.514988774615526,-0.9871121449258178,50,walking
1783066734178014200,1.3947098,-0.5713963045231998,-1.4384312136292456,-0.9081967944473028,-0.4576258063316345,-0.0501516722142696,-0.0595392696559429,2.172369027148932,-9.504117836511137,-1.0596871134016663,50,walking
1783066734197939200,1.4146348,0.221047035587579,-1.6584177803784608,-1.349917648395896,-0.4175050854682922,-0.2024602442979812,0.13938969373703,2.163128758986294,-9.495569203874467,-1.151275117644295,50,walking
1783066734217863400,1.434559,0.3809136262863874,-1.0328069244563578,-1.7142337756246326,-0.1820272952318191,-0.3773596286773681,0.3327077031135559,2.1102532011061905,-9.498537406030296,-1.2227036925639956,50,walking
1783066734237788200,1.4544838,0.2073719998478889,-0.1176835456162691,-1.7052810922317203,0.1167386770248413,-0.5479657053947449,0.4764746427536011,2.020282715062797,-9.514936752167344,-1.246918753953278,50,walking
1783066734257712000,1.4744076,0.0949079424455761,0.7399269709318875,-1.4894734186023473,0.3059493601322174,-0.7360904216766357,0.5093665719032288,1.9091884847089649,-9.539964225918052,-1.230638942542672,50,walking
1783066734277637000,1.4943326,0.1691501134812831,1.4902309589713811,-1.3137417347736655,0.492816150188446,-0.904399871826172,0.4814122915267944,1.7945443067885931,-9.56781903204918,-1.1861042928326877,50,walking
1783066734297561000,1.5142566,0.2598033210918307,1.9267314479231836,-1.0150402354888617,0.7343700528144836,-0.9676765203475952,0.4373105466365814,1.6842882808245718,-9.597902035623788,-1.10173316116631,50,walking
1783066734317485300,1.5341809,0.3209126004405319,2.109261851981282,-0.5791260950576513,0.900810718536377,-0.9361597299575806,0.3456928133964538,1.588163802196085,-9.627952305972576,-0.9750100575912743,50,walking
1783066734337410300,1.5541059,0.2934294041007757,1.901063922703266,-0.1069499701559543,0.9818886518478394,-0.7679938673973083,0.2100895196199417,1.518681977429986,-9.653638535892965,-0.8193067240517586,50,walking
1783066734357334000,1.5740296,0.5057299463920295,1.327751993817091,-0.1567190864533185,0.8839119672775269,-0.6628324389457703,0.103140152990818,1.478913592273742,-9.67214332987666,-0.6579079553496092,50,walking
1783066734377259300,1.5939549,0.5188618151657283,0.8946984304487705,-0.1024877300500869,0.6087572574615479,-0.584700345993042,0.0049427300691604,1.460095494557172,-9.682914314737916,-0.5288332106145098,50,walking
1783066734397183200,1.6138788,0.6576939472727478,0.2677648014903068,-0.0603121376216411,0.1993606239557266,-0.4747032821178436,-0.0759411752223968,1.4635687236256896,-9.685655722400544,-0.4652150537174195,50,walking
1783066734417108200,1.6338038,1.1817903020910918,-0.3364502151817083,-0.3103711134862154,-0.2010589092969894,-0.3996805846691131,0.0112656755372881,1.4678426015526056,-9.684330026754736,-0.4791166282219812,50,walking
1783066734437032200,1.6537278,1.3303215520441531,-0.1756622718542814,-0.8452256667494773,-0.4997996985912323,-0.4679368436336517,0.135066732764244,1.4481493284367024,-9.682911392128467,-0.5607693312425166,50,walking
1783066734456956200,1.6736518,0.8597839150644838,0.6271820507615804,-0.9750099114608018,-0.6076534390449524,-0.5600400567054749,0.1701495796442031,1.4106674467824398,-9.68040554678738,-0.6856680689346045,50,walking
1783066734476881200,1.6935768,0.1978068836450576,1.491596402105689,-0.8188333343863486,-0.5573433041572571,-0.5580902695655823,0.0825845226645469,1.3765303455114364,-9.67527695172727,-0.8152091525398194,50,walking
1783066734496805000,1.7135006,-0.0205626032963395,1.9777578708052637,-0.7862760496526956,-0.4050683081150055,-0.5854476094245911,-0.0284290220588445,1.3616146620608864,-9.667484690415858,-0.9252787160210312,50,walking
1783066734516730400,1.733426,-0.057284460363537,2.2270985423326493,-0.649754459510371,-0.1437798738479614,-0.6097682118415833,-0.1245442181825637,1.3649673334896564,-9.660046064847707,-0.995361283159256,50,walking
1783066734536654300,1.7533499,-0.114530780673772,2.1464391977310178,-0.3126565210096538,0.1080111414194107,-0.5996272563934326,-0.2026355862617492,1.384056064841151,-9.655402622956036,-1.0138805440597236,50,walking
1783066734556579000,1.7732746,-0.2750605114564299,1.945007109326124,0.2117728651553392,0.2244965434074401,-0.5517320036888123,-0.269303023815155,1.41784289136976,-9.652391166180372,-0.9957241981875152,50,walking
1783066734576503300,1.7931989,-0.3495471587724983,1.6919892105907202,0.6067728844612836,0.1650770306587219,-0.5224162340164185,-0.3263306617736816,1.4643471606522798,-9.647921327289938,-0.9714398709543048,50,walking
1783066734596427300,1.8131229,-0.4652431838333606,1.381044023543596,0.9412129288643598,0.0085191214457154,-0.4676134884357452,-0.3744965493679046,1.5221337253190577,-9.63924409983754,-0.9687463940866292,50,walking
1783066734616352300,1.8330479,-0.5136041868984699,1.1101637203812598,1.027720999494195,-0.1634428352117538,-0.4092528223991394,-0.4097605645656585,1.5890496451199054,-9.625440615412591,-0.9980930462107062,50,walking
1783066734636276200,1.8529718,-0.5289838345989585,0.7960995245307684,0.9063526278853417,-0.2456927895545959,-0.3515484631061554,-0.4273466169834137,1.6623388993449508,-9.607360184320807,-1.0515008843366056,50,walking
1783066734656201200,1.8728968,-0.4107262884870171,0.3755652509957551,0.8445784548871219,-0.2233172208070755,-0.2822588384151459,-0.3822986781597137,1.7336724894575777,-9.588304770717023,-1.1086888985883443,50,walking
1783066734676125200,1.8928208,-0.4260881082698702,0.1738777265250682,0.7042495083510876,-0.1668125092983245,-0.2773097157478332,-0.3268164396286011,1.794673486126214,-9.571568155449627,-1.1552570999525489,50,walking
1783066734696050200,1.9127458,-0.7920812288001179,0.1670809059917926,0.9237393045593052,-0.1441395282745361,-0.2405354678630828,-0.3173183500766754,1.8492706071019167,-9.556391044583917,-1.194134527618438,50,walking
1783066734715974400,1.93267,-1.0597508993528784,0.0708136578917503,1.1891980941295623,-0.1608522087335586,-0.1822211593389511,-0.3156664967536926,1.9044550264462827,-9.540928687036036,-1.2304979266367853,50,walking
1783066734735899100,1.9525947,-1.2432979331076144,-0.0506634347885847,1.099881395819783,-0.1894342750310897,-0.1978690922260284,-0.3157797455787658,1.9594633585713803,-9.524497192195057,-1.270767393182963,50,walking
1783066734755823000,1.9725186,-1.5201453279808164,-0.216618551620841,1.0330307963401075,-0.1656979769468307,-0.2182756960391998,-0.3463672399520874,2.0164934057824317,-9.50668330308497,-1.3141995615437625,50,walking
1783066734775747300,1.9924429,-1.660361754053086,-0.647877048265934,0.8480044838130474,-0.0535612478852272,-0.2949903905391693,-0.3515278697013855,2.076204801031947,-9.489322418439388,-1.3462975582025944,50,walking
1783066734795672000,2.0123676,-1.7991364568844437,-1.1294190404713154,0.9385276353031397,0.0776637941598892,-0.3095555901527405,-0.3477988541126251,2.13327722608,-9.475098662775755,-1.357213358362019,50,walking
1783066734815596300,2.0322919,-1.8197358850598333,-1.6171943741083143,0.8319371461093426,0.2067828327417373,-0.3267078995704651,-0.3606158196926117,2.191884751740843,-9.46361982190609,-1.3438470963105558,50,walking
1783066734835521300,2.0522169,-1.4389659050278365,-2.2987281927824017,0.7188064414918423,0.2795725464820862,-0.3567974269390106,-0.2596721351146698,2.2429686038985848,-9.456203408169744,-1.3113713523805142,50,walking
1783066734855445200,2.0721408,-1.2637255118474364,-2.657406606385112,0.5604693984478711,0.2169976234436035,-0.4464595317840576,-0.1546562314033508,2.2707867312811314,-9.453812129119038,-1.2803759101361036,50,walking
1783066734875370200,2.0920658,-1.3439406198129058,-2.7702959034621712,0.4828780631147324,0.1052917167544364,-0.5326816439628601,-0.0841355770826339,2.280223252668232,-9.452703291094302,-1.2717673640057443,50,walking
1783066734895294200,2.1119898,-1.518408567316085,-2.7031349228590726,0.3323306510336697,-0.0097173135727643,-0.5395327806472778,-0.0685688853263855,2.279614765381068,-9.45058030759096,-1.2885147929280996,50,walking
1783066734915218200,2.1319138,-1.4249854566007851,-2.6032576675683257,-0.118514589612931,-0.051827386021614,-0.5128940343856812,-0.0906348973512649,2.280912403976172,-9.446010515457392,-1.3193531449146567,50,walking
1783066734935143200,2.1518388,-0.8862082500010728,-2.8154841217100617,-0.7769559942521155,-0.0222450569272041,-0.5490085482597351,-0.0385400131344795,2.280232312757522,-9.441782668629289,-1.35044167227,50,walking
1783066734955065900,2.1717615,-0.5617113613329827,-2.725310514310002,-1.5133435390114784,0.0682028830051422,-0.6827132105827332,0.0059851156547665,2.264437654515356,-9.44202290712595,-1.3751112724937498,50,walking
1783066734974990800,2.1916864,-0.3134079238988459,-2.439578678974509,-1.806812690600753,0.2783414721488952,-0.757222056388855,-0.0027955924160778,2.2452292423069475,-9.446285825267434,-1.3773260259337723,50,walking
1783066734994915000,2.2116106,0.2743587929278612,-2.1644974169909954,-1.9270790923170744,0.5937144160270691,-0.7880628705024719,0.1122111231088638,2.214712815751135,-9.460248884168267,-1.3300826287217438,50,walking
1783066735014839800,2.2315354,0.7133303481683134,-1.5020733724564312,-1.9116868773959577,0.8338159918785095,-0.8671976327896118,0.280121237039566,2.156868237286806,-9.487160856491329,-1.2296551922023295,50,walking
1783066735034764000,2.2514596,0.8639410347439348,-0.3360965794384479,-1.500603446034342,0.9924808740615844,-0.9096611142158508,0.4491303265094757,2.0659636852636933,-9.523975214147567,-1.0936639095444232,50,walking
1783066735054688000,2.2713836,0.4975386027604341,0.9049258099526166,-1.0801998131416737,1.1258375644683838,-0.8621806502342224,0.4973933100700378,1.9556199810162185,-9.564901683297752,-0.9265900178153068,50,walking
1783066735074612700,2.2913083,0.0053327393300831,1.7647557561159133,-0.7933779906123876,1.1031200885772705,-0.7679720520973206,0.3986250162124634,1.853914633515477,-9.60127706501484,-0.7408566529974341,50,walking
1783066735094537000,2.3112326,-0.3462415413558483,2.0450766723185776,-0.4928109531840309,0.89129638671875,-0.6370038390159607,0.2370095700025558,1.7836603630721568,-9.626016369473934,-0.5733567909412086,50,walking
1783066735114462000,2.3311576,-0.1372906017534434,1.827907501077652,-0.5203817182093858,0.6001244783401489,-0.4934270977973938,0.1335631757974624,1.7438000618487597,-9.639887658438086,-0.4495691562961786,50,walking
1783066735134386000,2.3510816,0.0540523465745151,1.3858610684365034,-0.6481424212038517,0.2851317822933197,-0.3318035304546356,0.1196193099021911,1.7160110144302247,-9.647951722428202,-0.3777729171078652,50,walking
1783066735154311000,2.3710066,-0.1145304884128272,1.2150526663541794,-1.1829910561829804,-0.1017406061291694,-0.2970226407051086,0.0348517559468746,1.6969481481723487,-9.651620766329764,-0.3700976332396268,50,walking
1783066735174235000,2.3909306,-0.3404268637277186,1.1503005004584788,-1.642374992594123,-0.3977473080158233,-0.3188941180706024,-0.1088325530290603,1.701829782734066,-9.648220017975568,-0.4313031395044177,50,walking
1783066735194159900,2.4108555,-0.4012158250808715,1.1094465120226145,-2.0672142698466778,-0.4847364425659179,-0.3427768051624298,-0.2710720002651214,1.734636658314615,-9.637443772417306,-0.5301952562153339,50,walking
1783066735214083800,2.4307794,-0.3085360800787806,0.5579442638844251,-2.435888007763028,-0.4032593667507171,-0.3457046747207641,-0.4093745946884155,1.7980287879034875,-9.619847909972073,-0.6292885945867747,50,walking
1783066735234007800,2.4507034,0.2090621448919176,-0.2970195375472307,-2.982634585806727,-0.201897531747818,-0.4693607985973358,-0.3717036247253418,1.8698529380120337,-9.601059038349986,-0.702640538784489,50,walking
1783066735253933000,2.4706286,0.4591005894251167,-0.596276040366292,-2.874595651370287,0.0231697801500558,-0.6412742137908936,-0.1866511553525924,1.9159473113194108,-9.589106734749674,-0.7406486362699419,50,walking
1783066735273856800,2.4905524,0.0496720856636762,0.0315665201306343,-2.170290613439679,0.2101849168539047,-0.7606836557388306,-0.0340945795178413,1.923898416454345,-9.587275427669288,-0.7437520821779966,50,walking
1783066735293782000,2.5104776,-0.6511807659864425,0.855771026161313,-1.3617758439719676,0.3053843379020691,-0.803665280342102,-0.0197621453553438,1.916366705775261,-9.590417232826352,-0.7223767011940478,50,walking
1783066735313706000,2.5304016,-0.9872419818505644,1.317796416991949,-0.5525619132589549,0.2497968226671219,-0.8196993470191956,-0.0189010985195636,1.908560562068969,-9.593802783611416,-0.6976601200234145,50,walking
1783066735333631000,2.5503266,-1.2132505853682756,1.6341408327341078,-0.0057458501756191,0.0852099657058715,-0.8268769383430481,-0.0156949609518051,1.89993754902184,-9.595609540772438,-0.696354078926146,50,walking
1783066735353555000,2.5702506,-1.2858474734149872,1.781561929488182,0.1788240238208323,-0.0705158114433288,-0.8370717167854309,-0.0305620022118091,1.8923283891923723,-9.594889409804344,-0.7263482351735234,50,walking
1783066735373479000,2.5901746,-1.3666133471310138,1.8269792803168297,0.153249364516139,-0.2044944167137146,-0.8545293807983398,-0.0880229622125625,1.8901953226864336,-9.590627076184749,-0.7857672233477234,50,walking
1783066735393404000,2.6100996,-1.3773203268453478,1.5068009855002165,0.0625864392291754,-0.2114134430885315,-0.8256282210350037,-0.1207028701901435,1.8970118708334864,-9.583042904666064,-0.8585089997578412,50,walking
1783066735413328000,2.6300236,-1.3303424487017097,1.2485855181217194,-0.0417541521459817,-0.1625880599021911,-0.7918990850448608,-0.1435392349958419,1.9076441778764128,-9.574721066522596,-0.925204189480096,50,walking
1783066735433253000,2.6499486,-1.326063163947314,1.0838374389916658,-0.0620983634512871,-0.0469800755381584,-0.750803530216217,-0.1859744489192962,1.9243141576483844,-9.5663442833215,-0.9759376938302068,50,walking
1783066735453177000,2.6698726,-1.306573742840439,0.6979957086533307,-0.0553599951069802,0.0734658688306808,-0.7057298421859741,-0.2069016844034195,1.9482194955013687,-9.558935468369722,-1.000782066098973,50,walking
1783066735473101800,2.6897974,-1.0583578375592828,0.0376817881405353,-0.0717020580988377,0.0916927307844162,-0.6939380168914795,-0.1552694141864776,1.9696506983257829,-9.55358533951342,-1.0098786880072206,50,walking
1783066735493026000,2.7097216,-0.87783965010643,-0.3614385259658098,0.0210398654192686,0.0514291636645793,-0.6874098181724548,-0.0465071238577365,1.9746831395350397,-9.551005259892344,-1.0243602178242055,50,walking
1783066735512950800,2.7296464,-1.1355544744864106,-0.2902642180681228,-0.0218944364219903,0.0623892471194267,-0.6313851475715637,0.0037267990410327,1.962751148070395,-9.55169967189729,-1.0406822609413415,50,walking
1783066735532874800,2.7495704,-1.3681513703532515,-0.2946329346716403,-0.2585451377242803,0.0938081741333007,-0.6088557243347168,-0.0370464287698268,1.9518876626200972,-9.553017768758536,-1.0489878786023703,50,walking
1783066735552799000,2.7694946,-1.2027096098706125,-0.6116694243311882,-0.4322708885580301,0.1109748780727386,-0.6179277300834656,-0.1332053989171981,1.9549378439709544,-9.551866845157742,-1.0537800082497295,50,walking
1783066735572724000,2.7894196,-0.911395736619085,-0.9365706560164688,-0.2689059343494475,0.2029192000627517,-0.5032661557197571,-0.2231329530477523,1.9765163463115687,-9.548088495662808,-1.047755268067494,50,walking
1783066735592648000,2.8093436,-0.5358392534516752,-1.7297171759605408,-0.1605219858676195,0.2982840836048126,-0.2530968785285949,-0.2466869801282882,2.0148574751436708,-9.543829669174553,-1.0129360297512262,50,walking
1783066735612573000,2.8292686,0.1780626109942793,-2.6765993826329706,-0.6698684422563761,0.2389926463365554,-0.1839187145233154,-0.1664590239524841,2.0509391346111894,-9.540861467018724,-0.9674662180829792,50,walking
1783066735632497000,2.8491926,0.6942668973885476,-2.826804557147622,-0.7871171766519546,0.106375403702259,-0.1854762732982635,-0.0091839330270886,2.0660981252983213,-9.540144258660078,-0.9419452617269009,50,walking
1783066735652422000,2.8691176,0.5641881267100572,-2.191160382989049,-0.4474078135438263,-0.0283732116222381,-0.150806114077568,0.1906942129135131,2.04384581534937,-9.545067686536909,-0.9406304528012872,50,walking
1783066735672345900,2.8890415,-0.165931443695724,-0.915542481034994,-0.0938951121412217,-0.1894385665655136,-0.0489279478788375,0.1904708296060562,2.002583099982142,-9.551307457709312,-0.9656884678207336,50,walking
1783066735692270000,2.9089656,-0.8000833334699272,-0.0423807596117258,0.2551385441511869,-0.3384844362735748,0.1451855301856994,0.0541270188987255,1.9798262015119197,-9.551035655030608,-1.0141003242902458,50,walking
1783066735712194800,2.9288904,-0.839582692426443,-0.4154366581350565,-0.0515222435750067,-0.5829834938049316,0.235790804028511,-0.0838169902563095,1.9870042764477431,-9.541001752272248,-1.0915592654153703,50,walking
1783066735732118800,2.9488144,-0.4549316331773996,-1.0717372513532637,-0.7079169448174536,-0.8219041228294373,0.1324241310358047,-0.1384745240211486,2.0146046694263813,-9.519763149410483,-1.2189666249275206,50,walking
1783066735752044000,2.9687396,0.2542657068394124,-1.840791532570124,-1.1078155498199165,-0.9093621373176576,-0.0150866294279694,0.0024150079116225,2.032346370083093,-9.493508179691434,-1.3832016399689018,50,walking
1783066735771968000,2.9886636,0.9349130980677902,-2.069582752543688,-1.4589419406078754,-0.830734133720398,-0.2512592673301697,0.3227719962596893,1.999180890323221,-9.47391032977402,-1.5552083119250832,50,walking
1783066735791893000,3.0085886,0.785201113897562,-0.9169541013985872,-1.353922207862139,-0.6357091665267944,-0.5042259693145752,0.5762487649917603,1.8986988010071215,-9.467895599529148,-1.7100572205923497,50,walking
1783066735811817000,3.0285126,0.2586420222274959,0.3965396499633788,-0.7058427688919008,-0.3581770956516266,-0.6080648303031921,0.6659415364265442,1.7593705559462307,-9.473556109508872,-1.823930268009752,50,walking
1783066735831742000,3.0484376,0.1300415074080228,1.5340502269536256,-0.3933076823048293,-0.0900251194834709,-0.7299224734306335,0.6429082751274109,1.6100938944533467,-9.487437919867038,-1.8885161374278363,50,walking
1783066735851666000,3.0683616,0.1319564011186361,2.333244210368395,-0.0215483994632959,0.1966181546449661,-0.8096733689308167,0.5515474677085876,1.46662211984694,-9.507918397837877,-1.9023425643369556,50,walking
1783066735871590000,3.0882856,0.1279398589536547,2.678112709805369,0.5735907458275556,0.4479981958866119,-0.7687203884124756,0.3993604183197021,1.345691262872517,-9.53375894153714,-1.8619703680686648,50,walking
1783066735891515100,3.1082107,0.177212716166675,2.581407070288062,1.02241470977962,0.6055611968040466,-0.6564517021179199,0.2121611982583999,1.261103931172192,-9.56110346005857,-1.7791320719927548,50,walking
1783066735911438800,3.1281344,0.2048983032107353,2.202950774025917,1.2877245193332434,0.6455880403518677,-0.5008239150047302,0.0038591371849179,1.21935248243995,-9.585770868325232,-1.672293160995841,50,walking
1783066735931363800,3.1480594,0.3253240602072328,1.6498668096542357,1.4347709375560282,0.5462531447410583,-0.3151947855949402,-0.1887447088956833,1.2244726749978958,-9.603106034007668,-1.5657036947153509,50,walking
1783066735951287600,3.1679832,0.613180413416028,0.8532716105610132,1.4738326357476412,0.2359903305768966,-0.164692223072052,-0.3161351680755615,1.2661183983333408,-9.609167526003718,-1.4937344370476902,50,walking
1783066735971212500,3.1879081,0.90732527230978,-0.0464630604892969,1.0996670224167406,-0.1126339510083198,-0.1106211468577385,-0.3884872794151306,1.3308040748640897,-9.60157049500346,-1.4863300060100852,50,walking
1783066735991136500,3.2078321,1.141752013952285,-0.7855874828666448,0.5640729758977889,-0.3210190236568451,-0.0908824577927589,-0.3786022067070007,1.4029852217167615,-9.583849544873834,-1.5335750106573105,50,walking
1783066736011060700,3.2277563,1.302272830776125,-0.9003706308662891,0.1288426530122756,-0.3255832493305206,-0.1290434896945953,-0.2552360892295837,1.4618329858742654,-9.56408627526164,-1.600528339859098,50,walking
1783066736030985500,3.2476811,0.9662461017034948,-0.2920569467037916,-0.0276845641307532,-0.2170362025499344,-0.2184051275253296,-0.1139570251107215,1.4897558888055382,-9.550057165387273,-1.6575335448898374,50,walking
1783066736050909400,3.267605,-0.0587368511289358,0.7641559877812862,0.2134276466250419,-0.1516346782445907,-0.2719099819660187,-0.1756933331489563,1.505582988012582,-9.54025181068778,-1.6991795604862272,50,walking
1783066736070834700,3.2875303,-0.6729013071462512,1.582660820865631,0.535530772024393,-0.0947640016674995,-0.2919903397560119,-0.3124684989452362,1.5422957849904897,-9.528416995987296,-1.732332180764526,50,walking
1783066736090758700,3.3074543,-0.8197296987041831,2.089031549379229,0.6987070717930793,0.0334315672516822,-0.3034102916717529,-0.4319097101688385,1.6029327706523238,-9.515545823976398,-1.7479660954870282,50,walking
1783066736110683600,3.3273792,-1.0752772620476785,2.1585832245111463,0.7126837208278477,0.1888493746519088,-0.3228236734867096,-0.5578157305717468,1.6854994101800025,-9.503095507726073,-1.7380004356592893,50,walking
1783066736130607600,3.3473032,-1.172708877751976,1.6988070739120245,0.798010764979571,0.2981560230255127,-0.3036364614963531,-0.6458882093429565,1.78951508044973,-9.490887183538078,-1.7003258079119026,50,walking
1783066736150531600,3.3672272,-1.1914791908040645,1.1403981151252984,0.7141038167588413,0.2950598001480102,-0.3562882542610168,-0.7022222876548767,1.90584940341413,-9.47626127681434,-1.6548757238574323,50,walking
1783066736170456600,3.3871522,-1.1513676912985742,0.499912930676341,0.6893747414328157,0.2559398114681244,-0.3828779757022857,-0.7165184617042542,2.028842453615367,-9.457069085088373,-1.6180258564963936,50,walking
1783066736190380500,3.4070761,-1.0947001937896013,-0.0281681098639965,0.6614509617187082,0.266881376504898,-0.3799282014369964,-0.6692667007446289,2.1474004439786074,-9.4364091588974,-1.585313527331501,50,walking
1783066736210305800,3.4270014,-1.2452091735564172,-0.3392459833800793,0.5295297780439258,0.3277075886726379,-0.3918605148792267,-0.6189558506011963,2.256309877639264,-9.417423887920378,-1.546466933195293,50,walking
1783066736230229500,3.4469251,-1.297885263341665,-0.7882412122458219,0.4597350879363715,0.3675114214420318,-0.4246995747089386,-0.5521408915519714,2.354177254412323,-9.401182947215435,-1.4986691169708966,50,walking
1783066736250154500,3.4668501,-1.250976066520065,-1.1651198839277028,0.3647640171267092,0.3679616749286651,-0.5022721290588379,-0.4800495207309723,2.437153059262782,-9.38732276416719,-1.4521804836489258,50,walking
1783066736270078700,3.4867743,-1.3135735385999083,-1.472485458922386,0.4360948307603597,0.3743249475955963,-0.5153242349624634,-0.3907283246517181,2.503940676508844,-9.376539504346251,-1.407542446629703,50,walking
1783066736290003500,3.5066991,-1.2281401114642618,-1.8527724777430292,0.4144524694032966,0.3718340396881103,-0.4879098236560821,-0.2971394956111908,2.55452753892988,-9.369448669302464,-1.363154584979266,50,walking
1783066736309927700,3.5266233,-0.9456243155658244,-2.227583695501089,0.3468792547374963,0.3923973143100738,-0.437127411365509,-0.1628347486257553,2.585652160511911,-9.36768458223939,-1.3157828852124511,50,walking
1783066736329851600,3.5465472,-0.76674132809937,-2.43864519751668,0.1014852750092744,0.3680446743965149,-0.4397860765457153,-0.0237686857581138,2.5918711811572317,-9.37284941765666,-1.265815177603066,50,walking
1783066736349776400,3.566472,-0.4666507125437259,-2.5249919401049614,-0.1236826399005949,0.3125508427619934,-0.4874104857444763,0.1268696933984756,2.570854988874495,-9.383917924159764,-1.2260486921429634,50,walking
1783066736369700600,3.5863962,-0.4093953321442007,-2.061029443731904,-0.3316226488947868,0.2487563788890838,-0.5466992855072021,0.2465248852968216,2.5222782972320914,-9.400462816247344,-1.1999182255864145,50,walking
1783066736389625600,3.6063212,-0.5227297426402568,-1.436916132891178,-0.7209989100348204,0.206577330827713,-0.6269835233688354,0.2917132675647735,2.4567957712352277,-9.419590126043556,-1.1856832178764043,50,walking
1783066736409549800,3.6262454,-0.5421510669469833,-0.8655126679748296,-1.050211063721776,0.2056765556335449,-0.7338576912879944,0.2333845794200897,2.390474748587608,-9.437185988488793,-1.1813345942128448,50,walking
1783066736429474600,3.6461702,-0.3033819121859967,-0.5156856693476438,-1.0129852026551962,0.3073886036872864,-0.7862657904624939,0.1704588532447815,2.334263470413536,-9.452572942712903,-1.1706762759458271,50,walking
1783066736449398500,3.6660941,-0.2945575313478708,-0.1882476126611232,-0.8210573671113699,0.4507477283477783,-0.7507743835449219,0.0599960424005985,2.2937159175783397,-9.466818910208344,-1.135155026840046,50,walking
1783066736469322800,3.6860184,-0.1408817581132054,-0.2997019084990024,-0.824557411121577,0.5390945672988892,-0.7099146842956543,-0.0222803279757499,2.2747138415969905,-9.47881505295038,-1.0715006661184132,50,walking
1783066736489247500,3.7059431,0.2750466290615498,-0.4328343676596879,-0.8650083717145025,0.4235198497772217,-0.7835614681243896,-0.0934529304504394,2.271187274906039,-9.486194057285784,-1.0120458759784698,50,walking
1783066736509171500,3.7258671,0.683443597818166,-0.7764128272861242,-0.6193441236775368,0.2404177188873291,-0.7764730453491211,-0.0260882098227739,2.2689061782315374,-9.489624031734468,-0.9846216432843355,50,walking
1783066736529096700,3.7457923,0.7574830858886241,-0.4430529793351888,-0.8069874137699603,0.0060648489743471,-0.8761354684829712,0.0656380355358123,2.2472401437379417,-9.493482460728288,-0.9970433179620652,50,walking
1783066736549020400,3.765716,0.2407533143155276,0.2219108128100633,-0.8804518784314393,-0.1449731737375259,-0.9054363369941713,0.0471912212669849,2.2171941111728546,-9.4943545673877,-1.0543621920518575,50,walking
1783066736568945700,3.7856413,0.2040874252192676,0.6293529650598764,-1.2125170103967189,-0.0970858186483383,-0.9354465007781982,0.035775389522314,2.18981481359899,-9.493435698977112,-1.1179393958840518,50,walking
1783066736588869600,3.8055652,0.1812266279831528,1.0066039771854878,-1.4196820894956588,-0.011662938632071,-1.0131421089172363,-0.007265546824783,2.164642232289165,-9.492702124005556,-1.1718914238892495,50,walking
1783066736608794600,3.8254902,0.0971431541517376,1.1955723053365943,-1.224764497551322,0.0679108351469039,-1.0615510940551758,-0.0559304021298885,2.1451764843188226,-9.492378883400558,-1.2096899702772497,50,walking
1783066736628718600,3.8454142,-0.0373249375268816,1.3774848697572946,-1.2330072791092097,0.1506528556346893,-1.135398268699646,-0.159661665558815,2.137937472975999,-9.490386248278618,-1.237808395780623,50,walking
1783066736648642600,3.8653382,-0.2166772960707545,1.4391051673680544,-1.0376016113869846,0.3450671732425689,-1.0608397722244265,-0.3080112338066101,2.154334334895015,-9.48646469092071,-1.2394338050253688,50,walking
1783066736668567600,3.8852632,0.0422923506759107,1.186121755424142,-0.9178729698091744,0.5302194952964783,-0.9714183807373048,-0.3884060084819793,2.1970342434585093,-9.481881454783675,-1.1989003537807612,50,walking
1783066736688491500,3.9051871,0.3177921303324401,0.7195031915843486,-0.7050824520438909,0.5443546772003174,-0.9409589767456056,-0.3795143067836761,2.248043861336261,-9.47764250203967,-1.13620796995908,50,walking
1783066736708416800,3.9251124,0.1325643038839101,0.70831076644063,-0.3207237998701632,0.3636192083358764,-0.936445951461792,-0.3488314747810364,2.295755022190511,-9.471538924467565,-1.090807789460942,50,walking
1783066736728340700,3.9450363,-0.3341429611526429,0.8861153110206127,0.0247311942178755,0.1459410637617111,-0.8832120895385742,-0.3383363783359527,2.340334168629348,-9.461247247555852,-1.0853622374061491,50,walking
1783066736748265500,3.9649611,-0.6467582733690739,1.15453185441792,0.176327896156162,0.007274548523128,-0.7816954255104065,-0.3263984322547912,2.385098608507216,-9.44700011101663,-1.1117129225846378,50,walking
1783066736768189700,3.9848853,-0.8090887699633836,1.3498609497725962,-0.0468831855975091,-0.0070520676672458,-0.7260247468948364,-0.2967296540737152,2.426521482872218,-9.431936397397518,-1.1493198188580571,50,walking
1783066736788113700,4.0048093,-0.9990715358540416,1.3552601784676312,-0.1946983962357044,0.0953433886170387,-0.6950836777687073,-0.2651224434375763,2.4629762134358284,-9.41908100747764,-1.176879660630599,50,walking
1783066736808038700,4.0247343,-1.2260466463163495,1.345712013399601,-0.065970236448571,0.2027896046638488,-0.6560783982276917,-0.2629582583904266,2.495871059560776,-9.40983153309524,-1.1815584660965948,50,walking
1783066736827962600,4.0446582,-1.4378554595679045,1.227319442731142,0.0626005408197641,0.276295006275177,-0.6421737670898438,-0.2950225174427032,2.532903736142814,-9.401572823315858,-1.1684222864739595,50,walking
1783066736847887600,4.0645832,-1.526715938542783,0.8181383378595113,0.3426917399197817,0.2666278779506683,-0.5756561160087585,-0.3035444915294647,2.5753762656912205,-9.392522670897842,-1.1481909609586,50,walking
1783066736867811600,4.0845072,-1.4172408338233828,0.2257557978004217,0.4059732487410307,0.2507801651954651,-0.4801578521728515,-0.2501408159732818,2.615688402335345,-9.384026645231248,-1.1263287463057785,50,walking
1783066736887736600,4.1044322,-1.4297873039245603,-0.004276362144947,0.2296744325488805,0.1885876804590225,-0.467910885810852,-0.2341067045927047,2.649333482305705,-9.37665465515852,-1.1089451383717357,50,walking
1783066736907660500,4.1243561,-1.366588797211647,-0.3551613453924656,0.2235311074882745,0.1623888909816742,-0.4107814431190491,-0.1908732056617736,2.680406958222389,-9.368739059728384,-1.1011556535393,50,walking
1783066736927584800,4.1442804,-1.257801090234518,-0.627805735617876,0.1666723982561379,0.1921543627977371,-0.3067335188388824,-0.1099243089556694,2.700606573425233,-9.364543946126105,-1.0873927933856844,50,walking
1783066736947509500,4.1642051,-1.0765732932075858,-0.876069717824459,0.0230376151077449,0.271337628364563,-0.1999683380126953,1.10352993942e-05,2.706127090412378,-9.366326153367757,-1.0579312096450475,50,walking
1783066736967437600,4.1841332,-1.0237629095181822,-0.846097188887,-0.1655417867910116,0.4139778017997741,-0.147465169429779,0.1155936568975448,2.690875160744786,-9.376694402647018,-1.003576811384037,50,walking
1783066736987362600,4.2040582,-1.2505842907235023,-0.8381517828404903,-0.1420394037157297,0.5107094049453735,-0.1084149107336998,0.1394381523132324,2.6627143574044108,-9.393020099025964,-0.9227817115735262,50,walking
1783066737007286500,4.2239821,-1.370454824990034,-1.062508819758892,-0.005167758026719,0.5797691941261292,-0.0213670954108238,0.1234873458743095,2.6380349664390086,-9.409130691349503,-0.8242730412222444,50,walking
1783066737027211800,4.2439074,-1.218020576249063,-1.360201142001152,0.2003004540264606,0.5986368060112,0.1038996130228042,0.1472854614257812,2.612942318497598,-9.425528283920883,-0.7087693969283253,50,walking
1783066737047135500,4.2638311,-1.014977545516193,-1.829486879223585,0.0299877630392089,0.4982937276363373,0.1425531953573227,0.154213398694992,2.586770643147826,-9.440469247943165,-0.5971144274191931,50,walking
1783066737067059500,4.2837551,-0.8477174835652113,-2.321499996560812,-0.0820382317394018,0.3168343603610992,0.1655857414007187,0.1394373923540115,2.5612176842182874,-9.452435580068826,-0.5118733810504899,50,walking
1783066737086984700,4.3036803,-0.5374161473795771,-2.9091099153906104,-0.2452582975845783,0.1297793984413147,0.1910938322544098,0.2074794769287109,2.531486562821269,-9.463075632026792,-0.4605825350785628,50,walking
1783066737106908700,4.3236043,-0.3061901014745235,-2.768599620938301,-0.5731265989145263,-0.0391557514667511,0.1535222977399826,0.2857692539691925,2.4853625250279903,-9.47609527259767,-0.4438101543780416,50,walking
1783066737126833400,4.343529,-0.723979606346041,-2.108120280730724,-0.717320586848259,-0.2050320506095886,0.1294682174921035,0.2525371015071869,2.4340381421126422,-9.488644373047352,-0.4598786611255258,50,walking
1783066737146757600,4.3634532,-0.8540345577575266,-1.922090344119072,-1.0598235261976718,-0.3783853650093078,0.085936389863491,0.1832122206687927,2.394553834594786,-9.496156648373605,-0.5094256591048091,50,walking
1783066737166682400,4.383378,-0.3562637536764145,-1.9367104056239128,-1.6453168912649154,-0.4790227711200714,-0.0634796619415283,0.1983085423707962,2.3605102568261325,-9.499943181174991,-0.5911666249306872,50,walking
1783066737186606600,4.4033022,0.2410457213908433,-2.0438737262696027,-2.277256365686655,-0.4507543444633484,-0.3041292130947113,0.3353320956230163,2.309377304829657,-9.505904135406016,-0.6891593451164663,50,walking
1783066737206530600,4.4232262,0.7560721961773932,-1.6233996584892272,-2.5006547867059705,-0.3310009241104126,-0.6128592491149902,0.5730662941932678,2.217525973475724,-9.520411384186149,-0.7840403264898806,50,walking
1783066737226455600,4.4431512,0.9361701123915612,-0.4820113632827997,-2.230774600496888,-0.1696781516075134,-0.921846568584442,0.7518112659454346,2.07663340170756,-9.545203880137205,-0.8643294495396315,50,walking
1783066737246379500,4.4630751,0.6958510978400707,0.8152063760608435,-1.8148884450286624,0.0415648780763149,-1.135459065437317,0.7914692759513855,1.909040600670874,-9.575142506805062,-0.9179433316316457,50,walking
1783066737266304500,4.4830001,0.8120707083836197,1.826771190524101,-1.5055262893892825,0.3495395481586456,-1.247039794921875,0.7584309577941895,1.73850253996253,-9.606730654245617,-0.9266834682524204,50,walking
1783066737286228700,4.5029243,1.0912674428619444,2.518609545591473,-1.155095333519578,0.8057198524475098,-1.2359124422073364,0.7118069529533386,1.574227046780288,-9.641359484556316,-0.8581286221381277,50,walking
1783066737306153500,4.5228491,1.0952277247950435,2.9962708969712257,-0.6005803864967078,1.149076223373413,-1.1391209363937378,0.6108367443084717,1.427063431918621,-9.676841132304071,-0.7018650243673473,50,walking
1783066737326077400,4.542773,0.9815003694586456,2.998569821563363,-0.2124410467404872,1.2096924781799316,-1.0326777696609497,0.4740397930145263,1.308852793688327,-9.706076579138635,-0.4993849247468635,50,walking
1783066737346001700,4.5626973,0.8148842314343899,2.846712203666568,0.0138765679274685,1.0085289478302002,-0.9209376573562622,0.2952120006084442,1.2255739142380655,-9.724953713566064,-0.3059685859446414,50,walking
1783066737365926400,4.582622,0.6358557710826397,2.369614915910363,0.0602671477024443,0.6659398078918457,-0.8104737401008606,0.0871022641658783,1.184934445335716,-9.7334304500103,-0.1632175268282182,50,walking
1783066737385850600,4.6025462,0.5520977298133075,1.6638976730942725,0.0157844291090965,0.2160310894250869,-0.7103825807571411,-0.0533991940319538,1.1804065926477312,-9.73490110708475,-0.0934468112512957,50,walking
1783066737405775600,4.6224712,0.660830491732806,1.0411007055491208,-0.4997966108202934,-0.2875105440616607,-0.760304868221283,-0.1428147107362747,1.1991651421967893,-9.732353176167608,-0.1171590742175932,50,walking
1783066737425699600,4.6423952,0.5556152364149689,0.7727671642601489,-0.997996307837963,-0.6262213587760925,-0.8425030708312988,-0.1906503736972808,1.2289628260239958,-9.726631291389465,-0.2294810106023214,50,walking
1783066737445624600,4.6623202,0.464756715490669,0.7244710431247949,-1.6924264329642056,-0.603740394115448,-0.9373129606246948,-0.1957048624753952,1.2620613780274987,-9.717841835734248,-0.3757150347299873,50,walking
1783066737465548500,4.6822441,0.267568694396317,0.9866910699695348,-2.044234960797429,-0.3900094628334045,-1.076403021812439,-0.2177245467901229,1.2922535410650071,-9.708317636063695,-0.4990061180297285,50,walking
1783066737485473500,4.7021691,-0.2525054191686213,1.389845169636607,-2.062183874464035,-0.146616905927658,-1.255474328994751,-0.3067030310630798,1.329147978220135,-9.698772393605111,-0.5810149044789373,50,walking
1783066737505397500,4.7220931,-0.5254353483371437,1.1309709460884332,-1.7609493495702742,0.0299626439809799,-1.3942500352859497,-0.4041132628917694,1.3827091802768408,-9.68844622990191,-0.6265185453515499,50,walking
1783066737525321500,4.7420171,-0.4412802705742418,0.8129279097348451,-1.5490560729056595,0.132456749677658,-1.5585862398147583,-0.4511049687862396,1.4465456926323472,-9.67745955646336,-0.6516638733282685,50,walking
1783066737545246700,4.7619423,-0.4726692421808838,0.6392991895347834,-1.253795361724496,0.1553813964128494,-1.733983874320984,-0.5049665570259094,1.516391528405249,-9.665439448323845,-0.6709930623721331,50,walking
1783066737565170400,4.781866,-0.5579718825437128,0.4026590096265077,-0.9697943687696008,0.1154856383800506,-1.87869131565094,-0.557304859161377,1.5940627971068024,-9.650862641438842,-0.7001609238632023,50,walking
1783066737585095700,4.8017913,-0.546698647248745,0.1537958924829959,-0.7934867847491055,0.0672548860311508,-1.9799880981445312,-0.5805020928382874,1.6763129180312155,-9.633489481833577,-0.7458353912580757,50,walking
1783066737605019600,4.8217152,-0.5268694727934896,0.1466162101119756,-0.8775579836208373,0.0312058087438344,-2.127652406692505,-0.5792356133460999,1.755394345791638,-9.614487844243644,-0.8066131005648524,50,walking
1783066737624944400,4.84164,-0.6845249633140862,0.3175876938015222,-1.0591115785360337,0.0479575023055076,-2.310222864151001,-0.6278647184371948,1.8329935721702872,-9.593473113265633,-0.8807899512793869,50,walking
1783066737644868600,4.8615642,-0.8297662318110466,0.3123310884475708,-1.044472227808833,0.1934411525726318,-2.4028842449188232,-0.6920088529586792,1.916135235106945,-9.570858545875549,-0.9473536235764622,50,walking
1783066737664792600,4.8814882,-0.682926880467683,0.0947182650923728,-1.1944757422715424,0.408090204000473,-2.506204843521118,-0.7383504509925842,2.005872935307771,-9.548522795426845,-0.9861932034499944,50,walking
1783066737684717600,4.9014132,-0.3635940965645015,-0.2723924612909555,-1.2663859632283447,0.6121689677238464,-2.6340227127075195,-0.7574312686920166,2.097295373725146,-9.528122396954894,-0.9932913450174032,50,walking
1783066737704641500,4.9213371,-0.2759394862480461,-0.4186889379292726,-1.1268600036382674,0.7786585688591003,-2.7656941413879395,-0.8061588406562805,2.191300814373046,-9.508718608304855,-0.9761468796014784,50,walking
1783066737724566500,4.9412621,-0.0580807253077626,-0.8544780637413263,-0.8296025656819344,0.908182680606842,-2.8079628944396973,-0.850109875202179,2.296360002346337,-9.487425644907354,-0.9412084718849508,50,walking
1783066737744490500,4.9611861,0.4200922288559377,-1.626845999550819,-0.7134849542081355,0.9731522798538208,-2.8060946464538574,-0.7691797018051147,2.399379501185566,-9.466537755179404,-0.8933236349642276,50,walking
1783066737764415500,4.9811111,0.8354697041496634,-2.105043942025304,-0.7497334946751594,0.9411353468894958,-2.781532287597656,-0.5794755220413208,2.478404668714106,-9.450271095511315,-0.8486950233604759,50,walking
1783066737784339700,5.0010353,1.0436205794155595,-1.8015537471592424,-1.0540466232966632,0.9554086327552797,-2.774549722671509,-0.3838326930999756,2.522991413937509,-9.441915355098248,-0.8093903832584619,50,walking
1783066737804263700,5.0209593,0.8894482548356055,-0.9716022219091652,-1.1567945386528968,0.9272175431251526,-2.78493881225586,-0.2608829438686371,2.5381506968855856,-9.441080073317885,-0.77083714604564,50,walking
1783066737824188400,5.040884,0.8520791859060526,-0.2766144629001617,-1.1839466764073818,0.7788512110710144,-2.8100249767303467,-0.1856159716844558,2.537661452063918,-9.442796229586005,-0.751167107674852,50,walking
1783066737844112600,5.0608082,1.0316975019097328,0.100749361950159,-1.334801327806711,0.6667895317077637,-2.846585750579834,-0.1596648097038269,2.5268340608403084,-9.445017997288703,-0.7596759928230196,50,walking
1783066737864037600,5.0807332,1.050065517771244,0.4978022221326827,-1.4611252759963274,0.7467257380485535,-2.7926156520843506,-0.220992237329483,2.5177441609337925,-9.446431371217964,-0.7722158870529383,50,walking
1783066737883961300,5.1006569,1.1934309093937276,0.4529179552674293,-1.7369745997428894,0.9408448934555054,-2.721175193786621,-0.3053814172744751,2.5262603526055813,-9.445837496978044,-0.7513491862434893,50,walking
1783066737903885600,5.1205812,1.5625158584594725,-0.0460334369003772,-1.9137556464940308,1.0749012231826782,-2.687563896179199,-0.3159938752651214,2.546981361334025,-9.444432306355235,-0.6971217022977769,50,walking
1783066737923810600,5.1405062,1.8747551769703623,-0.4010176721602678,-1.8963281263530252,1.1076399087905884,-2.664035558700561,-0.2633697986602783,2.567686003449559,-9.443789916798472,-0.6262625978291034,50,walking
1783066737943734500,5.1604301,2.1144889389798043,-0.5212210916429758,-1.529661052083969,1.0063048601150513,-2.630732774734497,-0.1170309484004974,2.5729087065339087,-9.446438385480642,-0.5615243143282831,50,walking
1783066737963655700,5.1803513,1.8491262301951643,-0.0537953030735254,-1.19281343508251,0.8158228397369385,-2.572267532348633,0.024731907993555,2.55321207241714,-9.454029571262,-0.5223328888097778,50,walking
1783066737983580000,5.2002756,1.3721210046365857,0.937691184478998,-1.1400638416696338,0.6536652445793152,-2.519871473312378,0.1041461676359176,2.514267132472992,-9.46494084137678,-0.5135814270773902,50,walking
1783066738003504600,5.2202002,0.992979648719728,1.7402525985002515,-1.0985375799953936,0.5798434615135193,-2.4152591228485107,0.1443877667188644,2.464696461357176,-9.477564176106451,-0.5209900228334591,50,walking
1783066738023428900,5.2401245,0.6840064923979342,2.4469296262592075,-1.2258639832258225,0.5871379971504211,-2.308491468429565,0.12345951795578,2.413641835293918,-9.490372804275154,-0.526841160014458,50,walking
1783066738043352800,5.2600484,0.422837874302268,2.855321042057872,-1.3970996708095074,0.7010392546653748,-2.1715054512023926,0.0349048860371112,2.374787057851255,-9.500877831676602,-0.5139224225347861,50,walking
1783066738063277800,5.2799734,0.4852158584125339,2.72568753092885,-1.7659966960877178,0.9780938029289246,-2.0182106494903564,-0.0399065613746643,2.356252453251183,-9.508460249629616,-0.4556726608030498,50,walking
1783066738083201800,5.2998974,0.7515738618448377,2.1790251240372656,-1.8288094183534385,1.2262701988220217,-1.903980493545532,-0.0357610583305358,2.3486180128499865,-9.515307339045403,-0.3365961264584213,50,walking
1783066738103126800,5.3198224,0.6458306371301412,1.5401029511213302,-1.7337269961237909,1.2880514860153198,-1.7927764654159546,-0.0224235150963068,2.343778902255744,-9.52072468791902,-0.181335166391544,50,walking
1783066738123050800,5.3397464,0.4377487354472279,0.9865127907931804,-1.6558704339832069,1.155370593070984,-1.7030197381973269,-0.0589992068707942,2.347904603883624,-9.521392211917044,-0.0283011570925591,50,walking
1783066738142975700,5.3596713,0.4461803175754845,0.3536854276210069,-1.6423884365975856,0.8943589329719543,-1.6467071771621704,-0.076773501932621,2.362816780202836,-9.517342644265293,0.0876543089223559,50,walking
1783066738162899700,5.3795953,0.3927928646504878,-0.2453326049298048,-1.6295137574553489,0.5888740420341492,-1.593547821044922,-0.0725733414292335,2.3817877303935586,-9.511787348225711,0.1528895090946462,50,walking
1783066738182824000,5.3995196,0.1180925648085772,-0.4679956974118948,-1.6885025375187397,0.2703047394752502,-1.562061071395874,-0.0974158868193626,2.4022538875781,-9.50654886305034,0.158458678395953,50,walking
1783066738202748700,5.4194443,-0.1060942301094532,-0.6145446875065564,-2.003410198456049,0.0329578705132007,-1.552325963973999,-0.1605668365955352,2.4316119378790257,-9.499759641301631,0.1104943921640049,50,walking
1783066738222672600,5.4393682,0.0718991150408983,-0.8939087413758039,-2.367423543345928,-0.0435971841216087,-1.5887058973312378,-0.1487879008054733,2.465804422599077,-9.49153834092319,0.029635723314702,50,walking
1783066738242598000,5.4592936,0.081135145419836,-0.8939239389449357,-2.471145783627033,0.0758741348981857,-1.591424584388733,-0.0844025462865829,2.486795480440557,-9.485987721058724,-0.0477040415602968,50,walking
1783066738262521900,5.4792175,-0.0790834735870361,-0.591376577886939,-2.522629887148738,0.2457211166620254,-1.6339002847671509,-0.058308333158493,2.497376787948608,-9.48282545763552,-0.0975245546847581,50,walking
1783066738282446800,5.4991424,-0.1346338036343455,-0.4936620535880326,-2.1619155838042494,0.4188794195652008,-1.6260567903518677,-0.0092977005988359,2.5011525070950387,-9.481629525849222,-0.1154189434188418,50,walking
1783066738302370800,5.5190664,-0.2089817731320858,-0.3995043449878692,-1.8610586600512264,0.4794914126396179,-1.672694206237793,0.0558112636208534,2.492750881713629,-9.48391091478467,-0.1096685905980411,50,walking
1783066738322294800,5.5389904,-0.3805576524555683,-0.2141191360205411,-1.587522873944044,0.3633966445922851,-1.796331763267517,0.0723988711833953,2.475483520570397,-9.488380753675102,-0.1138568817338906,50,walking
1783066738342219800,5.5589154,-0.6291831614509225,0.0346241541355848,-1.056290675896406,0.2028673440217971,-1.7895551919937134,0.0446806587278842,2.459550330640376,-9.49202057148218,-0.1502371679549571,50,walking
1783066738362143700,5.5788393,-0.6159788119629025,-0.1415238554090261,-0.5072878433585166,0.1373965293169021,-1.5374127626419067,0.1085346490144729,2.4409591735474763,-9.495887183782456,-0.2006472581701353,50,walking
1783066738382069000,5.5987646,-0.3451533077277243,-0.2029004073917865,-1.0772563070356844,0.0305026713758707,-1.5025545358657837,0.1939024180173874,2.4041664432011545,-9.50394131090045,-0.2558651231263764,50,walking
1783066738401992700,5.6186883,-0.681318422357738,0.0707873544067144,-1.3630933563113212,-0.0574941076338291,-1.5205748081207275,0.133417934179306,2.36249660833776,-9.512022326025368,-0.332300621221587,50,walking
1783066738421916700,5.6386123,-0.7071592583179473,-0.0074351184368133,-1.5598597909927367,-0.0640958994626998,-1.480647325515747,0.0566223785281181,2.3340188480027018,-9.5158006755203,-0.4150575591569766,50,walking
1783066738441842000,5.6585376,-0.029867899519205,-0.6247299814343452,-1.9312047939449548,0.0327328331768512,-1.441317439079285,0.0951916947960853,2.308100270631164,-9.518754264628887,-0.4861904755983501,50,walking
1783066738461766000,5.6784616,0.4156153757028281,-0.870403947147727,-2.4348691861093044,0.1831479668617248,-1.53484308719635,0.1373962163925171,2.270080336577445,-9.52536871433258,-0.533341774080135,50,walking
1783066738481691000,5.6983866,0.6050409461021423,-1.1521195325791835,-2.445329789847136,0.3052636086940765,-1.5820239782333374,0.1574653536081314,2.2262525930278003,-9.534400746572016,-0.5562509039700031,50,walking
1783066738501614800,5.7183104,1.0689189790621398,-1.2381968105763197,-2.275351408848166,0.377998948097229,-1.6218605041503906,0.2485272139310836,2.1711839090175924,-9.546783842805027,-0.5614784293599426,50,walking
1783066738521539800,5.7382354,1.4172081005975603,-1.094818267211318,-2.031006061390042,0.447486937046051,-1.6154720783233645,0.4022837281227112,2.091045081158727,-9.565213817986846,-0.5518883613789454,50,walking
1783066738541463800,5.7581594,1.3246049279630183,-0.2728869668096303,-1.651943615928292,0.5153471231460571,-1.576535940170288,0.4790520370006561,1.987922852597385,-9.588679449248314,-0.5251341734334826,50,walking
1783066738561387800,5.7780834,1.1882938387662172,0.4751274489879608,-1.3119967908024788,0.5020107626914978,-1.5492500066757202,0.482688307762146,1.8794265297822648,-9.612598669496178,-0.4858991279689594,50,walking
1783066738581312800,5.7980084,1.1826540793135762,0.9057599226891994,-0.8847247334450483,0.3612194657325744,-1.5233278274536133,0.4521119296550751,1.7749331589981912,-9.63382090574503,-0.4576741368185728,50,walking
1783066738601236700,5.8179323,1.2216716461025177,0.940621392711997,-0.6190063430905342,0.1862623542547226,-1.4397790431976318,0.3980328738689422,1.6808488078951835,-9.650727032360434,-0.4567381346100941,50,walking
1783066738621161700,5.8378573,1.4938229921139776,0.8352543078333139,-0.4975339265853166,0.056426852941513,-1.2972640991210938,0.3919646739959717,1.591404829943925,-9.664770755282044,-0.4795995163680985,50,walking
1783066738641086000,5.8577816,1.5076536568067966,0.9054051179021596,-0.4383054560145363,0.0571738518774509,-1.1122488975524902,0.3676750361919403,1.5051495650313793,-9.677160865777733,-0.5074041266819462,50,walking
1783066738661009700,5.8777053,1.3053488772206008,1.0577151557415725,-0.4920224696874618,0.0773312747478485,-0.9603614211082458,0.279837816953659,1.432271083564311,-9.687315180045363,-0.5243163542445749,50,walking
1783066738680935000,5.8976306,1.173100799679011,0.9055681995093822,-0.3056370707016438,0.0568880960345268,-0.8005445003509521,0.1899553835391998,1.3774721564061938,-9.694681324899197,-0.5348770938886329,50,walking
1783066738700859000,5.9175546,1.2996402903154491,0.6316659181773662,-0.1600801603842526,-0.0026925343554466,-0.6861538887023926,0.1412854194641113,1.3389197229109704,-9.699256962251663,-0.5496507750526071,50,walking
1783066738720783600,5.9374792,1.507505772768706,0.2234586267739534,-0.0350473114510998,-0.0815528407692909,-0.6211230158805847,0.1726353764533996,1.3020897292941809,-9.702850602829455,-0.5741274465201422,50,walking
1783066738740707800,5.9574034,1.392661396101117,0.2098474500507116,0.1490180105566978,-0.1983344554901123,-0.6273745894432068,0.2036583572626114,1.2581686083726584,-9.705999422249198,-0.6172342919167131,50,walking
1783066738760632800,5.9773284,1.0087775218322872,0.5119780470013618,0.574656256167218,-0.3351013958454132,-0.6049918532371521,0.1892369389533996,1.2110966222047803,-9.707508657768368,-0.6840415637113153,50,walking
1783066738780556800,5.9972524,0.5913314966361969,0.8893284278482199,0.9290888488937168,-0.4164326786994934,-0.5268382430076599,0.1201027706265449,1.1725966495491564,-9.705675597122312,-0.7715201598737388,50,walking
1783066738800480800,6.0171764,0.4744255843289196,1.1227309410095214,0.7275427056550979,-0.3687325119972229,-0.5444048047065735,0.0286925341933965,1.149292346329242,-9.700856214141846,-0.8619174930270761,50,walking
1783066738820405800,6.0371014,0.3707824006333947,1.0985171217292546,0.7348999365501105,-0.2153177559375763,-0.6132716536521912,-0.0463821627199649,1.140707400270179,-9.695348264375328,-0.9324216465782372,50,walking
1783066738840330000,6.0570256,0.1680165063414722,0.8532061441093682,0.958654915922135,-0.0337043702602386,-0.6310517191886902,-0.1331137269735336,1.1465498426880687,-9.690953828808665,-0.9701774498030544,50,walking
1783066738860254700,6.0769503,0.1135304445248097,0.3693360012173652,1.2072978144437074,0.0804984867572784,-0.589658796787262,-0.1696104109287262,1.164524548383057,-9.68801719083488,-0.9780530785489828,50,walking
1783066738880178700,6.0968743,0.1548630833230912,0.0339899478852748,1.138755608615279,0.0699222162365913,-0.606288492679596,-0.2000960707664489,1.1888826715048402,-9.685315530660748,-0.9755008367829024,50,walking
1783066738900103000,6.1167986,0.1601543946642428,-0.1797124240279197,1.1251531997203823,0.008506934158504,-0.6439651846885681,-0.2049415856599807,1.2160626471143214,-9.681106388533117,-0.9837458833631127,50,walking
1783066738920027600,6.1367232,0.0873513895861804,-0.0407072734415531,1.2717881145328285,0.0407394543290138,-0.5617969036102295,-0.2168826460838318,1.244423137745261,-9.676309801906347,-0.9954071681275964,50,walking
1783066738939951900,6.1566475,0.1032031848430633,0.0004465747237205,1.1583050893463194,0.1778189986944198,-0.4936582744121551,-0.2122476994991302,1.2752584209918976,-9.6730195281893,-0.9883166253447532,50,walking
1783066738959876900,6.1765725,-0.2156134662315249,0.2080664118528365,1.3344412623226642,0.2881954908370971,-0.4149650037288666,-0.2347699701786041,1.3084170326195657,-9.672046299242972,-0.9539129090268164,50,walking
1783066738979800600,6.1964962,-0.6758440825998783,0.2640267840057611,1.5277157632350922,0.2610009312629699,-0.3844479024410248,-0.3382487297058105,1.3554980788767337,-9.669947281137109,-0.9083653559472412,50,walking
1783066738999725600,6.2164212,-1.1255774164818226,0.0545323851764202,1.9801713616877796,0.048911802470684,-0.3506385385990143,-0.4529094099998474,1.4251520453393458,-9.6618656814903,-0.8875178712949157,50,walking
1783066739019649800,6.2363454,-1.348016344819218,-0.6160317111939192,2.235125781443715,-0.1530963778495788,-0.2600547671318054,-0.5027378797531128,1.513365896973759,-9.646565236505866,-0.9076904523603616,50,walking
1783066739039573800,6.2562694,-1.4353407002680003,-1.3201450259447096,2.0760136623740197,-0.2383052110671997,-0.2082637399435043,-0.4538045227527618,1.6017375695183873,-9.627790977931022,-0.9541806931175292,50,walking
1783066739059498800,6.2761944,-1.6889079034492374,-1.799891366904974,1.8542125935487448,-0.2524852752685547,-0.2024218291044235,-0.3849875330924988,1.6776853754281995,-9.609228900802137,-1.0092091912478207,50,walking
1783066739079422700,6.2961183,-1.754711331963539,-1.9695055907666683,1.8244354410529136,-0.2535749971866607,-0.1549441963434219,-0.2424487173557281,1.7351085136100648,-9.59329074243605,-1.0623314173653722,50,walking
1783066739099347700,6.3160433,-1.686309265258163,-1.549042044380307,1.544978448203206,-0.3509792387485504,-0.1569892317056656,-0.0719593912363052,1.7618762551568448,-9.58130161395669,-1.1246464923072603,50,walking
1783066739119271700,6.3359673,-1.5485861173063515,-0.8297744151175022,1.2622976710014044,-0.4471909999847412,-0.1648028790950775,0.1129645854234695,1.7538893480561673,-9.572733692097664,-1.2070815413445233,50,walking
1783066739139196700,6.3558923,-1.6505485083080826,0.1747369737029075,1.1593652659237383,-0.4952124953269958,-0.1432746946811676,0.2103008329868316,1.7169876043774186,-9.566741173684596,-1.303765553551912,50,walking
1783066739159121000,6.3758166,-1.7906620585277675,0.9043179071873426,0.8209827675051987,-0.5072263479232788,-0.2197206616401672,0.1652294695377349,1.6755904489755629,-9.559656183859705,-1.4056165931336582,50,walking
1783066739179044600,6.3957402,-1.7716123440124094,0.9949626392304896,0.7300878600932658,-0.3937943875789642,-0.2655059397220611,0.113029733300209,1.642624875701964,-9.5504920496732,-1.5034145579323173,50,walking
1783066739198969600,6.4156652,-1.5212377993926405,0.7362602651178837,0.7865912530817091,-0.1719452738761901,-0.2122381180524826,0.1340072602033615,1.6126665214203295,-9.545873742222785,-1.5639584584832191,50,walking
1783066739218893800,6.4355894,-1.367049108199775,0.5027718272387981,0.7988187203615903,-0.000367030268535,-0.2105457484722137,0.1514566987752914,1.5787861713893712,-9.547916061705353,-1.58591266226843,50,walking
1783066739238818600,6.4555142,-1.3534325246490535,0.2415185995995998,1.004797804546356,0.1246357411146164,-0.1517726331949234,0.17088283598423,1.542873438747972,-9.554813420003653,-1.5797053320609031,50,walking
1783066739258742500,6.4754381,-1.3145340541951358,0.1229214462697505,1.1374411650158465,0.1096776500344276,-0.1423524469137191,0.1792774051427841,1.503526493874192,-9.564754968303442,-1.5573242811657488,50,walking
1783066739278666800,6.4953624,-1.3787844080485403,0.0054255321800708,1.3470568521372974,-0.060905572026968,-0.1403771787881851,0.1265242248773574,1.470362621549517,-9.56996247381866,-1.5569987024731933,50,walking
1783066739298591500,6.5152871,-1.0487193638592958,-0.4755494737923145,1.4213924005448817,-0.179849624633789,-0.0633353218436241,0.1607316136360168,1.4406205403670669,-9.570071194890142,-1.5838988382279873,50,walking
1783066739318515700,6.5352113,-0.6290041516222059,-0.9558499415040016,1.159527324617654,-0.2483408749103546,-0.0150643922388553,0.2844956815242767,1.397692229875177,-9.569359247228505,-1.6260970808796584,50,walking
1783066739338440700,6.5551363,-0.596998655552417,-0.7434048761755228,0.8143184873104095,-0.3151833415031433,-0.0856336951255798,0.3615240454673767,1.3330657361857592,-9.569169862136244,-1.6805705754756926,50,walking
1783066739358364700,6.5750603,-0.9006675679862499,-0.5029705646812915,0.8852790063269436,-0.3611289262771606,-0.0756591632962226,0.3075768947601318,1.2647358579337595,-9.566292845395209,-1.7483887048132716,50,walking
1783066739378288600,6.5949842,-0.3637449032120406,-0.9845710090756415,0.788203802844882,-0.3329109847545624,-0.0316560864448547,0.3195901811122894,1.2063541769180446,-9.56113911589384,-1.8165131236210463,50,walking
1783066739398213600,6.6149092,0.3568042172286659,-1.5531909807533024,0.4266702920719981,-0.3617177009582519,-0.1083659753203392,0.4208213090896606,1.133586462349072,-9.557102407723663,-1.8833928030647336,50,walking
1783066739418137900,6.6348335,0.4735369649261235,-1.8235124809890983,0.6580484597988426,-0.4189342260360718,-0.0638956427574157,0.5023447871208191,1.0416932646147907,-9.552236847513914,-1.959596337301284,50,walking
1783066739438062600,6.6547582,0.4437062556121498,-1.4031751913309096,0.6038184185698628,-0.5335969924926758,-0.0567498542368412,0.527298629283905,0.939843321011588,-9.543713933840394,-2.0505149178497493,50,walking
1783066739457986600,6.6746822,0.1680081769045442,-0.8481652273327112,0.5235068644925952,-0.5939998030662537,-0.0255637038499116,0.4329218566417694,0.8444399962645024,-9.528006077098846,-2.162039064053446,50,walking
1783066739477911800,6.6946074,0.0763796945210546,-0.7751835777521133,0.1048340009152889,-0.3883285522460937,0.0424057580530643,0.2792662978172302,0.7777515285439789,-9.511204579901694,-2.258867160906642,50,walking
1783066739497835500,6.7145311,0.309362082574144,-0.9317541956454516,-0.3608054887592792,-0.0076021300628781,0.0331044048070907,0.1383413821458816,0.7397471573855727,-9.50487011618316,-2.297955454844236,50,walking
1783066739517759700,6.7344553,0.3024067835435271,-1.879640610924363,-0.3735354987338185,0.3366943597793579,0.0569408237934112,0.0561323054134845,0.7244064534559845,-9.514665534010527,-2.2620317624174056,50,walking
1783066739537684700,6.7543803,0.6145610541194677,-2.7777655086904764,0.245417945125699,0.3048620820045471,0.1658861488103866,0.1130612418055534,0.715866734778136,-9.531124501380324,-2.1944477340966464,50,walking
1783066739557608700,6.7743043,1.0562553853873162,-2.22209854208827,0.1389747554481029,0.1271678060293197,0.1078295037150383,0.2280489206314087,0.6895663915473967,-9.542858778315782,-2.1514508884131907,50,walking
1783066739577533700,6.7942293,1.0846334116749463,-0.6994207730203866,0.1146685817092657,-0.0082486234605312,0.0851184725761413,0.3039552867412567,0.6408376511484384,-9.54895943327844,-2.1394149981826542,50,walking
1783066739597457700,6.8141533,0.7594923798844218,0.8177519688904284,-0.0585156095936894,-0.0986626893281936,-0.0064944056794047,0.2080893665552139,0.592034384208545,-9.55000514293909,-2.148788975727558,50,walking
1783066739617381600,6.8340772,0.4111084196723997,1.3948632900595663,-0.0216945299357175,-0.1735264211893081,0.0006170989363454,0.0814118310809135,0.5649777792504057,-9.54547451377213,-2.176032810353488,50,walking
1783066739637306600,6.8540022,0.3648007324079051,1.3544927012264727,-0.2070867531657219,-0.1932039111852646,0.0726298391819,0.0369788818061351,0.5553208200456574,-9.538023613244295,-2.2109071398578584,50,walking
1783066739657230600,6.8739262,0.5342736481027678,1.4006927268654108,-0.7501601956546307,-0.2216831892728805,-0.0611190348863601,-0.0373562909662723,0.557033432649821,-9.52900794761777,-2.249026296502352,50,walking
1783066739677155800,6.8938514,0.4771597585331648,1.3658996459037065,-0.7156219662368297,-0.2350076138973236,-0.1569132059812545,-0.0879976823925972,0.5637195593502372,-9.51740811071694,-2.295984008640796,50,walking
1783066739697079600,6.9137752,0.442237571299076,1.3231781100302933,-0.8594646199822426,-0.1234523206949234,-0.2129055708646774,-0.1060553193092346,0.5742506345083936,-9.507906122878191,-2.332455105817318,50,walking
1783066739717003500,6.9336991,0.3637941126486286,1.2370125692278149,-0.944123847874999,-0.0500153228640556,-0.2699011266231537,-0.1321353018283844,0.585207606928423,-9.502695110231638,-2.350896040784568,50,walking
1783066739736928800,6.9536244,0.2700011822402477,1.1823738010674714,-0.8107213396012782,-0.0408431589603424,-0.2774461209774017,-0.1669520884752273,0.5993933686692268,-9.499082180431484,-2.361895427574217,50,walking
1783066739756852700,6.9735483,0.1197298106215894,1.1197995637327431,-0.6378218104586005,-0.001292495522648,-0.178341656923294,-0.2173876762390136,0.6251661078292876,-9.495614212059976,-2.3691453987024724,50,walking
1783066739776777700,6.9934733,-0.0020992373015731,1.1803729826390743,-0.7754261543363332,0.0256213936954736,-0.1053884923458099,-0.310431957244873,0.6676872988250107,-9.492891509097817,-2.3684596083953977,50,walking
1783066739796701700,7.0133973,0.1868050857026129,0.9593430443167686,-0.7991390383571386,0.0373665317893028,-0.0556783303618431,-0.3726080060005188,0.7295756727874279,-9.489584284245968,-2.363451717105508,50,walking
1783066739816625700,7.0333213,0.5467453359346837,0.5889660096138716,-1.0523977601110934,0.1180659830570221,-0.070526584982872,-0.3264651000499725,0.7950549839138984,-9.487315754792094,-2.35140910487324,50,walking
1783066739836550700,7.0532463,0.4922746178176254,0.4916232412368059,-0.956772317045927,0.2299727350473404,-0.054923590272665,-0.217915877699852,0.8429417935959994,-9.49142728176415,-2.3178971497632563,50,walking
1783066739856474600,7.0731702,-0.0136376994039863,0.8384966507554054,-0.6631679947696626,0.2057258337736129,-0.0585049428045749,-0.2064954787492752,0.8782436277974397,-9.49832405554056,-2.276163309752941,50,walking
1783066739876399900,7.0930955,-0.5082479205623269,1.155085981169343,-0.427181456464529,0.1198227256536483,-0.0643803402781486,-0.3124322593212127,0.9240908944759516,-9.50127296847403,-2.245495930419117,50,walking
1783066739896323600,7.1130192,-0.4333118489783257,1.0341431414961817,-0.3199848180711269,0.0713414922356605,-0.0568561814725399,-0.3272055983543396,0.98352939106822,-9.498992748582362,-2.229839949995279,50,walking
1783066739916248800,7.1329444,-0.1856876259800046,0.8392927695691585,-0.3220160316377878,0.1384710669517517,-0.0316154696047306,-0.266900897026062,1.0389213887486606,-9.497174885505435,-2.2123960632413624,50,walking
1783066739936172800,7.1528684,-0.2883106728475541,0.7244160980671643,-0.2364914190873503,0.2226071059703827,0.0233766734600067,-0.1911054849624633,1.0809411330282688,-9.500660974055528,-2.1770131996929645,50,walking
1783066739956096800,7.1727924,-0.5857926402747631,0.8173387119144201,-0.0286783974736928,0.1717059165239334,0.0669720247387886,-0.206787571310997,1.1201484502356498,-9.505297401684524,-2.136577582799643,50,walking
1783066739976022000,7.1927176,-0.5660225025303661,0.6781494369328022,0.0345797304719686,0.0391769632697105,0.0676029846072197,-0.1922554224729538,1.1614303817600011,-9.505271682721377,-2.1145424227327108,50,walking
1783066739995946000,7.2126416,-0.758301635729894,0.7772662292450666,0.0586259381003677,-0.0454269461333751,0.1286237239837646,-0.1919210404157638,1.2007799569822848,-9.500389755898713,-2.114496976155788,50,walking
1783066740015871000,7.2325666,-0.9336600292667746,0.7989327021300793,-0.0939051951438188,-0.0509354881942272,0.2199171632528305,-0.2090466618537902,1.247000879278779,-9.49317675577998,-2.1201326439552006,50,walking
1783066740035795000,7.2524906,-0.7100836213320493,0.62684711971879,-0.5498432288847863,-0.0022059746552258,0.1632778495550155,-0.2032424062490463,1.295166652032733,-9.486589778605104,-2.1207390854157504,50,walking
1783066740055719000,7.2724146,-0.7500193258792162,0.3831961842656135,-0.4168342499732971,0.0830453112721443,0.1638917773962021,-0.1659958362579345,1.3368978616945444,-9.48340705691576,-2.1090486476220187,50,walking
1783066740075644000,7.2923396,-0.8484357148371636,0.1990788032770157,-0.2258370463430881,0.1325250267982483,0.222306415438652,-0.1118643507361412,1.3717182690545917,-9.484241754174231,-2.0827720505930483,50,walking
1783066740095568000,7.3122636,-0.959577145333588,0.0994990696281194,-0.3205313460379839,0.0903891623020172,0.2026847749948501,-0.0854343324899673,1.3983145995572208,-9.486714866289496,-2.0536185829535127,50,walking
1783066740115492900,7.3321885,-1.0828287003405392,0.0284159471452236,-0.3617313714325428,-0.0125585719943046,0.1589288413524627,-0.1262083649635315,1.4250497540086506,-9.485362867158653,-2.041448837210238,50,walking
1783066740135417000,7.3521126,-1.0555565164029597,-0.2869856347888708,-0.2551712773770094,-0.0124673657119274,0.2227839082479477,-0.1201370805501937,1.4567349320828913,-9.48060895062983,-2.041167536050826,50,walking
1783066740155340800,7.3720364,-0.810524063463509,-0.7306050158351659,-0.4690020979754626,0.0368628352880477,0.2797850370407104,-0.0764982476830482,1.4862873359121382,-9.478270863071083,-2.030694072831422,50,walking
1783066740175266000,7.3919616,-0.5275112778283655,-1.101317566102743,-0.6578926847152412,0.041724357753992,0.2915269136428833,-0.0123960729688405,1.5061410602867602,-9.478658985605836,-2.014186151753366,50,walking
1783066740195190000,7.4118856,-0.2595493463307619,-1.311836047282815,-0.8522843530893325,0.0474503263831138,0.2191742658615112,0.0546099096536636,1.5124650026112794,-9.4810753990978,-1.998012723326683,50,walking
1783066740215114800,7.4318104,-0.2327716679118573,-1.2917559668064116,-0.7262731241106987,0.0338639579713344,0.2027677446603775,0.1007072031497955,1.5057389092266558,-9.484844980764388,-1.9851605482771992,50,walking
1783066740235039000,7.4517346,-0.4463911838471889,-1.0584475616693496,-0.4469266058981418,0.0295754224061965,0.298583835363388,0.0887714773416519,1.4966973785065114,-9.48905821454525,-1.9718156212747096,50,walking
1783066740254963000,7.4716586,-0.3652728434316813,-0.7853963442087173,-0.4185252718001603,0.0852792933583259,0.397929847240448,0.0386510491371154,1.498029357762635,-9.493061020445824,-1.951434950416535,50,walking
1783066740274888000,7.4915836,-0.2752142407134175,-0.542992778468132,-0.2886145511649549,0.1161238476634025,0.4974921941757202,-0.0570581331849098,1.5167575852386652,-9.496941661271451,-1.917791624011844,50,walking
1783066740294812000,7.5115076,0.1353854987844824,-0.904408508080244,-0.1980126353502273,0.0117040313780307,0.5553462505340576,-0.07524885982275,1.5516286998726427,-9.497350242072343,-1.887635993592441,50,walking
1783066740314737000,7.5314326,0.4861795888781547,-1.409426068419218,-0.2683737271688878,-0.2296478450298309,0.5730966329574585,0.0126921012997627,1.5795670926339924,-9.492570606580376,-1.8885025472939012,50,walking
1783066740334661000,7.5513566,0.6070638302318752,-1.249951545777917,-0.6168797063253819,-0.498127669095993,0.4208384752273559,0.0888397991657257,1.5890172041550277,-9.479961884897946,-1.9431205649271608,50,walking
1783066740354584800,7.5712804,0.6550529312446713,-0.8111369346648454,-0.576957445781678,-0.5672308802604675,0.3430352210998535,0.2099058628082275,1.576043740813434,-9.462681079751253,-2.035714969733357,50,walking
1783066740374510000,7.5912056,0.6251451381064951,-0.0151443776398897,-0.6639101914390921,-0.4449854493141174,0.2017255127429962,0.3355877101421356,1.5359212815225125,-9.449733919894694,-2.124586993015557,50,walking
1783066740394434000,7.6111296,0.4730436284512281,0.8750053034633397,-0.4480734378457069,-0.2332735508680343,0.0416050143539905,0.4099324941635132,1.4692524683505297,-9.446396884426472,-2.1856977336689827,50,walking
1783066740414358800,7.6310544,0.1141607783176004,1.6761135960668323,-0.1025792077258229,0.0105331037193536,-0.0485706217586994,0.377860814332962,1.3931388043545183,-9.45278103250563,-2.207825394324958,50,walking
1783066740434283000,7.6509786,-0.0526709752187132,1.857431117203832,0.2172322996050119,0.2816739380359649,-0.0347588025033474,0.2975173592567444,1.3286311147391796,-9.46829950415492,-2.180926427613944,50,walking
1783066740454207000,7.6709026,0.5157992127247154,1.1760779157936572,0.2707306655585765,0.3950827121734619,-0.0491358116269111,0.3214398324489593,1.269975950544327,-9.491139696994424,-2.115612682312727,50,walking
1783066740474131700,7.6908273,0.831378635443747,0.8648907366842031,0.3101403004050254,0.4228898286819458,-0.1982226222753524,0.3414983749389648,1.2023461103204638,-9.516637710866332,-2.0392025195881724,50,walking
1783066740494056000,7.7107516,0.8061853766720741,0.7464882291436195,1.1902239300459625,0.4407914280891418,0.0048284893855452,0.3798151910305023,1.1268330425661055,-9.542186578142642,-1.9614558475628492,50,walking
1783066740513981000,7.7306766,0.1546389922436326,0.5097475114703178,1.4249290502384304,0.2547438442707062,0.3676591515541076,0.2182957530021667,1.0762797170884906,-9.563719195514915,-1.88341852202788,50,walking
1783066740533905200,7.7506008,0.5478742668993771,0.5426286213308572,0.6281389130949974,-0.147330030798912,0.2670639753341675,0.0300603341311216,1.0640222930617629,-9.56802069210112,-1.868485156790167,50,walking
1783066740553830000,7.7705256,0.9404177598986774,-0.0088514149755239,0.6591514526046812,-0.3692996799945831,0.2859652638435364,-0.0724398046731948,1.0822334378611296,-9.557031096053125,-1.9137128302656112,50,walking
1783066740573753900,7.7904495,1.5542631400294602,-0.4875654902786016,0.1502916837543249,-0.5091773867607117,0.1723194867372512,-0.0005172851961106,1.0995596165195107,-9.538752512040734,-1.9933781953938303,50,walking
1783066740593678000,7.8103736,1.152777485031262,-0.3118120330095291,0.5626591635771095,-0.4666832089424133,0.2507394552230835,0.0852061361074447,1.0992682323575018,-9.519228311881422,-2.0847725767605008,50,walking
1783066740613602800,7.8302984,0.2129693083982914,0.6718523826152086,1.042581591756642,-0.39068603515625,0.341523677110672,0.0706197395920753,1.094564219385013,-9.503612809598446,-2.157231809902191,50,walking
