time,seconds_elapsed,acc_x,acc_y,acc_z,gyr_x,gyr_y,gyr_z,grav_x,grav_y,grav_z,fs_hz,activity
1783069029405691400,0.0,0.8032876824691891,2.3998791212707755,-0.9742366620659828,0.5077953338623047,1.2653158903121948,0.466483473777771,-0.9601079642746596,-9.009222441735863,-3.752665603101253,100,walking
1783069029415654400,0.009963,0.9103432318914682,2.220657111108303,-1.0452391205281018,0.5306689739227295,1.2917224168777466,0.5709960460662842,-0.9589753800481556,-9.023631490838527,-3.7181750122174617,100,walking
1783069029425617400,0.019926,0.87871855183281,1.9799971741646527,-1.1436392890036104,0.5488617420196533,1.3399995565414429,0.6532199382781982,-0.9658076372209936,-9.037654755493998,-3.682173432248831,100,walking
1783069029435580400,0.029889,0.7814552053675055,1.7223884405076502,-1.2984528340965509,0.5639541149139404,1.3818343877792358,0.6871268153190613,-0.976732351339236,-9.051488635057211,-3.645124681314826,100,walking
1783069029445543400,0.039852,0.6154871559884398,1.6271774234622716,-1.4432541037410498,0.5822378993034363,1.4212634563446045,0.6881707310676575,-0.9880848624154924,-9.06551306875646,-3.60701502315104,100,walking
1783069029455506700,0.0498153,0.4282884678583591,1.6234043346643448,-1.5286927915737032,0.5877330899238586,1.4748272895812988,0.6721001267433167,-0.9979588984370232,-9.079697661453483,-3.5684131975561377,100,walking
1783069029465469400,0.059778,0.2945898261822759,1.52219904564023,-1.6416346956208347,0.6145339012145996,1.5144436359405518,0.6567468047142029,-1.0052189525678754,-9.09431012417376,-3.5289427724331617,100,walking
1783069029475432400,0.069741,0.3226310947962105,1.4017325913071632,-1.6991002116397025,0.6433588862419128,1.5015305280685425,0.6407084465026855,-1.0111136366296558,-9.10986366713643,-3.486889637340605,100,walking
1783069029485395500,0.0797041,0.3815095463529229,1.2294500250190497,-1.9192989598348733,0.6636083722114563,1.46040678024292,0.6476818323135376,-1.0183672610197216,-9.125974843981862,-3.4423654359593985,100,walking
1783069029495358500,0.0896671,0.4151285420339554,0.9796282919764518,-2.2287670600667595,0.6677996516227722,1.4433984756469729,0.6905661821365356,-1.0296901076100766,-9.141910079738498,-3.39640915594846,100,walking
1783069029505321500,0.0996301,0.3903755013104528,0.6529682339251041,-2.365873683555424,0.6763043403625488,1.4646161794662476,0.7477020025253296,-1.0463864639323204,-9.157022308674454,-3.350282195545733,100,walking
1783069029515284500,0.1095931,0.3823352565873414,0.3677636373341083,-2.3691943524107337,0.6785464286804199,1.464447259902954,0.8041437268257141,-1.0687226527724414,-9.17124255720675,-3.3040155344113704,100,walking
1783069029525247500,0.1195561,0.2759634516455232,0.2142196737855672,-2.509967973974347,0.66943359375,1.4400510787963867,0.8207659721374512,-1.095977666379511,-9.184545106372235,-3.257813462945818,100,walking
1783069029535210500,0.1295191,0.0143862527489662,0.0498456886649131,-2.735719387860596,0.6203776597976685,1.451388955116272,0.7663027048110962,-1.122602565389499,-9.196593271562456,-3.214469995781779,100,walking
1783069029545173500,0.1394821,-0.3941190717529505,-0.0830061999887228,-2.702154679650068,0.5447371006011963,1.5269044637680054,0.6708016991615295,-1.1414622372254728,-9.207094791832564,-3.1775556848824023,100,walking
1783069029555136500,0.1494451,-0.8296337645377964,-0.0223883574187755,-2.328633501702547,0.4599450230598449,1.6233141422271729,0.5504441261291504,-1.1479767336860298,-9.215938023501634,-3.149449534338713,100,walking
1783069029565100500,0.1594091,-1.0752724397420883,0.2153285118103027,-1.980860220734775,0.3938913345336914,1.7033638954162598,0.4298842251300812,-1.1407108343362808,-9.223661311230062,-3.1294135852649805,100,walking
1783069029575063600,0.1693722,-1.0021206212263554,0.4314069652050733,-1.814820348228514,0.3420441150665283,1.7312657833099363,0.3532277941703796,-1.1227333521623164,-9.23069603217244,-3.115139852979779,100,walking
1783069029585026600,0.1793352,-0.658789560489729,0.5298638323038816,-1.7591823398977515,0.2959326803684234,1.7018665075302124,0.3193452656269073,-1.1003499631796032,-9.236827082273363,-3.104937607917189,100,walking
1783069029594989600,0.1892982,-0.3452785415425896,0.6251274563193321,-1.782192044085264,0.2747978270053863,1.6703062057495115,0.3094926178455353,-1.0771763006020336,-9.242158506429195,-3.097190647052228,100,walking
1783069029604952600,0.1992612,-0.0378690543409436,0.9154214850038288,-1.5834195302784442,0.2691439390182495,1.6295019388198853,0.3078600466251373,-1.0546349445786327,-9.24724326234758,-3.089762835139036,100,walking
1783069029614915300,0.2092239,0.2454316813901066,1.2954577439337969,-1.3298495506182313,0.2765536606311798,1.5641250610351562,0.3122795820236206,-1.0340218532040717,-9.252436739337444,-3.08116773301214,100,walking
1783069029624878300,0.2191869,0.4644665734376758,1.5820762989759445,-1.2175462367355825,0.2745908796787262,1.5158268213272097,0.3329991400241852,-1.0164795475769788,-9.257737183833122,-3.0710674870193,100,walking
1783069029634841300,0.2291499,0.6257463919352739,1.6977730546891687,-1.0497218189001083,0.2533215284347534,1.4872753620147705,0.3667981028556824,-1.0029825718179344,-9.2624028375566,-3.0614217067956924,100,walking
1783069029644804400,0.239113,0.6513397559404372,1.6986311328232286,-0.8304010225832462,0.2229494750499725,1.454899787902832,0.3966088593006134,-0.9935609557390211,-9.265804754954576,-3.054190878759324,100,walking
1783069029654767600,0.2490762,0.6326928500723094,1.6359166102349758,-0.6693591044947504,0.2051009684801101,1.378032088279724,0.400596410036087,-0.98733404404819,-9.268331643083693,-3.048536798520386,100,walking
1783069029664730600,0.2590392,0.6723924077760428,1.62067111030817,-0.6041527650907635,0.1826791912317276,1.2740418910980225,0.3898232579231262,-0.983788261200115,-9.27029329854548,-3.0437124471038577,100,walking
1783069029674693400,0.269002,0.591334273115173,1.4647376212745904,-0.6798834211185574,0.1413919478654861,1.202269196510315,0.3706221580505371,-0.9814393599864096,-9.271480462503431,-3.04085530410707,100,walking
1783069029684656400,0.278965,0.4567642554320394,1.2424404394954442,-0.6407338985130191,0.0968450233340263,1.1740281581878662,0.3571599423885345,-0.9791492032226174,-9.2715447599113,-3.041398032681644,100,walking
1783069029694622700,0.2889313,0.3317526319500058,1.1228875928759574,-0.5007558112412691,0.0517800748348236,1.1526734828948977,0.3410132229328155,-0.9762417182780802,-9.270355842387676,-3.04595438081175,100,walking
1783069029704585700,0.2988943,0.2141766383614391,1.006485903763771,-0.4035770012542605,-0.0023087435401976,1.123929738998413,0.3068736791610718,-0.971492624054849,-9.26797742281854,-3.054697074715793,100,walking
1783069029714548700,0.3088573,0.1766801436599344,0.9085229576617478,-0.398119028109312,-0.0626194849610328,1.0820248126983645,0.2827108204364776,-0.9649712594620884,-9.26413652948141,-3.068385992850363,100,walking
1783069029724511700,0.3188203,0.1847996641643345,0.8690876038521528,-0.3702990010306239,-0.1284978985786438,1.030394196510315,0.2749736905097961,-0.958276803324744,-9.258521027687191,-3.0873774013072253,100,walking
1783069029734475800,0.3287844,0.1753362547703087,0.8121656931906938,-0.3328022140681743,-0.1859337538480758,0.9757534861564636,0.273889809846878,-0.9524041118990628,-9.250978357222676,-3.1117054946169254,100,walking
1783069029744438800,0.3387474,0.1327454326044768,0.7346428930491209,-0.3236562000602483,-0.2049220353364944,0.9238430261611938,0.2706485092639923,-0.9478212410882116,-9.242288854810594,-3.1388083133369684,100,walking
1783069029754401800,0.3487104,0.0517693502038717,0.7351958507567644,-0.2814829457193613,-0.1883763372898101,0.8734592199325562,0.2684439420700073,-0.944357437435165,-9.233563696563245,-3.16541925688684,100,walking
1783069029764364800,0.3586734,0.083124127279967,0.8764140012174845,-0.2132926220685243,-0.1468512266874313,0.8141144514083862,0.2617829740047455,-0.9418942621920258,-9.225743378201129,-3.188867937013507,100,walking
1783069029774327800,0.3686364,0.1032646327067166,0.9479372686833144,-0.2115899098038673,-0.0965984463691711,0.7467846870422363,0.257181853055954,-0.9407861548196524,-9.21945509171188,-3.207330060899257,100,walking
1783069029784290800,0.3785994,0.1222557489026337,0.9168541481554509,-0.215572257438302,-0.0591832548379898,0.689236044883728,0.2579545080661773,-0.9415215564221144,-9.214558551841971,-3.22115429585129,100,walking
1783069029794253800,0.3885624,0.0628555384941399,0.8214853101998567,-0.1561965238839388,-0.0381485447287559,0.6453391313552856,0.2524377703666687,-0.9437718926321714,-9.210618289783596,-3.2317484628409145,100,walking
1783069029804216800,0.3985254,-0.1000255046550184,0.7342214527666568,0.006398761126399,-0.0205281674861907,0.5866228938102722,0.2186066955327987,-0.9456419973529876,-9.207450765663385,-3.240217015978694,100,walking
1783069029814179800,0.4084884,-0.2556791538339108,0.7261649875611066,0.1543546954095363,-0.0060022226534783,0.5242271423339844,0.1654095202684402,-0.945312180876732,-9.205230751526356,-3.246615777105093,100,walking
1783069029824142600,0.4184512,-0.3503217964068055,0.7483417480558157,0.2419151977017521,0.0085072852671146,0.4782715439796448,0.1208891496062278,-0.9420982603315264,-9.20391499275267,-3.2512770469143986,100,walking
1783069029834105900,0.4284145,-0.3848428554940968,0.6737514942348003,0.273952550214529,0.0179226249456405,0.4497400224208832,0.1036774069070816,-0.9372053737234324,-9.2032445461452,-3.2545836872443554,100,walking
1783069029844068900,0.4383775,-0.3959402227655053,0.4853758712798356,0.3353697264686227,0.0288011934608221,0.38789963722229,0.0933932587504386,-0.932542131152749,-9.20311185967624,-3.2562954595983027,100,walking
1783069029854032000,0.4483406,-0.2812794590365141,0.4107832793712616,0.3440940079331397,0.0604792274534702,0.2902148962020874,0.1012013852596283,-0.9303359994105994,-9.203638513898849,-3.2554432266831395,100,walking
1783069029863995000,0.4583036,-0.1439065127618611,0.4123907145678996,0.2584761641412973,0.1011767834424972,0.21196249127388,0.1329399049282074,-0.932735827093944,-9.205096311491728,-3.2506299811825152,100,walking
1783069029873958000,0.4682666,-0.053222983078286,0.371091320452094,0.2763090502128005,0.1502788066864013,0.1735812872648239,0.1769869923591613,-0.9408198378935456,-9.207640150755644,-3.2410788935050365,100,walking
1783069029883921000,0.4782296,-0.0798161717757582,0.2840577646434307,0.3482780156195164,0.2183024585247039,0.15566186606884,0.2012760937213897,-0.9531324261736124,-9.211736480158567,-3.225809428180754,100,walking
1783069029893885000,0.4881936,-0.1902745153788477,0.2248807685315609,0.4175201864108443,0.2898195087909698,0.1711215227842331,0.1964190155267715,-0.9662745240803808,-9.217951116889717,-3.2040716436252,100,walking
1783069029903847700,0.4981563,-0.2981357551608234,0.1617161640882492,0.4971677236214279,0.3577033579349518,0.2109503298997879,0.1743883341550827,-0.9772254686184229,-9.226461755603552,-3.176129451471567,100,walking
1783069029913810700,0.5081193,-0.449169343323633,-0.017853636598587,0.5827925816759467,0.4012484550476074,0.2296571582555771,0.1483386307954788,-0.9851067964527755,-9.236932296213508,-3.143091689744592,100,walking
1783069029923773700,0.5180823,-0.5174326591454446,-0.2690495806038379,0.5659522137731313,0.4197586178779602,0.1828630417585373,0.1281625181436538,-0.9912138080909848,-9.248500568932297,-3.106948363217711,100,walking
1783069029933736700,0.5280453,-0.4456481103949248,-0.5444160892695188,0.4363590346544981,0.4076990187168121,0.0620748475193977,0.1265062987804412,-0.9991028077751396,-9.259989931195976,-3.069981153087318,100,walking
1783069029943699700,0.5380083,-0.3683252167396247,-0.8530389708489179,0.244127320793271,0.358763188123703,-0.0383827649056911,0.1387937366962433,-1.011183998452127,-9.270394420832394,-3.0344197181016206,100,walking
1783069029953663000,0.5479716,-0.3417484677202999,-1.2008856093138456,0.1772244066044688,0.277922660112381,-0.0760212242603302,0.1582457274198532,-1.0266877109237014,-9.27853622623384,-3.0041783090949057,100,walking
1783069029963626000,0.5579346,-0.3359907809764146,-1.4446996263742446,0.3050710343167185,0.1743707656860351,-0.0612149238586425,0.1837863326072693,-1.044565824376419,-9.283567790660262,-2.9823867485255,100,walking
1783069029973588700,0.5678973,-0.3603912088699638,-1.5563181728631257,0.4965832017317414,0.0712116211652755,-0.059315025806427,0.2053094655275344,-1.064308270396292,-9.285075272613764,-2.970691342295706,100,walking
1783069029983551700,0.5778603,-0.2992053571537136,-1.567271528553963,0.5950476676151156,-0.0059895603917539,-0.082547403872013,0.2114765495061874,-1.0856907387081534,-9.283698723563552,-2.9672520154967903,100,walking
1783069029993514800,0.5878234,-0.0948341465570032,-1.4918378096461296,0.5603142078861594,-0.0602733083069324,-0.1519419103860855,0.2304241359233856,-1.1094492885015903,-9.280274009811878,-2.9691800609499213,100,walking
1783069030003477800,0.5977864,0.1829033290237188,-1.4445371292889118,0.3957207347959279,-0.0902797728776931,-0.2252877354621887,0.2830424904823303,-1.1386389964982866,-9.275201528853176,-2.9739766475766896,100,walking
1783069030013440800,0.6077494,0.4419228062614798,-1.5365274307221173,0.2237307217136025,-0.1255466938018798,-0.2880070507526397,0.3710445165634155,-1.1763441655144096,-9.26820480183363,-2.9811025539338587,100,walking
1783069030023403800,0.6177124,0.6146504859685897,-1.7807570428460835,0.0204576816171407,-0.157138779759407,-0.3598084449768066,0.4805279076099396,-1.2251720554389058,-9.258906812134384,-2.990315495698154,100,walking
1783069030033366800,0.6276754,0.6565729804188013,-2.02634742192924,-0.2552513568758964,-0.1773907840251922,-0.4239293932914734,0.5608088970184326,-1.2852002615526317,-9.247349645331502,-3.0008626086756585,100,walking
1783069030043330800,0.6376394,0.5415551468804478,-2.327771916437149,-0.5141632820859551,-0.1860019266605377,-0.4361756145954132,0.6002985239028931,-1.3519927011042832,-9.23427798231244,-3.011747867566347,100,walking
1783069030053293800,0.6476024,0.2105344094015658,-2.586029469391704,-0.67163523273319,-0.2132942676544189,-0.3920392990112304,0.5876453518867493,-1.4196061016499997,-9.220077607524397,-3.0241140126645565,100,walking
1783069030063256800,0.6575654,-0.3090045743733644,-2.6330782208144665,-0.6984890451282263,-0.2564969658851623,-0.3166557550430298,0.5227307081222534,-1.4814092084817587,-9.204902250224352,-3.040655397620797,100,walking
1783069030073219800,0.6675284,-0.8119431364811956,-2.464723057103157,-0.5837424297466873,-0.2986316382884979,-0.2359728664159774,0.4178029596805572,-1.5330277520380913,-9.189352798914909,-3.0620278559952974,100,walking
1783069030083182800,0.6774914,-1.1656842398121952,-2.164706091305613,-0.5039858792036771,-0.3198854327201843,-0.1654520183801651,0.2868833541870117,-1.571486662030965,-9.174382608798146,-3.087316611030697,100,walking
1783069030093145900,0.6874545,-1.3447880304224789,-1.867628101569414,-0.4869496964678168,-0.3389936089515686,-0.0886903926730156,0.1458407640457153,-1.595291608249396,-9.160812348607182,-3.115275754319131,100,walking
1783069030103108900,0.6974175,-1.389452078665793,-1.6009084252178667,-0.5023948106199503,-0.3424081206321716,0.0055392133072018,0.0116096045821905,-1.6037487632103264,-9.148907391279936,-3.1457696767821908,100,walking
1783069030113071600,0.7073802,-1.3529821505330502,-1.293482059946656,-0.4393336665511131,-0.3248685598373413,0.0923737064003944,-0.1004202589392662,-1.5981708169475195,-9.139101452058553,-3.1769583035111424,100,walking
1783069030123034600,0.7173432,-1.261208560590446,-0.8270049504041671,-0.368840326654911,-0.2916761040687561,0.1790841072797775,-0.1977935284376144,-1.5801102595999836,-9.131676855015757,-3.207199127995968,100,walking
1783069030132997600,0.7273062,-1.150211799261719,-0.3333487420350313,-0.3330576501339674,-0.2575232088565826,0.2742622792720794,-0.2607423961162567,-1.5517942656978965,-9.126441292449831,-3.2357991995364426,100,walking
1783069030142961000,0.7372696,-1.0905049340568482,0.0466647205412387,-0.2965083731546998,-0.1949659436941146,0.3424979746341705,-0.301040768623352,-1.5160323397040367,-9.12338365844488,-3.261275293837488,100,walking
1783069030152924000,0.7472326,-1.0608597373776136,0.3649672846138477,-0.2455743047311901,-0.111596755683422,0.3726361691951751,-0.3440087437629699,-1.4750484412781892,-9.12310542602539,-3.2807851732105013,100,walking
1783069030162887000,0.7571956,-1.0044574666760862,0.733542238330841,-0.2338081713527441,0.0013278695987537,0.3569647073745727,-0.3920072019100189,-1.429398304606974,-9.126565795612334,-3.2913542057588696,100,walking
1783069030172850000,0.7671586,-0.9310001624077558,1.1234949111193415,-0.1772603547006845,0.1266786009073257,0.3390932977199554,-0.443329781293869,-1.3800031361885368,-9.134493666002154,-3.290441474828124,100,walking
1783069030182814000,0.7771226,-0.9763749892689289,1.4331062192142008,-0.0768845022380352,0.2437035143375396,0.3317371606826782,-0.4960977733135223,-1.3262487496472894,-9.14692469303012,-3.27799057405591,100,walking
1783069030192776700,0.7870853,-1.0498634193278849,1.6732973696023226,0.0561973957791924,0.3682489395141601,0.3369313776493072,-0.5403158068656921,-1.26787313304618,-9.16355726340115,-3.254550954018533,100,walking
1783069030202739700,0.7970483,-1.033741355762258,1.891815617364645,0.2265107078209519,0.4938918054103851,0.3307631015777588,-0.5658484101295471,-1.2063333533257246,-9.184254014471172,-3.219412128359079,100,walking
1783069030212702700,0.8070113,-0.9122379595968872,2.047517051208019,0.3183373431250453,0.6105585098266602,0.292565643787384,-0.5740455985069275,-1.1439320614051074,-9.208573632213472,-3.172374775113165,100,walking
1783069030222665700,0.8169743,-0.696901995132491,2.0487901398837565,0.2979080108195543,0.7098369598388672,0.2142667174339294,-0.5446761846542358,-1.0843838938932866,-9.235584388735887,-3.114237351182103,100,walking
1783069030232628700,0.8269373,-0.4586765187941491,1.907832101663947,0.2771767729580402,0.7652789354324341,0.1158061847090721,-0.4742800891399383,-1.0321631466601042,-9.263717427286505,-3.047716714309156,100,walking
1783069030242591700,0.8369003,-0.265365558328852,1.6345552587538956,0.2428331893295049,0.7715556025505066,0.0226411949843168,-0.3794101178646087,-0.9905427769616244,-9.291212167933583,-2.9770111929669976,100,walking
1783069030252555000,0.8468636,-0.1044900097832083,1.3762509440481665,0.2945110618576407,0.7217036485671997,-0.0763849914073944,-0.2691155672073364,-0.9612287119328976,-9.316321474748849,-2.907333261106908,100,walking
1783069030262517800,0.8568264,-0.0663663230940699,1.1498188544213772,0.3523775598928332,0.630627453327179,-0.1673642992973327,-0.1567691415548324,-0.9448848223101348,-9.337840063595772,-2.842946129131317,100,walking
1783069030272480800,0.8667894,-0.1312337128672748,0.8757090678185224,0.4678247247591614,0.4977721869945526,-0.2615073025226593,-0.0640011206269264,-0.9407701535329224,-9.35477541630566,-2.788105408658087,100,walking
1783069030282443800,0.8767524,-0.2679229877267032,0.6451882475733757,0.5477466949969529,0.326491117477417,-0.3551901876926422,-0.0026088622398674,-0.9462363830495624,-9.366517292025684,-2.746521352382004,100,walking
1783069030292406800,0.8867154,-0.4952206081416457,0.4694844746649265,0.5875184411540627,0.1178060919046402,-0.4023137390613556,0.022408340126276,-0.9577605974309146,-9.37247415460348,-2.722098858787119,100,walking
1783069030302369800,0.8966784,-0.8046173967029899,0.3500479479014873,0.7054986316293478,-0.1151331737637519,-0.3795509040355682,0.0243874434381723,-0.9706834265638142,-9.372297628992795,-2.718124402198195,100,walking
1783069030312333800,0.9066424,-1.083718342656642,0.2933750435650348,0.9185030844062566,-0.3398725390434265,-0.2820355594158172,0.002835280727595,-0.981280443097651,-9.365902959519625,-2.736300694879889,100,walking
1783069030322296800,0.9166054,-1.2493186547018589,0.3432563880652189,1.1843541612297297,-0.5140805244445801,-0.1699982434511184,-0.0361934565007686,-0.985967797196284,-9.354282664352654,-2.7741040635734797,100,walking
1783069030332259800,0.9265684,-1.1816904219131916,0.5696773717761039,1.3252856037035583,-0.6293013691902161,-0.1339289098978042,-0.0717160254716873,-0.985061934397742,-9.338739642784,-2.8262998224958777,100,walking
1783069030342222600,0.9365312,-0.8697473829351365,0.8824281469404697,1.2335332026794552,-0.6840313673019409,-0.1768844872713089,-0.0927220359444618,-0.9815689046502112,-9.320790729117393,-2.886130898602307,100,walking
1783069030352185600,0.9464942,-0.4504944544475525,1.1277402936041354,0.944931364865601,-0.682746946811676,-0.2471045851707458,-0.0976882949471473,-0.9788440097309647,-9.301844621106982,-2.947531415982544,100,walking
1783069030362148900,0.9564575,-0.1138981818586587,1.2810124544739725,0.72197191978544,-0.6571009755134583,-0.2893155217170715,-0.0927527993917465,-0.9781566850539296,-9.282882731005548,-3.006938129197061,100,walking
1783069030372112000,0.9664206,0.0843195476096123,1.46844991979599,0.707227062857151,-0.5993234515190125,-0.3059746325016022,-0.0868304595351219,-0.9788533620811998,-9.26471871328354,-3.062223963089287,100,walking
1783069030382075000,0.9763836,0.218776314176619,1.708847406411171,0.8056941590890287,-0.5211308598518372,-0.3003309071063995,-0.0593128912150859,-0.9813297621320932,-9.248187849721312,-3.1110110826119777,100,walking
1783069030392038000,0.9863466,0.364777461130172,1.877830346632004,0.8378951777309179,-0.4375550150871277,-0.2839215695858001,-0.0205945260822772,-0.9866711231600492,-9.23371567225456,-3.152041012136638,100,walking
1783069030402001000,0.9963096,0.5037693869087845,1.8214052795767783,0.8117951063126325,-0.3782494664192199,-0.2702109813690185,0.0254754405468702,-0.9957776819404214,-9.220835147893428,-3.1866935155838725,100,walking
1783069030411963600,1.0062722,0.5923623740538955,1.6085872892826794,0.803998461087048,-0.3259076774120331,-0.252021312713623,0.0752003863453865,-1.0088038983825591,-9.209128928008676,-3.216306271298229,100,walking
1783069030421926700,1.0162353,0.6120663877595216,1.4662749138444662,0.887808086413145,-0.2680104970932007,-0.2361527979373932,0.0992909893393516,-1.0247671181246638,-9.198648450526594,-3.241158388482034,100,walking
1783069030431889700,1.0261983,0.6655721333019435,1.464938112282753,0.9931722486823796,-0.1822609603404998,-0.233065128326416,0.1094027459621429,-1.0417610691539942,-9.190278681588172,-3.259434049884975,100,walking
1783069030441853000,1.0361616,0.7400746357742697,1.3909639445334672,0.9714584295243024,-0.0894014462828636,-0.2390432506799698,0.1250354498624801,-1.0599999056778848,-9.1846888987571,-3.269293765120208,100,walking
1783069030451816700,1.0461253,0.8368455956127494,1.1514531776249408,0.870601515546441,-0.0022151465527713,-0.245264396071434,0.1506641060113906,-1.0806055443983524,-9.181755183392765,-3.270788972114026,100,walking
1783069030461779700,1.0560883,0.9092072866640984,0.8524585406124592,0.7996525408372283,0.0593435205519199,-0.2212196588516235,0.19400055706501,-1.1040351544983684,-9.180838068547844,-3.265530028672516,100,walking
1783069030471743000,1.0660516,0.963197381657362,0.5557943923741578,0.8406231413900852,0.1143460571765899,-0.1907400488853454,0.2550782859325409,-1.13124019148387,-9.181205148294568,-3.255175515657663,100,walking
1783069030481706000,1.0760146,1.0373129306387157,0.2981535100132226,0.9756693252176046,0.1517343372106552,-0.1922350227832794,0.3148088455200195,-1.1634571383472532,-9.182287682834268,-3.240733441068232,100,walking
1783069030491668700,1.0859773,1.085324535744265,0.0411339744210243,0.96308924510777,0.1789411902427673,-0.2206820994615554,0.3546979427337646,-1.20084483891204,-9.183692288935184,-3.22306597469151,100,walking
1783069030501631700,1.0959403,1.0454594852805137,-0.247072142073512,0.8926277616545557,0.1950617134571075,-0.2390519231557846,0.3795214891433716,-1.2419338051475584,-9.185184573319551,-3.203182001309097,100,walking
1783069030511594800,1.1059034,0.9253598184332252,-0.4882704236775636,0.9056281130030752,0.2086630016565323,-0.2282948791980743,0.3815364241600036,-1.284340137591958,-9.186847538095712,-3.18161606618911,100,walking
1783069030521557800,1.1158664,0.7500247327066958,-0.6054980422198772,1.0210939825698733,0.2237161844968795,-0.202432706952095,0.3640645742416382,-1.3253810269020496,-9.188731452146172,-3.159265702693164,100,walking
1783069030531520800,1.1258294,0.6197343651041388,-0.6810615249872207,1.0458940773054957,0.2372700721025467,-0.1736186295747757,0.3455870449542999,-1.363732092606276,-9.191129160937669,-3.1358821967571973,100,walking
1783069030541483800,1.1357924,0.5448563803829253,-0.7973416335463523,0.9893290172576904,0.2447289675474167,-0.1449767053127288,0.3367845714092254,-1.4000355781309306,-9.193961754015088,-3.1114895137786864,100,walking
1783069030551447000,1.1457556,0.5045246622554957,-0.9472305817186832,0.8742202905654907,0.2494539469480514,-0.1022915691137313,0.3300086855888366,-1.4343730242796242,-9.196852214759588,-3.0872108125686646,100,walking
1783069030561409800,1.1557184,0.43399610491544,-1.0721429095447064,0.8193234559908509,0.2504089772701263,-0.0433654561638832,0.3089683055877685,-1.465897166573256,-9.199879453626275,-3.0632886697113517,100,walking
1783069030571372800,1.1656814,0.3463853337407112,-1.142771273997426,0.8001955616727471,0.250695526599884,0.0147135574370622,0.276546448469162,-1.49320763669461,-9.20317206543088,-3.040120560091734,100,walking
1783069030581336800,1.1756454,0.2872292342863977,-1.177795825627446,0.7778066197320819,0.2523709833621979,0.0697475597262382,0.2381975054740905,-1.5154545398160817,-9.206903653174638,-3.017731325890124,100,walking
1783069030591299800,1.1856084,0.3517693648666143,-1.1441489920914172,0.7343617380201816,0.2543630301952362,0.0958257615566253,0.2195279449224472,-1.5337570892259478,-9.211072463291885,-2.995684913776815,100,walking
1783069030601262800,1.1955714,0.5160116864316165,-1.1274357576996088,0.6347326122716069,0.2636011838912964,0.1066077575087547,0.2065005302429199,-1.5503065113581715,-9.2155148296535,-2.973418136911094,100,walking
1783069030611225900,1.2055345,0.693914576819539,-1.1535153708517552,0.4790469605192541,0.275281012058258,0.1132414191961288,0.2084204107522964,-1.566152315265685,-9.220260562875866,-2.9503119866117835,100,walking
1783069030621188900,1.2154975,0.8219060198299586,-1.248143619573116,0.3238198661893606,0.2802234292030334,0.1276324689388275,0.2252037078142166,-1.582663597344607,-9.22499226757288,-2.926616053725779,100,walking
1783069030631151900,1.2254605,0.8193268169917166,-1.4521698161244392,0.1874903645530343,0.265722244977951,0.1484096497297287,0.2400103509426117,-1.600135979540646,-9.22926103093326,-2.903562218135596,100,walking
1783069030641114600,1.2354232,0.7738077593542635,-1.600190047815442,0.0371641940072178,0.2569294273853302,0.1786066740751266,0.2530643939971924,-1.6180632658973335,-9.232823107329011,-2.882223954291641,100,walking
1783069030651077600,1.2453862,0.7110711710646748,-1.633256451115012,-0.0837859521895647,0.2614786624908447,0.2019591331481933,0.2685325443744659,-1.63672909566164,-9.235970173183082,-2.861530710352957,100,walking
1783069030661041000,1.2553496,0.6445202851839363,-1.676300643071532,-0.2408379238590598,0.2760195136070251,0.2392023503780365,0.2835281789302826,-1.6560700482085349,-9.239014363184571,-2.840499320501089,100,walking
1783069030671004000,1.2653126,0.522903784032911,-1.7943015840739012,-0.3843339561238885,0.2975988388061523,0.2875057160854339,0.2801475822925567,-1.674813765514642,-9.242368934309482,-2.8185090224891898,100,walking
1783069030680967000,1.2752756,0.4727205339767038,-1.8191314894258972,-0.429348571370542,0.344325304031372,0.3180094361305237,0.2825032472610473,-1.6921173670150338,-9.24656872408688,-2.794294034165144,100,walking
1783069030690930000,1.2852386,0.5686905526958406,-1.7435580697864292,-0.5308247862905263,0.4319329261779785,0.320896565914154,0.2918504178524017,-1.7095276437602935,-9.252411604896189,-2.7641952484995125,100,walking
1783069030700894700,1.2952033,0.7973711519017815,-1.8153239138364792,-0.7783025865554809,0.538809061050415,0.2755787670612335,0.3285342454910278,-1.7297627686679362,-9.260402603650093,-2.724564079856872,100,walking
1783069030710857700,1.3051663,1.076478454530984,-2.11575647469759,-1.1410624242529273,0.5999667048454285,0.1896236687898636,0.3908402323722839,-1.7564314337544142,-9.269569075924158,-2.675893280190229,100,walking
1783069030720820500,1.3151291,1.1443030136093495,-2.578760355171561,-1.6049410417348144,0.6195840835571289,0.1161582767963409,0.4531826674938202,-1.791635433604568,-9.278224091544748,-2.6220222815319896,100,walking
1783069030730783500,1.3250921,0.8537547179028392,-2.955613892412185,-1.960631963959336,0.6035339832305908,0.1000181883573532,0.4932544529438019,-1.832833705433458,-9.285490283155442,-2.567252288207412,100,walking
1783069030740746500,1.3350551,0.370964479202032,-3.072408380234241,-2.1035282767653465,0.6050905585289001,0.1455984711647033,0.4965597689151764,-1.8758697140835223,-9.291548268020152,-2.513689624845981,100,walking
1783069030750709500,1.3450181,-0.1249136430002749,-2.9991099197894333,-2.162326502692699,0.6321117877960205,0.2461879253387451,0.4504519402980804,-1.915245300529897,-9.297809081980583,-2.46027835265398,100,walking
1783069030760672500,1.3549811,-0.5284941513858735,-2.801436307135224,-2.186962785168737,0.6509450674057007,0.343163400888443,0.357663094997406,-1.945763626781851,-9.305592575463653,-2.406312953710556,100,walking
1783069030770635500,1.3649441,-0.76866688933447,-2.6073487362742425,-2.1742624396801,0.6340060234069824,0.4078704714775085,0.241183653473854,-1.9646135809414087,-9.315027343285085,-2.35392123382464,100,walking
1783069030780598500,1.3749071,-0.8848901531398295,-2.3974755672603845,-2.178667835032195,0.584250807762146,0.4687803983688354,0.1233606711030006,-1.971392281296104,-9.325582639569044,-2.3059711496479807,100,walking
1783069030790561500,1.3848701,-0.9405807684406636,-1.959704327720404,-2.070543998791277,0.5376273393630981,0.559284508228302,0.0134378997609019,-1.9659796085976065,-9.337036345997452,-2.263858685583621,100,walking
1783069030800524500,1.3948331,-0.8280708260700106,-1.202134732592106,-1.7799818206898868,0.5120387673377991,0.6550518870353699,-0.074705071747303,-1.949352737314999,-9.349410674402115,-2.226864149054885,100,walking
1783069030810487600,1.4047962,-0.5276495172552764,-0.2536573656827211,-1.4969810177534817,0.4943418204784393,0.7342654466629028,-0.1264915615320205,-1.9243124040827155,-9.362503964731095,-2.1933815661698577,100,walking
1783069030820451600,1.4147602,-0.0997423768647015,0.6701110919058323,-1.363540369426459,0.502173125743866,0.8065876960754395,-0.1217766627669334,-1.8958247068755327,-9.375727018919587,-2.1614725162118678,100,walking
1783069030830414600,1.4247232,0.2623113583900034,1.3453753287911414,-1.315352384840697,0.537803053855896,0.8731035590171814,-0.0895276516675949,-1.8677732091285288,-9.388844859167932,-2.1287068494245407,100,walking
1783069030840377600,1.4346862,0.6162886085644363,1.8180629834115505,-1.2644089640669525,0.5790354013442993,0.902535080909729,-0.0433972775936126,-1.8427184089794757,-9.401845795038344,-2.0928600216262043,100,walking
1783069030850340600,1.4446492,0.9927655675776302,2.115194749161601,-1.3208689563050866,0.5986256003379822,0.8878480195999146,0.013309946283698,-1.8225060804255304,-9.41436683843732,-2.0539076290279628,100,walking
1783069030860303600,1.4546122,1.1774252387493849,2.160171955007314,-1.5421563765197992,0.5937193632125854,0.8676285743713379,0.0727893263101577,-1.8088962188765405,-9.425676167958974,-2.0136821477539835,100,walking
1783069030870266400,1.464575,1.081290530987829,2.076318198278546,-1.6345048437409102,0.5817151665687561,0.8746220469474792,0.0998443812131881,-1.7998504503726958,-9.435794241869448,-1.9740059709258375,100,walking
1783069030880229400,1.474538,0.903165668412298,2.076600522351265,-1.5527370995059608,0.5718827843666077,0.9203203916549684,0.1021839156746864,-1.7920127424843608,-9.445203875249623,-1.9357639185540376,100,walking
1783069030890192400,1.484501,0.648213586743921,2.0739380251437423,-1.5226193168789148,0.5781593322753906,0.9804601669311525,0.0967742428183555,-1.783514086469263,-9.454363333261012,-1.8985450717501344,100,walking
1783069030900155600,1.4944642,0.3866957168191671,1.9432886149704456,-1.6044073732495308,0.5825639963150024,1.0453248023986816,0.0788190588355064,-1.7727891327068208,-9.463625082603096,-1.8620973554491995,100,walking
1783069030910118700,1.5044273,0.2395028758630156,1.7753239118814468,-1.671868651973456,0.5825285911560059,1.066665530204773,0.0728605017066001,-1.7605691180810332,-9.47298093996942,-1.825760259915888,100,walking
1783069030920081700,1.5143903,0.1715352550521492,1.6384592804551124,-1.7550472859196364,0.5843122601509094,1.0700507164001465,0.0836412832140922,-1.748565522684902,-9.482162025290728,-1.789269288995117,100,walking
1783069030930044700,1.5243533,0.1088365145549178,1.4407219549149275,-1.8810919787764548,0.5747259855270386,1.0905232429504397,0.1118857041001319,-1.7385393648415803,-9.49077612437904,-1.753006866133213,100,walking
1783069030940008700,1.5343173,0.1313718792289495,1.228635786026716,-1.942109634318948,0.5468229651451111,1.10423743724823,0.1711687445640564,-1.732644023192674,-9.498059267124534,-1.7190739091321825,100,walking
1783069030949971500,1.5442801,0.117403851892054,1.0391156692117451,-1.9961549666307865,0.5218033790588379,1.1184056997299194,0.2466336786746978,-1.7334895341061054,-9.503515778964758,-1.6877732003308832,100,walking
1783069030959934500,1.5542431,0.0767690591648221,0.847180892470479,-2.083835734301805,0.5154668688774109,1.1224782466888428,0.3280885815620422,-1.7420856591463088,-9.507157934859396,-1.6581515306577086,100,walking
1783069030969897500,1.5642061,-0.0373906962394714,0.6018336744934321,-2.201952410638332,0.5259240865707397,1.1197316646575928,0.3952710926532745,-1.7582604027472435,-9.509311313501,-1.6284706781432032,100,walking
1783069030979860500,1.5741691,-0.2374868598654866,0.3890051628053188,-2.332814002257585,0.5311094522476196,1.1214208602905271,0.4148142337799072,-1.77902919614017,-9.510614212793111,-1.5980162109076976,100,walking
1783069030989823500,1.5841321,-0.5885236726738512,0.2327355736851692,-2.421781156477332,0.5363215208053589,1.1605710983276367,0.380124419927597,-1.798944587574154,-9.511912435910103,-1.5677068512313066,100,walking
1783069030999786500,1.5940951,-0.9517454287946224,0.1908393827199935,-2.310576451486349,0.5373404622077942,1.2129000425338743,0.3190922141075134,-1.814006547627598,-9.51386064736843,-1.5382523548185825,100,walking
1783069031009749800,1.6040584,-1.255562955918908,0.1783259381055831,-2.1178559311948715,0.5017433166503906,1.2662277221679688,0.2353552430868148,-1.8214350901931524,-9.516759291419389,-1.5113047266602515,100,walking
1783069031019712500,1.6140211,-1.4053969590336084,0.2151677682906389,-1.955828509200364,0.4442527890205383,1.3176918029785156,0.1642996370792389,-1.8209394156306984,-9.520233689531684,-1.4898764464452865,100,walking
1783069031029675500,1.6239841,-1.387015353038162,0.2487351068496704,-1.7812601700626312,0.3658131062984466,1.36995530128479,0.1161326467990875,-1.814181758064032,-9.523722116169331,-1.4757520595028994,100,walking
1783069031039638500,1.6339471,-1.2475288486756384,0.3531833233177662,-1.5883042335800823,0.2845284342765808,1.4120564460754397,0.0807884410023689,-1.8029830493099988,-9.526715452766418,-1.470138749665767,100,walking
1783069031049601500,1.6439101,-0.9800967862710356,0.6464350327640771,-1.4222427337639032,0.208769217133522,1.427537441253662,0.059798739850521,-1.7887972875691949,-9.529072245025636,-1.472197289630771,100,walking
1783069031059564500,1.6538731,-0.6948147405296564,1.0013719217509032,-1.3141115909993648,0.1425421833992004,1.426481008529663,0.0480454377830028,-1.7728591292031108,-9.530715336057543,-1.4808195720255375,100,walking
1783069031069528600,1.6638372,-0.4382423641830682,1.3480010011196135,-1.1827647000811994,0.0867047533392906,1.4206221103668213,0.0532029159367084,-1.756492370161414,-9.531531328615548,-1.4949999269388614,100,walking
1783069031079491600,1.6738002,-0.2509435766793787,1.6294833623170852,-1.0265233141422272,0.0343558900058269,1.4241840839385986,0.066304825246334,-1.7407326371021568,-9.531396304059028,-1.5141735600948334,100,walking
1783069031089454600,1.6837632,-0.1291873747967183,1.8662579822599887,-0.8807311337642371,0.0110250040888786,1.4313151836395264,0.0850388333201408,-1.7261689819596706,-9.530396187105774,-1.5369633379213512,100,walking
1783069031099417300,1.6937259,-0.0027649346686899,2.0893612197250127,-0.7911901251792908,0.0283450055867433,1.4213725328445437,0.1091242358088493,-1.7132789591178297,-9.52904360345304,-1.5596164837561546,100,walking
1783069031109380600,1.7036892,0.128272305778414,2.3235171816021203,-0.7248878072321414,0.0829837471246719,1.3903788328170776,0.1320053189992904,-1.702908664011955,-9.527819614616035,-1.5783340437076985,100,walking
1783069031119343600,1.7136522,0.2148990343518555,2.439234980103373,-0.7315911042630672,0.1540814489126205,1.3747005462646484,0.1558091044425964,-1.6946651518017053,-9.52726841047406,-1.5904850847505032,100,walking
1783069031129306600,1.7236152,0.2834305726557969,2.4686270788043734,-0.6644434215329587,0.2181752175092697,1.3622939586639404,0.1873584985733032,-1.6892757138483223,-9.527331538838148,-1.5958327293887733,100,walking
1783069031139269600,1.7335782,0.3070874887056649,2.423869068667293,-0.5223772759407759,0.2905632853507995,1.3258814811706543,0.2209493666887283,-1.687344745785743,-9.527914307162163,-1.594396412975341,100,walking
1783069031149232600,1.7435412,0.3467141273036599,2.3987328738451,-0.423642614813894,0.3771306574344635,1.2613917589187622,0.2251084297895431,-1.6880656074061988,-9.529413021287322,-1.584643519115448,100,walking
1783069031159195600,1.7535042,0.4053979330711066,2.376200139519572,-0.4160970217399299,0.4708213806152344,1.2051897048950195,0.21993288397789,-1.6898869776144625,-9.532318679600952,-1.565104852039367,100,walking
1783069031169158400,1.763467,0.4689657114878297,2.304547108194232,-0.4311554746620357,0.5517265796661377,1.143654704093933,0.2246051281690597,-1.6927018889047205,-9.536531913381816,-1.5361296635761856,100,walking
1783069031179121400,1.77343,0.4212633184619248,2.1044290249973536,-0.3521392210923135,0.6049907803535461,1.0802432298660278,0.2148006707429886,-1.6969237443834542,-9.541567569461463,-1.4997759091690182,100,walking
1783069031189085400,1.783394,0.3609283844865858,1.885966891336441,-0.2272128647409379,0.619502604007721,1.0128321647644043,0.2016728967428207,-1.7012324013628064,-9.547112928628922,-1.459052999766916,100,walking
1783069031199048400,1.793357,0.3822536427184939,1.7803642441362142,-0.0520795851968228,0.6059203147888184,0.95451819896698,0.2019009292125702,-1.7062468685239554,-9.552540798896551,-1.4170622623860836,100,walking
1783069031209011500,1.8033201,0.3676661683090031,1.5985913804471492,0.0987197558186948,0.55116868019104,0.9188967943191528,0.2004162222146988,-1.7123098218247292,-9.557218143057822,-1.3776722090229392,100,walking
1783069031218974500,1.8132831,0.2954948121979832,1.23769295270741,0.1969318543761968,0.4672072827816009,0.884975790977478,0.2034316807985305,-1.719296611972153,-9.560686111429334,-1.3445024914793668,100,walking
1783069031228937700,1.8232463,0.2574202253475785,0.9190694861173628,0.293909881094098,0.3710154891014099,0.8177959322929382,0.2014425694942474,-1.7274601908139884,-9.562736029696463,-1.319226742056012,100,walking
1783069031238900700,1.8332093,0.2281934002108872,0.6638192982852459,0.2895310814879834,0.2773427963256836,0.7371901869773865,0.1786868721246719,-1.735492982883006,-9.563666588544844,-1.3018294709227978,100,walking
1783069031248863500,1.8431721,0.2188001334436237,0.4126882362097501,0.2388397357791662,0.1814793944358825,0.6627047657966614,0.1496211439371109,-1.7421110858485105,-9.563775894138216,-1.2921391209051012,100,walking
1783069031258826500,1.8531351,0.1926305039204656,0.1261386547505855,0.2239643843390047,0.0902039557695388,0.5721004009246826,0.1239266395568847,-1.7470659317769108,-9.563182604420184,-1.2898328897893427,100,walking
1783069031268789500,1.8630981,0.1344661919824779,-0.1441565420001745,0.1481681157290935,0.0024051275104284,0.4720697104930877,0.0869941860437393,-1.7504026749841868,-9.561936988273262,-1.2945416520021855,100,walking
1783069031278752500,1.8730611,0.0594790477983653,-0.4002870197981595,0.0636580870486795,-0.0601380467414855,0.3772349059581756,0.0482906401157379,-1.7514312873795628,-9.560339489948747,-1.3049020102359354,100,walking
1783069031288715500,1.8830241,-0.0048760816037654,-0.64301674875319,-0.0235040635757148,-0.1026516854763031,0.2956447005271911,0.002266155090183,-1.7493255472719669,-9.55882557825446,-1.3187449498884378,100,walking
1783069031298678500,1.8929871,-0.0056790685497224,-0.7994383135646581,-0.0992201065562665,-0.1349231749773025,0.2090620398521423,-0.0365985929965972,-1.7443327074207364,-9.55757820854187,-1.3343079913318157,100,walking
1783069031308642600,1.9029512,0.0343647725470364,-0.9121902479976416,-0.1861845426514744,-0.1680805832147598,0.1267783492803573,-0.0626139491796493,-1.7372404110722244,-9.556455341991782,-1.3514908890619872,100,walking
1783069031318605600,1.9129142,0.0233912508510053,-1.0871674601972103,-0.2720142756283283,-0.2236724495887756,0.0557827539741992,-0.0755106881260871,-1.7292600798428055,-9.55505891919732,-1.371455380334705,100,walking
1783069031328568600,1.9228772,-0.0126239192515611,-1.3230103522479533,-0.279138282289356,-0.2967469394207001,-0.0111352941021323,-0.0761336013674736,-1.7216759083241224,-9.552800326615571,-1.3965033123515544,100,walking
1783069031338531600,1.9328402,-0.1108826334297656,-1.5939374171614646,-0.3038442690007388,-0.3683591187000274,-0.0882927030324935,-0.0808000266551971,-1.714995261516422,-9.54942412818074,-1.4274625142388044,100,walking
1783069031348494600,1.9428032,-0.2535394383914768,-1.8561007453829048,-0.3508409979753196,-0.4360992908477783,-0.1639933139085769,-0.1073291078209877,-1.7079101255610585,-9.545236613363029,-1.4635145092204211,100,walking
1783069031358457600,1.9527662,-0.399132735196501,-2.0811422574341294,-0.4226612025611102,-0.4930218756198883,-0.2185121178627014,-0.1413920819759369,-1.698935814858228,-9.540461654046178,-1.504521496260911,100,walking
1783069031368420600,1.9627292,-0.6051511284783482,-2.2754051848620174,-0.4224969519101083,-0.5341245532035828,-0.2503110766410827,-0.1826495081186294,-1.6871471773870288,-9.535340073248744,-1.5495770280398429,100,walking
1783069031378383600,1.9726922,-0.6919644656650722,-2.341595274606347,-0.3333148397654294,-0.5528490543365479,-0.3111929595470428,-0.2201714068651199,-1.6721600361354647,-9.530203294882178,-1.596710827397555,100,walking
1783069031388346400,1.982655,-0.6059129066310822,-2.3621949950426817,-0.3758592655062675,-0.5538802146911621,-0.4026195406913757,-0.2339886873960495,-1.656158895535767,-9.5250162476331,-1.6436498348355293,100,walking
1783069031398309400,1.992618,-0.5291518846422434,-2.503891868931055,-0.5438403352081775,-0.5508202314376831,-0.4857652187347412,-0.2220701873302459,-1.6417904707044362,-9.519639230769872,-1.6886033675447103,100,walking
1783069031408272400,2.002581,-0.4451764012299478,-2.658950913217664,-0.6711022949002683,-0.555021345615387,-0.5561895966529846,-0.1907924264669418,-1.6310450586758554,-9.5136186553061,-1.7323767505586147,100,walking
1783069031418235600,2.0125442,-0.3954518547266721,-2.7831197292000054,-0.719073567995429,-0.5953545570373535,-0.6147488951683044,-0.1446973234415054,-1.62540383791849,-9.506317392382025,-1.777180937924981,100,walking
1783069031428199400,2.022508,-0.4529780148915946,-2.946433976134658,-0.720486211272329,-0.6670143604278564,-0.6625545024871826,-0.1049349978566169,-1.625488009070605,-9.496979070672392,-1.8263456585884088,100,walking
1783069031438162700,2.0324713,-0.6842616362027824,-3.068496175226569,-0.7193810265094042,-0.7602114081382751,-0.6994123458862305,-0.1119983345270156,-1.6280882546968758,-9.485500229802728,-1.88281690287292,100,walking
1783069031448125700,2.0424343,-1.0964771403342484,-3.013006927716732,-0.5961572362922132,-0.8588695526123047,-0.7092764377593994,-0.1717665791511535,-1.6284233318701389,-9.472305817186832,-1.9478313729666168,100,walking
1783069031458088700,2.0523973,-1.542216582274437,-2.6965684039503333,-0.3923987507663667,-0.9503809213638306,-0.6623168587684631,-0.2643584311008453,-1.6215709817573427,-9.4578950145185,-2.0221536235012114,100,walking
1783069031468051500,2.0623601,-1.913218617007881,-2.294477549600601,-0.1545198228433728,-1.032246708869934,-0.5688452124595642,-0.3659521639347076,-1.604611955910921,-9.442498707944154,-2.1059064040735365,100,walking
1783069031478014500,2.0723231,-2.1503619241327048,-1.9206395607888695,0.0941349122464656,-1.0901896953582764,-0.4523434638977051,-0.4618704617023468,-1.5766617265813052,-9.426229710188508,-2.1978899835050103,100,walking
1783069031487977500,2.0822861,-2.28830675201118,-1.4396797523856162,0.286811739526689,-1.1020615100860596,-0.330784797668457,-0.5573264360427856,-1.5376276470489798,-9.40949660205245,-2.295098165716976,100,walking
1783069031497940500,2.0922491,-2.285241373091191,-0.8355202652931213,0.4189291764259338,-1.0561877489089966,-0.2126443833112716,-0.6378666162490845,-1.4878706595808266,-9.393257414913178,-2.3923497486792504,100,walking
1783069031507903500,2.1022121,-2.148271819985658,-0.1683791291087865,0.5268935843214393,-0.9529897570610046,-0.1303103566169738,-0.702533483505249,-1.429114080838114,-9.37849882172048,-2.484302494581044,100,walking
1783069031517866500,2.1121751,-1.9010675759650768,0.5129863472610712,0.5980488952577113,-0.8313925266265869,-0.0808760449290275,-0.749016284942627,-1.3638754465997218,-9.366145536103843,-2.566232297509909,100,walking
1783069031527829800,2.1221384,-1.677024865692854,1.112479596108198,0.6251756793752312,-0.7131260633468628,-0.0205463916063308,-0.7834879755973816,-1.2935806980155409,-9.356313293397426,-2.6375018824756142,100,walking
1783069031537792500,2.1321011,-1.5861099384061992,1.6036019020855423,0.7334007840335369,-0.6087941527366638,0.0752744525671005,-0.7918512225151062,-1.2194452752899378,-9.348543828439713,-2.6996386051759123,100,walking
1783069031547756500,2.1420651,-1.5442802368059754,2.071907396098972,0.9483838434070349,-0.4852354824542999,0.1674850732088089,-0.7885076403617859,-1.14261250323914,-9.342948784911632,-2.752115519127249,100,walking
1783069031557719600,2.1520282,-1.4432221011675894,2.532968325811624,1.132899868324399,-0.3234301209449768,0.2362717986106872,-0.7682642936706543,-1.0644047165080903,-9.340281611528992,-2.792230964155495,100,walking
1783069031567682600,2.1619912,-1.1377119447812438,2.933773816525936,1.201282499676943,-0.1311639994382858,0.2345207631587982,-0.7069005370140076,-0.988788188379258,-9.34140564712286,-2.8161715194523333,100,walking
1783069031577645600,2.1719542,-0.8454075261224061,3.125625006636977,1.0835206281274556,0.0934618711471557,0.1977109163999557,-0.6148568987846375,-0.9210644593268632,-9.347107658156752,-2.82021494962424,100,walking
1783069031587608600,2.1819172,-0.6090578535933047,3.0950767236381767,0.9095470400124788,0.3329199850559234,0.161039724946022,-0.5074071288108826,-0.8636755156755447,-9.358008991399409,-2.802163452365994,100,walking
1783069031597571600,2.1918802,-0.4095584868166596,2.9756945574104785,0.8691846344858407,0.5646072626113892,0.1042906790971756,-0.3823289573192596,-0.8183677627012134,-9.374199078699943,-2.7613518417671323,100,walking
1783069031607534600,2.2018432,-0.277400571776554,2.827731608864665,0.846397633138299,0.7641052007675171,0.0220256317406892,-0.2535813450813293,-0.7869716307014226,-9.3948771250695,-2.6995097180992365,100,walking
1783069031617497300,2.2118059,-0.2814296080969274,2.478195117616653,0.7684507623657584,0.9063009023666382,-0.0705573111772537,-0.1424771100282669,-0.7691757887046784,-9.418685870680212,-2.6205150918394327,100,walking
1783069031627460400,2.221769,-0.358366936500743,2.032199655088782,0.7302876204490661,0.9963218569755554,-0.1707574278116226,-0.0421379841864109,-0.7636157434247434,-9.443899806913732,-2.5298297355249524,100,walking
1783069031637423600,2.2317322,-0.4545584159508347,1.6697370467722414,0.7016407871574163,1.024743676185608,-0.2604831159114837,0.0481500811874866,-0.7690283430580049,-9.468999176856874,-2.432499095977098,100,walking
1783069031647386600,2.2416952,-0.5278321803458035,1.3145558276355265,0.7236322542130946,0.98625510931015,-0.3286962807178497,0.1441245526075363,-0.78508815504238,-9.492250873106718,-2.334780480024964,100,walking
1783069031657349600,2.2516582,-0.602094298190996,0.8770119671106338,0.7503904972791672,0.8740778565406799,-0.3874703049659729,0.2498095780611038,-0.8118314928002655,-9.511999529671668,-2.2434747998550533,100,walking
1783069031667313700,2.2616223,-0.6723077982325106,0.3713146078139543,0.7812401013121009,0.6762105822563171,-0.4458428025245666,0.367338091135025,-0.8502548930883407,-9.526592703169584,-2.165986924896389,100,walking
1783069031677276700,2.2715853,-0.7677376456603408,-0.2075438492834568,0.7276084643676877,0.4052188396453857,-0.4823324382305145,0.4918831884860992,-0.9010209845338016,-9.534463874936105,-2.11011072389558,100,walking
1783069031687239700,2.2815483,-0.9831695447798818,-0.8759013755202293,0.6506688709415495,0.0938378125429153,-0.4964703619480133,0.581740140914917,-0.9624186523698268,-9.534685408732294,-2.081802621039003,100,walking
1783069031697198800,2.2915074,-1.2870757000356912,-1.418689571326971,0.6158294666200876,-0.2436515688896179,-0.476275622844696,0.6111693978309631,-1.02976331897676,-9.527151506096123,-2.084073634710908,100,walking
1783069031707161900,2.3014705,-1.6538948961265385,-1.6652496722251175,0.556642825897038,-0.5490993857383728,-0.4213852286338806,0.5614897608757019,-1.0952474524088205,-9.512531444591284,-2.1172133955076338,100,walking
1783069031717124900,2.3114335,-1.982918906830251,-1.4993255350530146,0.5890495962440967,-0.7900388240814209,-0.3360385596752167,0.442164659500122,-1.15109106631428,-9.49245487124622,-2.176854063608497,100,walking
1783069031727087900,2.3213965,-2.141381622080505,-0.9998042340427636,0.6240069278568029,-0.9591085314750672,-0.2467198669910431,0.2875588238239288,-1.191945566206798,-9.468841940468549,-2.256253909668326,100,walking
1783069031737051100,2.3313597,-2.034916658962518,-0.4016448641479015,0.5670885243266821,-1.0496599674224854,-0.1739721447229385,0.1648377925157547,-1.217755860898271,-9.443013087207078,-2.348823472294211,100,walking
1783069031747014100,2.3413227,-1.627765306352824,0.1062497129321098,0.4404167856127023,-1.078815460205078,-0.1499829143285751,0.0911545231938362,-1.2331561860606073,-9.415953230845927,-2.4473561811082063,100,walking
1783069031756977200,2.3512858,-1.071612602060288,0.5310545033931732,0.2235106492221355,-1.0289452075958252,-0.1645986437797546,0.0651712864637374,-1.2441789537258443,-9.38870282034874,-2.54453952113986,100,walking
1783069031766940000,2.3612486,-0.5128329102650284,0.9273942468702792,-0.0324056013032794,-0.9174330234527588,-0.164100632071495,0.062271099537611,-1.2543871901378034,-9.362764661493896,-2.633537947280705,100,walking
1783069031776903000,2.3712116,-0.0086952015005052,1.3171674714386463,-0.1068085158586502,-0.7624483108520508,-0.1498984694480896,0.0758271589875221,-1.2650199355721472,-9.33953809968531,-2.709820099711418,100,walking
1783069031786867000,2.3811756,0.4314136872068047,1.68721483579576,-0.0845180658563971,-0.5938193202018738,-0.1456387341022491,0.0985473841428756,-1.277015639922768,-9.319929143851995,-2.771016034430265,100,walking
1783069031796830000,2.3911386,0.7306481243245303,1.98524384264648,-0.1203770224839448,-0.4223511517047882,-0.1476901322603225,0.1362228989601135,-1.291789284554124,-9.304318317744135,-2.8162606590405104,100,walking
1783069031806793000,2.4011016,0.978352280691266,2.09033620223701,-0.1151952359318733,-0.2386444061994552,-0.1681922078132629,0.1837145090103149,-1.310996673849225,-9.292992621609567,-2.8446365664362907,100,walking
1783069031816756000,2.4110646,1.1385406506903468,2.0547861654281614,-0.1105824814394116,-0.063826285302639,-0.2147594690322876,0.2182182818651199,-1.3351643159002065,-9.286022782596945,-2.8561323584407567,100,walking
1783069031826719000,2.4210276,1.13395595324859,1.8981483275175093,-0.2139662835463881,0.1017807871103286,-0.2677009701728821,0.2131068706512451,-1.362153006721288,-9.2836618986845,-2.851060462003946,100,walking
1783069031836682000,2.4309906,1.0600221175096929,1.768469808202982,-0.2534881465956569,0.2424390763044357,-0.3072457313537597,0.1905830204486847,-1.389075062046945,-9.285814108282327,-2.830991779704392,100,walking
1783069031846645000,2.4409536,0.9013944209560752,1.6251818657308816,-0.1608969566598534,0.3456514775753021,-0.3153529167175293,0.1596530675888061,-1.4140525591760873,-9.291714272236824,-2.7990841910511253,100,walking
1783069031856608000,2.4509166,0.7272653500184416,1.3953887752383949,-0.0013712883532047,0.4026865065097809,-0.3104719221591949,0.1243950724601745,-1.435799403820932,-9.300144831451773,-2.7597420684829355,100,walking
1783069031866571000,2.4608796,0.6189911455214023,1.1813362747132778,0.1104246605291962,0.4298672676086426,-0.3115063011646271,0.1035297363996505,-1.4545673787854612,-9.309949601629375,-2.716512875348329,100,walking
1783069031876534000,2.4708426,0.6266251475311816,0.9351759867876768,0.1683104477867484,0.4321927428245544,-0.3338968455791473,0.1004781872034072,-1.4725263754546642,-9.320118528944253,-2.6715976288229224,100,walking
1783069031886497000,2.4808056,0.6747209237888455,0.622885814872384,0.1676370785698294,0.3966104984283447,-0.3621045053005218,0.1107814237475395,-1.4914428189791735,-9.329549205112455,-2.627828629723191,100,walking
1783069031896460000,2.4907686,0.7381327809914946,0.3532382683753967,0.2016968768209218,0.3218599855899811,-0.3774783909320831,0.1289287358522415,-1.512208105240762,-9.337180722904204,-2.588566294392943,100,walking
1783069031906422800,2.5007314,0.6976449955195189,0.1237532209187746,0.3253568664982915,0.2062998414039611,-0.36534184217453,0.1517557501792907,-1.5348676808163524,-9.341879694375397,-2.558100136719644,100,walking
1783069031916387000,2.5106956,0.55244727390334,-0.135533675083518,0.5238181223988533,0.0587479546666145,-0.3559168577194214,0.1641784757375717,-1.5587601591877638,-9.342811422267555,-2.5401848330616947,100,walking
1783069031926349800,2.5206584,0.4393602622970938,-0.325408012163639,0.6769844848066568,-0.1237379610538482,-0.3662219643592834,0.1676672250032425,-1.5833398891709745,-9.339385539472104,-2.5375784499555825,100,walking
1783069031936312800,2.5306214,0.3571605563856661,-0.4489683408588171,0.7222153731524944,-0.3164375722408294,-0.3853151500225067,0.1618152260780334,-1.6082807075515388,-9.331195218753814,-2.5519842841878533,100,walking
1783069031946275800,2.5405844,0.2428919337794184,-0.6019231063425541,0.7291980716466904,-0.5141815543174744,-0.3785869479179382,0.1523343622684478,-1.6325763598963616,-9.318002559703588,-2.584555012924969,100,walking
1783069031956239000,2.5505476,0.1614154275760054,-0.6910153482466935,0.7801306787654757,-0.6865118145942688,-0.3487781286239624,0.1478898376226425,-1.6559961061894892,-9.299839126503468,-2.634589794421196,100,walking
1783069031966202000,2.5605106,0.1030628995895385,-0.7309270873963832,0.8208657169967889,-0.8166525363922119,-0.3054391741752624,0.1370901763439178,-1.6778491876877843,-9.27743440247178,-2.698967281785607,100,walking
1783069031976165000,2.5704736,0.076369100061804,-0.716268447446823,0.8024702286064624,-0.8980635404586792,-0.2512058913707733,0.1335508972406387,-1.6978421744026242,-9.251690304884312,-2.773796020537614,100,walking
1783069031986128000,2.5804366,0.124906774868071,-0.6818284177064895,0.7556263521060347,-0.9381089210510254,-0.1879965513944625,0.148542895913124,-1.7170508788719772,-9.223433932214975,-2.854892587512732,100,walking
1783069031996091000,2.5903996,0.2143131972879171,-0.6860100873053073,0.7433274270251393,-0.9397695660591124,-0.104144163429737,0.167742908000946,-1.735828060056269,-9.193513425725698,-2.938810057127476,100,walking
1783069032006054000,2.6003626,0.3195594322659075,-0.6844383079439401,0.6865788271039724,-0.8864163160324097,-0.0263636168092489,0.1858156621456146,-1.7536863728299736,-9.163212395486235,-3.021673633775115,100,walking
1783069032016017000,2.6103256,0.4190285451471805,-0.7157733574062586,0.5789589948624372,-0.7734920978546143,-0.0036903703585267,0.2011863589286804,-1.7717524831354616,-9.134421185287833,-3.0973598661392927,100,walking
1783069032025980000,2.6202886,0.5366179827392101,-0.7552414444416761,0.4188327303141355,-0.6005581021308899,-0.0468468926846981,0.1992278695106506,-1.7907305937193334,-9.109318892735242,-3.159745010642707,100,walking
1783069032035944000,2.6302526,0.6069529172033071,-0.86185648355484,0.2098582637056708,-0.3991561233997345,-0.1022593006491661,0.1691424548625946,-1.8100391053013505,-9.090091045174002,-3.203807439731061,100,walking
1783069032045907000,2.6402156,0.4925288117744028,-1.079275245642662,-0.0155874452322721,-0.2135532200336456,-0.1118112578988075,0.0980301946401596,-1.8259494988776743,-9.077826022362707,-3.2294533376410604,100,walking
1783069032055870000,2.6501786,0.222525875968486,-1.2341425667494534,0.0530547138392925,-0.0805882513523101,-0.0446801595389843,0.0001688792253844,-1.833075551365316,-9.072297029808164,-3.2409339320763944,100,walking
1783069032065833000,2.6601416,-0.1179600244700908,-1.292665482866764,0.4200149258360266,0.0085317669436335,0.0333894863724708,-0.0886046141386032,-1.828974984178692,-9.07198431059718,-3.244125713855028,100,walking
1783069032075796000,2.6701046,-0.314144421479851,-1.320111123675108,0.6797758690908551,0.0738400369882583,0.09419447183609,-0.164751186966896,-1.8151986800216136,-9.075663291370867,-3.241572229979932,100,walking
1783069032085759000,2.6800676,-0.3066261548042297,-1.4736767145335674,0.7324152801275253,0.135829895734787,0.1363070458173751,-0.2005491405725479,-1.7947347147941588,-9.082358405095338,-3.2342060851261016,100,walking
1783069032095722000,2.6900306,-0.1075391682207584,-1.7377444150716066,0.6727826492026447,0.2057783603668213,0.1479029506444931,-0.216057613492012,-1.771160654722154,-9.091527799978852,-3.221410316438973,100,walking
1783069032105685000,2.6999936,0.1180801437184214,-1.9161703064203264,0.5531631670877337,0.2853978276252746,0.1045251116156578,-0.2274167984724044,-1.747034805986285,-9.103291887530684,-3.201299548563361,100,walking
1783069032115648000,2.7099566,0.3198090231128037,-2.024918850430846,0.3912342370316386,0.3662740588188171,-0.0083481082692742,-0.250027447938919,-1.7237090215869246,-9.117844729018213,-3.1723984482496976,100,walking
1783069032125611000,2.7199196,0.4282914635330438,-2.099293415674567,0.138698568855226,0.4377298653125763,-0.1677577346563339,-0.2399646937847137,-1.7038022518508136,-9.134749102067946,-3.134293466261029,100,walking
1783069032135573800,2.7298824,0.4310219114102423,-2.212369175234437,-0.0344084655582904,0.4826307296752929,-0.321147084236145,-0.1742339134216308,-1.6923172735013066,-9.152606830319762,-3.0880791198357938,100,walking
1783069032145537000,2.7398456,0.2675200329490005,-2.508798345673084,-0.2004454154551029,0.4913624227046966,-0.4453859329223633,-0.0636338964104652,-1.6932672677025198,-9.169518802154064,-3.036964141887426,100,walking
1783069032155500800,2.7498094,-0.12191066179201,-3.019863954004645,-0.3913502646267414,0.4760823547840118,-0.5253922939300537,0.0330904386937618,-1.7068103476256131,-9.18427973343432,-2.984324438589811,100,walking
1783069032165463800,2.7597724,-0.8263980705522,-3.4114246465116738,-0.5219271940857172,0.4869531095027923,-0.564520537853241,0.0598373636603355,-1.7277661880232391,-9.197488759097457,-2.931110442535579,100,walking
1783069032175427000,2.7697356,-1.662161204690486,-3.381912136301398,-0.528509202824533,0.5138840675354004,-0.5795641541481018,-0.0244947131723165,-1.746583262826502,-9.211588011598586,-2.8751471477732062,100,walking
1783069032185390000,2.7796986,-2.472948741395771,-3.0095348676919937,-0.4817293314710259,0.5097655057907104,-0.5876689553260803,-0.2190325111150741,-1.7525177674420176,-9.22812647394538,-2.817929469035566,100,walking
1783069032195353000,2.7896616,-3.1106738134816285,-2.500454295697808,-0.4097542285844683,0.4578745365142822,-0.569995105266571,-0.4682521224021911,-1.7372852731272577,-9.2475933909595,-2.763011591672897,100,walking
1783069032205316000,2.7996246,-3.4997757146596906,-1.9373627320528028,-0.2376955341801047,0.3341978788375854,-0.4865934252738952,-0.718336284160614,-1.696839134839922,-9.268699307352303,-2.717048881921172,100,walking
1783069032215278800,2.8095874,-3.713961778436601,-1.2907973509073256,0.1638765569925308,0.1903909891843795,-0.3514859974384308,-0.9100958108901978,-1.6324401662960648,-9.289329422926905,-2.685868438498676,100,walking
1783069032225241900,2.8195505,-3.574523204869032,-0.4993289933085441,0.6593599807888268,0.0595110021531581,-0.2495990246534347,-1.0330846309661863,-1.5498165358841418,-9.308069194710257,-2.669890532644093,100,walking
1783069032235204900,2.8295135,-3.0217198110044,0.3019453035116195,0.8954249911576508,-0.0390619188547134,-0.2295822948217392,-1.0639458894729614,-1.4581309164859353,-9.324045346999169,-2.6657877735003828,100,walking
1783069032245167900,2.8394765,-2.345937541594356,1.001312300518155,0.7915747405827045,-0.0867788419127464,-0.2734240591526031,-1.0194244384765625,-1.3676188709117472,-9.337024655559658,-2.6683295669376847,100,walking
1783069032255131000,2.8494396,-1.7497341280728578,1.6321218941271305,0.6235355109527707,-0.079370878636837,-0.3185987472534179,-0.926166296005249,-1.2847669847019016,-9.347588135150074,-2.6725235114961863,100,walking
1783069032265094100,2.8594027,-1.2468775451600551,2.1033605189830062,0.6164791627004742,-0.0197011567652225,-0.3690352737903595,-0.8150866627693176,-1.21271560170874,-9.357042776715756,-2.673098096513748,100,walking
1783069032275057200,2.8693658,-0.938256051820144,2.4066946465045214,0.5183171868950128,0.0709762498736381,-0.4487175345420837,-0.7103036642074585,-1.1526303316455333,-9.36663887257874,-2.6660657136589285,100,walking
1783069032285021200,2.8793298,-0.8410970425121486,2.600920749053359,0.3340858241379261,0.1664657592773437,-0.5316515564918518,-0.6202473044395447,-1.1035931828845291,-9.377259635314346,-2.649428759373724,100,walking
1783069032294984000,2.8892926,-0.951030704654008,2.6986738517969844,0.320189692993462,0.2586958408355713,-0.6057652235031128,-0.5690966248512268,-1.0632413718171416,-9.389271560147405,-2.6232623447209598,100,walking
1783069032304947000,2.8992556,-1.2906781084418295,2.6714690340071914,0.3634977965831756,0.3173008263111114,-0.6595349311828613,-0.560867965221405,-1.0270585900627076,-9.402617363932729,-2.5896564277172085,100,walking
1783069032314910000,2.9092186,-1.6088694672249255,2.6550463069945573,0.4718158402219414,0.3586931228637695,-0.7160032987594604,-0.5761592984199524,-0.9915325917165726,-9.417018814250826,-2.55088041459918,100,walking
1783069032324873000,2.9191816,-1.7800237601354718,2.642735691475868,0.5635416455000639,0.3694541454315185,-0.7714476585388184,-0.5720005035400391,-0.9562496083460748,-9.431793774056434,-2.509428752531111,100,walking
1783069032334836000,2.9291446,-1.810214315737784,2.480558339616656,0.5880635078161954,0.3469337821006775,-0.8272280693054199,-0.5273133516311646,-0.9241136908296496,-9.445889519426226,-2.4681106537148354,100,walking
1783069032344799000,2.9391076,-1.71863566384539,2.1458763031512498,0.5510007283568382,0.3147364556789398,-0.8734062314033508,-0.438100665807724,-0.8991245763279497,-9.458366723683476,-2.4292516384884717,100,walking
1783069032354762000,2.9490706,-1.6134207007884978,1.7736925112873314,0.5037915256753563,0.2623648941516876,-0.954821527004242,-0.3224603831768036,-0.885227860661596,-9.468656062507629,-2.3940137363687155,100,walking
1783069032364725000,2.9590336,-1.5209537217542528,1.5003975481987,0.4124839458093047,0.2044414430856704,-1.0690926313400269,-0.2166982591152191,-0.8838721352037042,-9.476529572361708,-2.363159602291137,100,walking
1783069032374688000,2.9689966,-1.586262352488935,1.2377449751555918,0.2228773197546601,0.1610747426748275,-1.1753954887390137,-0.1355453878641128,-0.8936818007521331,-9.482328614029289,-2.3360597061805426,100,walking
1783069032384651000,2.9789596,-1.7629126124672592,0.995090649524331,0.113338209888339,0.1245609372854232,-1.261663794517517,-0.0816739052534103,-0.9118597008690238,-9.48657575007975,-2.3116638083316383,100,walking
1783069032394614000,2.9889226,-1.941041566696018,0.8138865256339312,0.0669195730626583,0.0960536822676658,-1.3320090770721436,-0.0252892561256885,-0.9366392642732708,-9.489575516417622,-2.28933741023317,100,walking
1783069032404578000,2.9988866,-2.1525310848653314,0.5575841984003782,-0.0901028802514076,0.067873440682888,-1.3863879442214966,0.0331503488123416,-0.9680116500712932,-9.491398640191557,-2.2686349600747224,100,walking
1783069032414541000,3.0088496,-2.369555879199505,0.1058563297003507,-0.253967162284255,0.0240708701312541,-1.415894865989685,0.0755924955010414,-1.0049220154479146,-9.491875025531648,-2.250517119581997,100,walking
1783069032424504000,3.0188126,-2.615361946859956,-0.4082522995889187,-0.3951467343002557,-0.0456799827516078,-1.4123151302337646,0.0794921591877937,-1.0441755098845809,-9.490873739534615,-2.2368293704912063,100,walking
1783069032434467000,3.0287756,-2.9091508319228887,-0.8006570417046547,-0.378804963569343,-0.1413061171770095,-1.3821415901184082,0.0466931611299514,-1.081534568876773,-9.488126486653089,-2.230725354527682,100,walking
1783069032444429800,3.0387384,-3.167081929402053,-0.8956254821658134,-0.2674490135394036,-0.2489942163228988,-1.333041787147522,-0.0245075151324272,-1.1128528863999991,-9.48368704290092,-2.234192153855413,100,walking
1783069032454392800,3.0487014,-3.2643899187266823,-0.7513356691747903,-0.0972013140797615,-0.365510493516922,-1.279781937599182,-0.1145786345005035,-1.1354044715564695,-9.477591648635268,-2.2486671078011398,100,walking
1783069032464355800,3.0586644,-3.191535987178981,-0.567359157961607,0.0182547647453844,-0.4747288525104522,-1.2355694770812988,-0.1794055849313736,-1.149749880838394,-9.469732751828433,-2.2743406243704256,100,walking
1783069032474319000,3.0686276,-2.887480267384648,-0.3469751163274049,0.0665104077398777,-0.5540886521339417,-1.219776630401611,-0.1973059028387069,-1.159768147636205,-9.460123796483874,-2.308979391553253,100,walking
1783069032484282000,3.0785906,-2.4489514874756333,-0.0500625462859869,0.0592228810802102,-0.6094943881034851,-1.2118295431137085,-0.1800270527601242,-1.170033959454298,-9.448781733736396,-2.349875465565175,100,walking
1783069032494245000,3.0885536,-1.976005766440928,0.2612339384168386,0.0274393571980297,-0.6272550225257874,-1.211870789527893,-0.1490910947322845,-1.1831433241352438,-9.436113390821218,-2.393808276924491,100,walking
1783069032504208000,3.0985166,-1.524589594038576,0.609442980453372,0.051544893798232,-0.6261101365089417,-1.2269375324249268,-0.1263737976551056,-1.1995629824079572,-9.422648929092288,-2.4382645276360213,100,walking
1783069032514171000,3.1084796,-1.1692319223564118,0.9601081834703684,0.0910036284834146,-0.6080119013786316,-1.245788812637329,-0.1131081730127334,-1.218684958441928,-9.408945397910475,-2.4813144186809657,100,walking
1783069032524134000,3.1184426,-0.883978445122391,1.3056582354307174,0.1440396376222372,-0.5760997533798218,-1.2606409788131714,-0.1091405972838401,-1.239677989044785,-9.395514838451149,-2.521481009374559,100,walking
1783069032534098000,3.1284066,-0.6462146680116653,1.578947937822342,0.1944131495535373,-0.5257124304771423,-1.2676061391830444,-0.098751313984394,-1.2619642012633383,-9.382848249101638,-2.557340842784941,100,walking
1783069032544061000,3.1383696,-0.4615292778767645,1.7031839738219976,0.2263739296987652,-0.4641672670841217,-1.264487385749817,-0.0732568800449371,-1.2863874255105852,-9.371212171843649,-2.5876550247669217,100,walking
1783069032554024000,3.1483326,-0.2648413152590393,1.7752777346521615,0.265597394323349,-0.3892200887203216,-1.2784347534179688,-0.0419230423867702,-1.3139853342711925,-9.36085619752407,-2.611166833257675,100,walking
1783069032563987000,3.1582956,-0.0536050411984324,1.7607120336830615,0.1852314797103404,-0.2946712076663971,-1.3140710592269895,-0.0150978192687034,-1.345207424878329,-9.35227716974914,-2.6259707268968224,100,walking
1783069032573950000,3.1682586,0.1027409741587936,1.6618717202246187,0.060314183448255,-0.2010850012302398,-1.360283136367798,-0.0076806652359664,-1.3792995179638263,-9.345913479936122,-2.630938870698213,100,walking
1783069032583913000,3.1782216,0.1764025688275694,1.5396411788284778,-0.03658201020509,-0.1100126132369041,-1.3758962154388428,-0.0165324807167053,-1.414055627916008,-9.342046283113955,-2.626219440960884,100,walking
1783069032593876000,3.1881846,0.2010974496230483,1.3854454733729362,0.0248293208301067,-0.0473474748432636,-1.3803972005844116,-0.0290371570736169,-1.447878110279888,-9.340330126845837,-2.613859433342516,100,walking
1783069032603839000,3.1981476,0.2366426641263067,1.2845447202533482,0.1406207690894603,-0.005561682395637,-1.4071907997131348,-0.0462411753833293,-1.4804302804470062,-9.340285118660333,-2.59572522623688,100,walking
1783069032613802000,3.2081106,0.2730572088100016,1.1472189010560512,0.1761030013591051,0.0192933343350887,-1.4418262243270874,-0.0710224285721778,-1.5116075089991092,-9.341374082940815,-2.573746618662774,100,walking
1783069032623765000,3.2180736,0.3700463414438069,0.9583750760674477,0.1449319102868437,0.0367434322834014,-1.4903240203857422,-0.0842183902859687,-1.5417087788827717,-9.343318787267805,-2.5487106693446635,100,walking
1783069032633728000,3.2280366,0.4197653349891305,0.7453162627547979,0.1458516554802656,0.0323963612318038,-1.531466722488403,-0.0910907238721847,-1.5716756087318062,-9.345587901243569,-2.521947165581584,100,walking
1783069032643691000,3.2379996,0.3972637264542281,0.5665536867976189,0.1745332678243517,0.0033159728627651,-1.5740033388137815,-0.0943704098463058,-1.6018459983289242,-9.347586381584405,-2.4954122098773714,100,walking
1783069032653653800,3.2479624,0.4168304505810141,0.386790993887186,0.2202849651739001,-0.0426855608820915,-1.629772067070007,-0.100561112165451,-1.6324861973948777,-9.348735551619528,-2.4711335086673496,100,walking
1783069032663617800,3.2579264,0.363703109896928,0.1735655918359756,0.1522194369465112,-0.1026303842663765,-1.6867440938949585,-0.1364679783582687,-1.662407580666989,-9.348894541573523,-2.450503539223224,100,walking
1783069032673580800,3.2678894,0.2491993633605539,-0.0378951386302709,0.0968742740824818,-0.1683457046747207,-1.7400676012039185,-0.1993477344512939,-1.6885637661866844,-9.348424001452326,-2.4343635746747254,100,walking
1783069032683543800,3.2778524,0.1046440313011407,-0.1361667122900486,0.1567056424498558,-0.2474794238805771,-1.7878525257110596,-0.279369056224823,-1.7089089273400604,-9.347415701192617,-2.4240146146178243,100,walking
1783069032693507000,3.2878156,0.0263891174927353,-0.1435527308881282,0.2049234376519918,-0.3306494057178497,-1.8459023237228396,-0.3306179344654083,-1.7240280244082211,-9.34571532701552,-2.4198589562430977,100,walking
1783069032703473400,3.297782,0.0027433073587715,-0.2681605228096246,0.1683002186536789,-0.4054895639419555,-1.9074466228485107,-0.3570758998394012,-1.7371929186686872,-9.3427634914726,-2.421842385145277,100,walking
1783069032713436400,3.307745,0.0103692721925675,-0.4993588039249181,0.0306461904153227,-0.4615998566150665,-1.9843465089797971,-0.3678825795650482,-1.7505048201844096,-9.338564286217093,-2.42843871467039,100,walking
1783069032723399400,3.317708,0.0412765977621078,-0.6831336550861596,-0.1691775860100984,-0.5019581913948059,-2.069863557815552,-0.3731889128684997,-1.76525157680884,-9.333308265385032,-2.43795853042677,100,walking
1783069032733362400,3.327671,-0.0375147610105574,-0.8308370759129524,-0.3690355569660663,-0.5442394018173218,-2.1334402561187744,-0.3763690292835235,-1.7816295878969133,-9.327162017714976,-2.449538493583351,100,walking
1783069032743325200,3.3376338,-0.2004468767598271,-0.9742612119853497,-0.4691396067500114,-0.5789185166358948,-2.187037944793701,-0.3868301808834076,-1.7991607145428656,-9.320207376271483,-2.4631591687873,100,walking
1783069032753288200,3.3475968,-0.4000121483795344,-1.181509293192625,-0.5862044359460473,-0.6176832914352417,-2.2336440086364746,-0.405409574508667,-1.816869097451865,-9.312577027523515,-2.4789725317299363,100,walking
1783069032763251200,3.3575598,-0.6440870083332061,-1.4053776698112488,-0.7298232178077101,-0.6549558043479919,-2.2769057750701904,-0.4423779845237732,-1.8336125808514652,-9.304486075526476,-2.496962069667876,100,walking
1783069032773214500,3.3675231,-0.8743589683838188,-1.5939268957674502,-0.8416071839913726,-0.7038128972053528,-2.300599336624145,-0.486487329006195,-1.8479976645566525,-9.295949133327603,-2.518056295622885,100,walking
1783069032783178200,3.3774868,-1.0737293019533156,-1.6254168435305356,-0.8933040534809231,-0.7502967715263367,-2.2982494831085205,-0.5572267770767212,-1.8578204087823629,-9.287204101336002,-2.542975632824004,100,walking
1783069032793141200,3.3874498,-1.2521435028642416,-1.535576998129487,-0.8545181034907698,-0.7809150218963623,-2.2750887870788574,-0.6365998387336731,-1.8607672758892175,-9.278732041066885,-2.571584472192824,100,walking
1783069032803104500,3.3974131,-1.2869427213057876,-1.3443985927134752,-0.768719934695959,-0.7609951496124268,-2.26017427444458,-0.7027080059051514,-1.8570928251601757,-9.271192293211817,-2.601268539577722,100,walking
1783069032813067500,3.4073761,-1.12566655607,-1.1357646101057528,-0.7660463315725327,-0.7155775427818298,-2.2602627277374268,-0.7241392731666565,-1.8500268322966995,-9.265096314424277,-2.627884159302712,100,walking
1783069032823030300,3.4173389,-0.8217809321455657,-1.069625373765826,-0.8741343658477068,-0.6543035507202148,-2.263458728790283,-0.7148488163948059,-1.843115007081628,-9.260307326582074,-2.649531635226309,100,walking
1783069032832993300,3.4273019,-0.5723290553286672,-1.1403151130169629,-0.913972455239296,-0.5882450342178345,-2.251970052719116,-0.6960942149162292,-1.83788397456035,-9.256804871419073,-2.665359026694297,100,walking
1783069032842956300,3.4372649,-0.422117012681812,-1.1133137088447809,-0.8039473154217004,-0.4789781868457794,-2.215319395065308,-0.6823669672012329,-1.8338195016004144,-9.255226077795028,-2.6736305959552524,100,walking
1783069032852919300,3.4472279,-0.3507346149913966,-0.9477671728134156,-0.5464975717186927,-0.3341817557811737,-2.171358585357666,-0.6853945255279541,-1.8291858504503964,-9.2567692155838,-2.671458804874122,100,walking
1783069032862882300,3.4571909,-0.2580196525454521,-0.7174035889565944,-0.2534390467569232,-0.1312009543180465,-2.156585454940796,-0.6916042566299438,-1.823140140545368,-9.262976838052271,-2.6540198865562674,100,walking
1783069032872845300,3.4671539,-0.1305579324975609,-0.4458382261395454,-0.0673778382241725,0.0929909497499466,-2.1796886920928955,-0.7111260890960693,-1.815628888132423,-9.275069426906107,-2.616672152675688,100,walking
1783069032882808300,3.4771169,-0.0967152841284871,-0.232262110954523,0.0033621699094772,0.3201881349086761,-2.191251516342163,-0.7613735198974609,-1.804131342562288,-9.293667744392156,-2.557975633557141,100,walking
1783069032892771300,3.4870799,-0.1431448807395994,-0.0543693035691976,0.2084092339411377,0.4909589290618896,-2.1855454444885254,-0.8090778589248657,-1.7861323061436414,-9.318031785798071,-2.480805300115049,100,walking
1783069032902734300,3.4970429,-0.2239789973862469,0.1406798058003187,0.5288838813558221,0.5742205381393433,-2.1658709049224854,-0.8338476419448853,-1.7624601925246417,-9.34563583203852,-2.3923206687152385,100,walking
1783069032912697300,3.5070059,-0.2941951277762651,0.1985696847110986,0.7863346479721367,0.5650799870491028,-2.1373276710510254,-0.8274344205856323,-1.7351896160222589,-9.373598774719238,-2.301115672440827,100,walking
1783069032922661400,3.51697,-0.3497068793788552,0.1214496201515197,1.0461369461506604,0.4541273713111877,-2.120051145553589,-0.7932666540145874,-1.7070618381686509,-9.399130690860748,-2.2164530835472047,100,walking
1783069032932624400,3.526933,-0.3550068854831159,0.1096259113669395,1.2688964847445487,0.260893315076828,-2.116225481033325,-0.7320773601531982,-1.6814114102140068,-9.419927979695796,-2.146670668399334,100,walking
1783069032942587400,3.536896,-0.4316824211455881,0.0653863721460104,1.3837404230207204,0.0355589911341667,-2.0973381996154785,-0.6531223654747009,-1.6609993213042615,-9.434645656356215,-2.0973617169596253,100,walking
1783069032952550400,3.546859,-0.5124418651208281,-0.0090174191921949,1.4949097644373774,-0.2167309075593948,-2.072938919067383,-0.5738944411277771,-1.64667911952883,-9.44284065324962,-2.071612797066569,100,walking
1783069032962513400,3.556822,-0.6232125626087188,0.1041238068193197,1.52535560997501,-0.4515969455242157,-2.045997142791748,-0.4925017952919006,-1.6390085849009453,-9.44465208658576,-2.0694380833759904,100,walking
1783069032972476200,3.5667848,-0.8121754839323461,0.2107709946364164,1.4901660770416258,-0.6471636295318604,-2.015344619750977,-0.4232573509216308,-1.6379907861605283,-9.44071766974628,-2.0881183800570664,100,walking
1783069032982439200,3.5767478,-1.0114482023462652,0.2825198875516653,1.3817998103469609,-0.8039785623550415,-1.9941372871398928,-0.3753944933414459,-1.6426739755406974,-9.431961531838772,-2.123702757526934,100,walking
1783069032992402400,3.586711,-1.2382992480374873,0.3439157287567854,1.120436838722974,-0.918659508228302,-1.9717857837677,-0.3544540405273437,-1.6510530968293546,-9.41943581226468,-2.1722394094198942,100,walking
1783069033002365400,3.596674,-1.4674867738522588,0.3179623723328113,0.933483795917034,-0.990012526512146,-1.9246363639831543,-0.3644313216209411,-1.6603880575381218,-9.40440658543706,-2.229494643688947,100,walking
1783069033012328400,3.606637,-1.6866081020742654,0.3333949192643165,0.8924738862670958,-1.0280598402023315,-1.8457189798355105,-0.4038679599761963,-1.6672192187324166,-9.387965738245844,-2.29278243612051,100,walking
1783069033022291500,3.6166001,-1.8863355785183609,0.4432435334712267,0.9397779276251792,-1.065175175666809,-1.7680341005325315,-0.4827281534671783,-1.6678567859835922,-9.371071886590125,-2.3604374838508666,100,walking
1783069033032254200,3.6265628,-1.9737397212050851,0.5786515363484621,0.9493630637027324,-1.0900574922561646,-1.725994110107422,-0.5753099322319031,-1.6600597023665904,-9.354148224318028,-2.43197244175449,100,walking
1783069033042217200,3.6365258,-1.8993360759973523,0.7804922055542468,0.8831134988561272,-1.0744763612747192,-1.6958407163619995,-0.6360995173454285,-1.6454291194677353,-9.337517992034554,-2.504735918539762,100,walking
1783069033052180200,3.6464888,-1.793385199881345,0.9888327581733464,0.8546195180386305,-1.0197064876556396,-1.6577770709991455,-0.6546947956085205,-1.627629843404889,-9.321552361139654,-2.5748528263390065,100,walking
1783069033062144300,3.6564529,-1.6184142712920904,1.1702899800419806,0.935097368593514,-0.9348446726799012,-1.6289364099502563,-0.6651368141174316,-1.6089695665985344,-9.306834099957346,-2.6390210548669097,100,walking
1783069033072107300,3.6664159,-1.3557957466490569,1.3517156377285715,1.0323320004209875,-0.8502618670463562,-1.6470149755477903,-0.6772304773330688,-1.590269103912264,-9.293880510360005,-2.6954043286070224,100,walking
1783069033082070300,3.6763789,-1.114167695325613,1.5360639048635958,1.0444345261469483,-0.7802854180335999,-1.6881424188613892,-0.6933940052986145,-1.571826999901235,-9.282652429381011,-2.7444670502007007,100,walking
1783069033092033300,3.6863419,-0.9485362574897706,1.6465794585466385,1.0760811257764695,-0.7039294838905334,-1.713143825531006,-0.6817095279693604,-1.5549005611501634,-9.272859349641204,-2.78688784956187,100,walking
1783069033101996500,3.6963051,-0.8689742066055536,1.6662147178649902,1.211558394497633,-0.6082780957221985,-1.7160983085632324,-0.6259881854057312,-1.542435631852597,-9.264512961578369,-2.821359735745192,100,walking
1783069033111959300,3.7062679,-0.86709248451218,1.5457178683936594,1.2569959113314748,-0.4805339574813843,-1.7212053537368774,-0.5581777095794678,-1.5362367772124708,-9.25818843473196,-2.8453987829804417,100,walking
1783069033121922300,3.7162309,-0.8662447816416621,1.2292056948691603,1.1631269565448163,-0.3235595226287842,-1.762495517730713,-0.4918871223926544,-1.5372345560781655,-9.25472046636045,-2.856127682265639,100,walking
1783069033131885300,3.7261939,-0.897399798361957,0.8206593807697296,0.9647200611799954,-0.1561817228794098,-1.8373186588287356,-0.4541912674903869,-1.5449851702049373,-9.25513255429268,-2.850602781364321,100,walking
1783069033141848300,3.7361569,-1.0295182581745088,0.4524947614192962,0.8222098250821233,-0.0170299522578716,-1.9357774257659912,-0.4598547518253326,-1.5563690262675285,-9.259714621385932,-2.829448641915619,100,walking
1783069033151811300,3.7461199,-1.2260171279609202,0.1627244643479585,0.8046206846386194,0.0867180526256561,-2.0426273345947266,-0.4938373267650604,-1.5683156307794153,-9.268172653129696,-2.794950452247262,100,walking
1783069033161774300,3.7560829,-1.507299874933064,-0.0758241795301437,0.8097329130858183,0.1379024088382721,-2.112018585205078,-0.5524939894676208,-1.577628964178264,-9.279518807530405,-2.7517297346800564,100,walking
1783069033171737300,3.7660459,-1.7213132124915718,-0.3123708359360694,0.913347601339221,0.1433895528316497,-2.1476528644561768,-0.5819784998893738,-1.5828348622582853,-9.292418036592004,-2.704808993551135,100,walking
1783069033181700400,3.776009,-1.836412294572592,-0.5721376244097948,1.0589154714420437,0.0869547799229621,-2.1445608139038086,-0.5652672052383423,-1.5868471666395665,-9.304691827231643,-2.6598876095458865,100,walking
1783069033191663400,3.785972,-1.899099052371085,-0.8995482085675001,1.2402467288434504,-0.026183795183897,-2.1341118812561035,-0.5309274792671204,-1.5922455185517668,-9.314265711262822,-2.622898479844629,100,walking
1783069033201627100,3.7959357,-1.8208190041214227,-1.147677750739455,1.3819076546356082,-0.1712571084499359,-2.1190288066864014,-0.5059872269630432,-1.5994475588850676,-9.31992037602365,-2.598311151076853,100,walking
1783069033211590400,3.805899,-1.732338025983423,-1.1022457868635651,1.4692232422560452,-0.3158832788467407,-2.099825859069824,-0.5053813457489014,-1.607124230992794,-9.321659328645469,-2.587316002070904,100,walking
1783069033221553400,3.815862,-1.5747499016106128,-0.805872730526328,1.645233596895635,-0.4345635771751404,-2.0744221210479736,-0.5242605209350586,-1.6132793926216662,-9.32025472254455,-2.5885493432581423,100,walking
1783069033231516400,3.825825,-1.2854371390484272,-0.4309779261380433,1.8181611830890176,-0.5349391102790833,-2.076887369155884,-0.5417491793632507,-1.617382736287266,-9.316265945169327,-2.6003175224632025,100,walking
1783069033241479400,3.835788,-0.9697168465539812,-0.1571469564765691,1.8054867026939987,-0.6016587615013123,-2.0936100482940674,-0.5544636845588684,-1.6206594198703763,-9.310273426756265,-2.6196646124899385,100,walking
1783069033251442400,3.845751,-0.5816137471549213,0.0866869343280792,1.7279516275927422,-0.6198563575744629,-2.1121785640716557,-0.5525996685028076,-1.624343661341071,-9.303165640577673,-2.64253607725054,100,walking
1783069033261405200,3.8557138,-0.1638131363674998,0.3457306692242622,1.6489795054256915,-0.5949962735176086,-2.1212375164031982,-0.5243473052978516,-1.6301920951083302,-9.295855025303362,-2.6645699221432206,100,walking
1783069033271368200,3.8656768,0.2461976973265409,0.5567763891488313,1.5243305047109723,-0.5325206518173218,-2.1416115760803223,-0.4661753177642822,-1.6409696558408438,-9.288878172028063,-2.6822262826040384,100,walking
1783069033281331200,3.8756398,0.6259180221751331,0.6399760658830403,1.3911176737904547,-0.4396980106830597,-2.1777706146240234,-0.3942867517471313,-1.6588662547983228,-9.282894421443345,-2.691917655535042,100,walking
1783069033291294500,3.8856031,0.942216699079424,0.6861854438722134,1.2017273208349943,-0.3313734829425812,-2.2262518405914307,-0.3227094709873199,-1.684718488935381,-9.278526289361714,-2.690920461191237,100,walking
1783069033301257500,3.8955661,1.131290095040202,0.6699187842041253,0.9905889541909098,-0.2217362076044082,-2.240859270095825,-0.2614469230175018,-1.7177197180442512,-9.276025704717636,-2.678650469943881,100,walking
1783069033311220500,3.9055291,1.167584082084149,0.5667004017919302,0.8955041938737034,-0.1234088540077209,-2.235591173171997,-0.2240442931652069,-1.7552108059182765,-9.2756083560884,-2.655690742377937,100,walking
1783069033321183500,3.9154921,1.1351062923274933,0.4998942259758711,0.8802700921237469,-0.0520345494151115,-2.235579490661621,-0.2093585580587387,-1.7941102992855011,-9.277187149712445,-2.623997380997241,100,walking
1783069033331147500,3.9254561,1.134754410149902,0.4966442842692136,0.793453686197102,0.0041739232838153,-2.229207992553711,-0.2118259519338607,-1.8326640479549765,-9.280370455923675,-2.5858131962925195,100,walking
1783069033341110300,3.9354189,1.1279977754965425,0.4128729451268911,0.646703912833333,0.0612864755094051,-2.2122249603271484,-0.2152510434389114,-1.8696017397299407,-9.285185747250914,-2.54171423458606,100,walking
1783069033351073300,3.9453819,1.1765825043149292,0.2735913156867027,0.5506748574033379,0.1106654405593872,-2.208358764648437,-0.2241308987140655,-1.904718938079476,-9.291500921747089,-2.4920728363215923,100,walking
1783069033361036300,3.9553449,1.2749267048195003,0.2011094323217868,0.4065929880745709,0.1511124521493911,-2.194603443145752,-0.2190469354391098,-1.9382700561560688,-9.298925518789886,-2.4379231668524444,100,walking
1783069033370999300,3.9653079,1.4066653715342283,0.192026546677947,0.2566970256395637,0.1807481050491333,-2.165437698364258,-0.2017056941986084,-1.971098266785592,-9.30705095757842,-2.3799045469954607,100,walking
1783069033380962300,3.9752709,1.50542355966717,0.182350955837965,0.1305380587533116,0.2121614217758178,-2.107266664505005,-0.1802558004856109,-2.003268159636855,-9.31548327035904,-2.319287435077876,100,walking
1783069033390925300,3.9852339,1.5877062676869331,0.1996440359443426,0.0105742932453751,0.2420064061880111,-2.0461297035217285,-0.1644681096076965,-2.0346734978564083,-9.324095031359793,-2.2564852342061696,100,walking
1783069033400888300,3.9951969,1.6457966376058757,0.2399509118914604,-0.1048280095659196,0.2891260087490082,-2.0061898231506348,-0.1667640209197998,-2.06418337771818,-9.333277870246768,-2.1907621774517,100,walking
1783069033410851300,4.0051599,1.6991221312105655,0.2731342195689678,-0.3253308552742004,0.3611262142658233,-1.9810247421264648,-0.1818832904100418,-2.090723740249872,-9.34386648427844,-2.1192982389576733,100,walking
1783069033420814300,4.0151229,1.762123800177127,0.3091144644886255,-0.5921858484432101,0.4508145451545715,-1.922415018081665,-0.1938933432102203,-2.113772461273521,-9.356205156847832,-2.040538444367051,100,walking
1783069033430777300,4.0250859,1.8214508722841736,0.2572960144460201,-0.837423906957358,0.4988356232643127,-1.803479552268982,-0.1991157084703445,-2.1323976667664946,-9.369926223686337,-1.956459500580281,100,walking
1783069033440740400,4.035049,1.914129302112013,0.0714367582261562,-0.8037203747980296,0.4715459644794464,-1.6678760051727295,-0.1790969967842102,-2.1477134554505346,-9.38338425567448,-1.873445994067937,100,walking
1783069033450703400,4.045012,1.9899436909005044,-0.1402525202989578,-0.6343517962604761,0.3584878742694855,-1.5441478490829468,-0.1417870372533798,-2.162026935224235,-9.394505953669547,-1.7998032502301036,100,walking
1783069033460666400,4.054975,2.0807336766332387,-0.2893815900146961,-0.4239331221930682,0.1790049374103546,-1.4460817575454712,-0.0944314897060394,-2.177249784927815,-9.401897232964634,-1.7419217007562515,100,walking
1783069033470629400,4.064938,2.1694629304438826,-0.4829372459560632,-0.2408199498109519,-0.0312167052179574,-1.383056640625,-0.0551518537104129,-2.194452264141291,-9.40481575075984,-1.704169769988954,100,walking
1783069033480593400,4.074902,2.2307810302376745,-0.6970557974547147,-0.1987754364162683,-0.240833580493927,-1.3467193841934204,-0.0372833758592605,-2.213273430597782,-9.403482456329463,-1.6871068453766405,100,walking
1783069033490556200,4.0848648,2.2314918088555333,-0.8401397417873143,-0.2855528255067766,-0.4284291267395019,-1.2865114212036133,-0.0380490012466907,-2.231940429405868,-9.398662488827108,-1.68936426891461,100,walking
1783069033500519200,4.0948278,2.228459455422312,-0.8607049754321575,-0.2945119386404752,-0.5669121742248535,-1.184174418449402,-0.0322651490569114,-2.2495583575524387,-9.390967258149384,-1.708686662891507,100,walking
1783069033510482400,4.104791,2.183074837819486,-0.858195622959733,-0.281495659070462,-0.661956250667572,-1.063246250152588,-0.0153919858857989,-2.2665724745869635,-9.3809064673841,-1.7411556848198175,100,walking
1783069033520445400,4.114754,2.2348995714724063,-0.8474690617620945,-0.336930107653141,-0.7113687992095947,-0.9653068780899048,0.0114790424704551,-2.284279980713129,-9.368888697332142,-1.7822377829231322,100,walking
1783069033530408400,4.124717,2.329987254399061,-0.862746125870943,-0.5383323854416608,-0.7176002860069275,-0.8960877060890198,0.0408154837787151,-2.3035013985335824,-9.355407284468413,-1.8277371129468083,100,walking
1783069033540371500,4.1346801,2.308849335432797,-0.9435656294703484,-0.7671515163354575,-0.7076243758201599,-0.8074113726615906,0.0367179438471794,-2.323064761659503,-9.341325567623972,-1.8744011028356848,100,walking
1783069033550334500,4.1446431,2.1458169741794464,-1.0493179142743347,-0.8638304139763117,-0.6638692021369934,-0.7114375829696655,-0.0094657726585865,-2.338849483029544,-9.328049906465411,-1.9203272799693047,100,walking
1783069033560297200,4.1546058,1.9161136077970264,-1.009185810372233,-0.7829664867132902,-0.6038900017738342,-0.6217034459114075,-0.0863725319504737,-2.347369181832671,-9.316856312277912,-1.963781075640023,100,walking
1783069033570260200,4.1645688,1.7480597651198506,-0.8998632658660412,-0.7967065505132078,-0.5223877429962158,-0.5393621921539307,-0.1676483005285263,-2.346909747627377,-9.308714506876468,-2.0025641030207275,100,walking
1783069033580223200,4.1745318,1.6536515888899563,-0.905232683944702,-0.887975113543123,-0.4143600761890411,-0.4658203125,-0.2473945170640945,-2.3377945671491323,-9.304091523250936,-2.0344472878850994,100,walking
1783069033590186200,4.1844948,1.5837427708834408,-0.971067384380102,-0.965815455201268,-0.3001573383808136,-0.381761372089386,-0.3271492719650268,-2.319810143777728,-9.303499402576684,-2.057612767156213,100,walking
1783069033600149500,4.1944581,1.612503439813107,-0.9053805679827928,-0.9476943998381496,-0.177688181400299,-0.2990041673183441,-0.3950763940811157,-2.293204607055336,-9.306935806766152,-2.071842952560633,100,walking
1783069033610112500,4.2044211,1.7104969271838664,-0.7606739908844232,-0.8177779801145195,-0.0437745600938797,-0.2278245985507965,-0.4359562397003174,-2.259816278325021,-9.314125426009296,-2.07621283820793,100,walking
1783069033620075300,4.2143839,1.9132864215470848,-0.6862947494655847,-0.6712614309847355,0.0973343551158905,-0.1849224120378494,-0.4371432065963745,-2.223335536537319,-9.324460942062736,-2.0692014981411395,100,walking
1783069033630039600,4.2243482,2.1767210848785936,-0.6592541823267937,-0.6676992084585129,0.2523111402988434,-0.1624564528465271,-0.4177939593791961,-2.187045933407545,-9.33743498992622,-2.049270909138024,100,walking
1783069033640002300,4.2343109,2.360265926676244,-0.7113333291321993,-0.6725478175334632,0.4005996882915497,-0.1553684473037719,-0.395085722208023,-2.1524191489234568,-9.352842402416467,-2.015392312672734,100,walking
1783069033649965300,4.2442739,2.4936089598476885,-0.7218892099380493,-0.5938567042648792,0.5284719467163086,-0.1551583707332611,-0.3553147912025451,-2.1202629923366008,-9.370119700431824,-1.9686876985125243,100,walking
1783069033659928300,4.2542369,2.562016433380544,-0.6946095733463764,-0.5222904744401574,0.6293280124664307,-0.1534970849752426,-0.2710371911525726,-2.0938006634771824,-9.38797333703041,-1.911116530162096,100,walking
1783069033669891300,4.2641999,2.5311522163003684,-0.7660024924308061,-0.3824460965506732,0.692988932132721,-0.180244967341423,-0.1388886868953704,-2.0774508555702864,-9.404715212994814,-1.84550774743706,100,walking
1783069033679854300,4.2741629,2.430078152440488,-0.9959937358438968,-0.2628970493234694,0.6960715651512146,-0.2581762373447418,0.01266835257411,-2.0754373237907884,-9.41863501727581,-1.775466389092058,100,walking
1783069033689817300,4.2841259,2.077836786147952,-1.4641595291256904,-0.3437590768903493,0.608816385269165,-0.3071208000183105,0.1228209063410759,-2.087263955184817,-9.428560198962687,-1.7076231253132224,100,walking
1783069033699777000,4.2940856,1.2102062492363157,-2.063247119781374,-0.372604793754965,0.4233584403991699,-0.280932068824768,0.1426920890808105,-2.1051890495844185,-9.434458609351514,-1.6521413304574786,100,walking
1783069033709740300,4.3040489,0.0758268098786473,-2.402237667095661,-0.0209377202190458,0.159372478723526,-0.1937077641487121,0.0718484669923782,-2.119577494290471,-9.436941073817014,-1.6192404929831623,100,walking
1783069033719703000,4.3140116,-0.96163919242993,-2.3609195682793853,0.4979197110325097,-0.1343936324119568,-0.0864841043949127,-0.0721526443958282,-2.12209254585132,-9.437107662555574,-1.6149645692296326,100,walking
1783069033729666000,4.3239746,-1.71607589635998,-2.099732391613722,0.8330898232758045,-0.427370011806488,0.0504895634949207,-0.2378447651863098,-2.1077634301170707,-9.43583048222661,-1.6409833921052517,100,walking
1783069033739629000,4.3339376,-2.0711879957832395,-1.7355138795405625,1.0447023833028972,-0.6944965124130249,0.1996012777090072,-0.3502823710441589,-2.077514860717207,-9.432689846113323,-1.6966738612756131,100,walking
1783069033749592000,4.3439006,-2.0104267992198466,-1.5835434489190578,1.1141055898748338,-0.904067873954773,0.3050354123115539,-0.3905362486839294,-2.037719587554037,-9.426493329560756,-1.777449233472347,100,walking
1783069033759555000,4.3538636,-1.712347085095197,-1.5233102217525245,0.7968155638456345,-1.0018852949142456,0.3478561341762543,-0.3974663317203522,-1.9946252728454767,-9.41699426433146,-1.8740568194426597,100,walking
1783069033769518000,4.3638266,-1.3762284399554132,-1.2660972094148395,0.3268731162801385,-0.9734185338020324,0.3454932570457458,-0.4021990895271301,-1.9505150590926408,-9.405758584567904,-1.974233496071398,100,walking
1783069033779482000,4.3737906,-1.145694760228693,-0.6418570573240518,0.0256752701349556,-0.822826623916626,0.3601720631122589,-0.4179732501506805,-1.9051165590949355,-9.395383905547856,-2.0658343597956,100,walking
1783069033789445000,4.3837536,-1.0463906286507845,0.0866717367589473,-0.0880292888477444,-0.5621200799942017,0.4115371406078338,-0.4609318077564239,-1.8559800416126848,-9.389041843044756,-2.138128757764399,100,walking
1783069033799407900,4.3937165,-0.9640810326240956,0.6617822394996881,-0.0740752900362014,-0.2549313902854919,0.440370112657547,-0.5055107474327087,-1.8013716685906052,-9.3890962035805,-2.1841057883024213,100,walking
1783069033809371000,4.4036796,-0.87526600022614,1.1138806950777769,-0.0634872605264186,0.0729522928595542,0.4288759529590606,-0.5335308909416199,-1.742943152758479,-9.396322063180804,-2.20038033901602,100,walking
1783069033819334100,4.4136427,-0.7971331053622066,1.4051853621095418,-0.0485153168439865,0.3875944018363952,0.3805036246776581,-0.5403730869293213,-1.6837087273709477,-9.410497888049482,-2.1858733824968337,100,walking
1783069033829297200,4.4236058,-0.7099053421556949,1.5251345145702362,-0.0426388260260224,0.6748328804969788,0.3260748386383056,-0.5420252680778503,-1.62518961064592,-9.430939203053711,-2.141621129924804,100,walking
1783069033839260200,4.4335688,-0.6385141766369342,1.504170052474737,-0.024734482153505,0.8837789297103882,0.2816453278064728,-0.5407187342643738,-1.567892144670337,-9.456061369350552,-2.0724362422786653,100,walking
1783069033849223200,4.4435318,-0.5942563711069524,1.3686615118324756,0.1243617082059383,0.9881556630134584,0.2321069985628128,-0.5242120027542114,-1.512192177019268,-9.483359126120805,-1.9873498750150205,100,walking
1783069033859186000,4.4534946,-0.5441935325600207,1.2257915025115012,0.3093634708136319,0.996450901031494,0.1905377209186554,-0.4881490170955658,-1.4602021698020398,-9.510178159463406,-1.8959705450870092,100,walking
1783069033869149000,4.4634576,-0.5080570741653442,1.0200076486378908,0.4564958137542009,0.9461742639541626,0.18435700237751,-0.4198514819145202,-1.4135890333175658,-9.534686577776071,-1.8060775081939997,100,walking
1783069033879112000,4.4734206,-0.3857384160943329,0.7516764454364776,0.6310949864216149,0.858130156993866,0.1898601502180099,-0.3190449774265289,-1.3750471212163566,-9.555753915724155,-1.7225515221148728,100,walking
1783069033889075000,4.4833836,-0.2575951435230672,0.4194581687361001,0.6687872959561646,0.7310268878936768,0.157912015914917,-0.2004086524248123,-1.347417502143234,-9.572639584073425,-1.6490633843168616,100,walking
1783069033899038000,4.4933466,-0.2003486770823598,0.1005365959823131,0.533537990771979,0.5881323218345642,0.1058855652809143,-0.0998261123895645,-1.3310428520560265,-9.585317279338836,-1.5875854177862403,100,walking
1783069033909001200,4.5033098,-0.1682908663034439,-0.0712894587099552,0.4235971682369708,0.4249764382839203,0.0617253370583057,-0.0292179621756076,-1.323745680785179,-9.594102643340824,-1.5398938384152947,100,walking
1783069033918964200,4.5132728,-0.2948107754565775,-0.1880377693027257,0.3507318385124206,0.2434071898460388,0.0683286413550376,0.0132397506386041,-1.3221731707714497,-9.599308979812264,-1.5084781249321997,100,walking
1783069033928927000,4.5232356,-0.5283478747829795,-0.3954138608038425,0.3750004567198455,0.0520038343966007,0.0915831848978996,0.02558577619493,-1.322819213590026,-9.60127706501484,-1.4953371960692108,100,walking
1783069033938890000,4.5331986,-0.7007844625890255,-0.5202823494881391,0.3998743473440408,-0.1147071123123169,0.0730342641472816,0.0218363124877214,-1.3238123162806033,-9.600456980803608,-1.4997108811087905,100,walking
1783069033948854000,4.5431626,-0.7809241672307252,-0.5240542692422866,0.1964905403494835,-0.2216416597366333,0.0549402572214603,0.0280743837356567,-1.325075468084216,-9.59758288667202,-1.5168930481866,100,walking
1783069033958817000,4.5531256,-0.7568162925429642,-0.5358651185452937,-0.0923380919575691,-0.2762124836444855,0.0475438609719276,0.0489016324281692,-1.327785165434331,-9.593253917557,-1.541704102707654,100,walking
1783069033968780000,4.5630886,-0.6600260434821248,-0.5268880313634872,-0.2953431287676096,-0.2841117680072784,0.0381476134061813,0.0798134431242942,-1.333296476201713,-9.58801543238163,-1.5692909055523574,100,walking
1783069033978743000,4.5730516,-0.5603732445970178,-0.4215881665021181,-0.4565829075157642,-0.2667530179023742,0.033758457750082,0.1045691221952438,-1.3415206991896031,-9.582433832857012,-1.5961457408607005,100,walking
1783069033988706000,4.5830146,-0.4772150689169764,-0.2026741974204778,-0.5776549265265465,-0.236381858587265,0.0376741252839565,0.1192271932959556,-1.351655724234879,-9.576891396299004,-1.62067111030817,100,walking
1783069033998669000,4.5929776,-0.3899772227078676,0.094330142557621,-0.5892471646428108,-0.2111377567052841,0.0388570986688137,0.1185992211103439,-1.3624287549227476,-9.571627776682377,-1.642598133825511,100,walking
1783069034008632000,4.6029406,-0.2731901875399053,0.4262129036933183,-0.5516635761797428,-0.1840034127235412,0.0356086380779743,0.110995128750801,-1.3726738162137566,-9.5668259293586,-1.66192549623847,100,walking
1783069034018595000,4.6129036,-0.140473031181842,0.7684417022764682,-0.5001876559644938,-0.1590309590101242,0.0422351136803627,0.1283355057239532,-1.3832866879038512,-9.562344400030376,-1.6788355683766305,100,walking
1783069034028558000,4.6228666,-0.0609209171697497,1.065733627024293,-0.4412842160969972,-0.1327145546674728,0.0790695622563362,0.1747505217790603,-1.396698981054127,-9.55781727799475,-1.6934456930093469,100,walking
1783069034038521000,4.6328296,0.0182176476053893,1.3443863177537918,-0.3009767507404088,-0.1208395212888717,0.124763548374176,0.2239849120378494,-1.414037215476483,-9.552906709599494,-1.7067112711653112,100,walking
1783069034048484000,4.6427926,0.1112180028639733,1.6089198822379112,-0.1918095429264009,-0.1327928602695465,0.1723226755857467,0.253263771533966,-1.4343135491773484,-9.547343814775347,-1.7208581622004508,100,walking
1783069034058447000,4.6527556,0.0416848863020539,1.714887855619192,-0.1424047298967838,-0.1462426334619522,0.2183381170034408,0.2591679990291595,-1.4553113290205597,-9.541233807462453,-1.7370434271953998,100,walking
1783069034068410000,4.6627186,-0.0620884996443986,1.7708184171557426,-0.0162323190070688,-0.1351083815097808,0.2544257640838623,0.2448877096176147,-1.4752883875139058,-9.53506593248248,-1.7539802412100136,100,walking
1783069034078372900,4.6726815,-0.017578472919017,1.926788731068373,0.2102178907983005,-0.1353592425584793,0.2778301537036896,0.2204955518245697,-1.4928636455625297,-9.529277996730803,-1.7704894774623214,100,walking
1783069034088336000,4.6826446,0.18740502435714,2.0726199282824997,0.2997382949866354,-0.1442082971334457,0.2806783616542816,0.2061931639909744,-1.5078070938028394,-9.52367418537438,-1.7878836798556148,100,walking
1783069034098299100,4.6926077,0.4355483027935027,2.1028905633836983,0.3407528808116912,-0.1578205078840255,0.2765129208564758,0.225820392370224,-1.5231145530499517,-9.517733104887604,-1.806453355769068,100,walking
1783069034108262100,4.7025707,0.6717094670131802,2.0887252599090336,0.3595509586535394,-0.1547258496284485,0.2591357231140136,0.2799360752105713,-1.5421515542142092,-9.511050850644708,-1.825401217345148,100,walking
1783069034118226200,4.7125348,0.8811797543145715,2.0652976225703954,0.3412202060624957,-0.1259381473064422,0.2341779172420501,0.3443414270877838,-1.5671183838188647,-9.503632098820804,-1.8426837760575117,100,walking
1783069034128189200,4.7224978,1.059273929490894,2.036431593570113,0.3177083975717425,-0.0709953233599662,0.2111718505620956,0.4105595648288727,-1.5987176371753216,-9.495867310038207,-1.8555343436717984,100,walking
1783069034138152200,4.7324608,1.1906865791216492,1.9550082788586616,0.2611791394896805,-0.0155325960367918,0.1921363770961761,0.4759015440940857,-1.6369057674027978,-9.487914305207132,-1.8628999040037395,100,walking
1783069034148115200,4.7424238,1.2295119843393565,1.7322487402647733,0.2465086629718542,0.0431770123541355,0.1746927946805954,0.5263286828994751,-1.6809687810130416,-9.479885312530396,-1.8645399262957276,100,walking
1783069034158078000,4.7523866,1.1529983612403274,1.4109808966457842,0.2758198053911328,0.0870877429842948,0.1507786810398101,0.545994222164154,-1.728804006638378,-9.471959780228138,-1.8610808718830345,100,walking
1783069034168041000,4.7623496,1.023191685501486,1.1715449485391378,0.3599389350578189,0.1021069958806037,0.1289344578981399,0.5277006030082703,-1.7770656409822403,-9.464310142257808,-1.854519029149413,100,walking
1783069034178004000,4.7723126,0.8634061972148716,0.985621979433298,0.4093221207775175,0.0969545766711235,0.1412593126296997,0.4881263375282287,-1.822433453580737,-9.45705505656302,-1.847488545990735,100,walking
1783069034187967000,4.7822756,0.7927288790538907,0.7524754868596791,0.557447566408664,0.0606403648853302,0.1459675878286361,0.4612623155117035,-1.86443325105086,-9.449861345666646,-1.8423856698937715,100,walking
1783069034197930000,4.7922386,0.7427898130171,0.4447527689903974,0.684149554130435,-0.0177662931382656,0.1373461335897445,0.4570057690143585,-1.90487544381544,-9.441713695046303,-1.8427936661727728,100,walking
1783069034207893200,4.8022018,0.7824199587464332,0.0808387928217649,0.7381140762910247,-0.1103170439600944,0.1162143498659133,0.4726338982582092,-1.946002403973788,-9.431693820813296,-1.8511187191866336,100,walking
1783069034217856000,4.8121646,0.89767876143381,-0.1941033529520034,0.8115493148580193,-0.2276639193296432,0.0949412882328033,0.4834391474723816,-1.9888364603109656,-9.41921603203416,-1.8690381144978103,100,walking
1783069034227819000,4.8221276,0.9920580038301646,-0.3449684526801109,0.8004790547892451,-0.3587096035480499,0.0981648564338684,0.4964331686496734,-2.032937613974512,-9.4039226013124,-1.8983705919660627,100,walking
1783069034237782000,4.8320906,1.052911554852128,-0.5413531945675611,0.8699041809320449,-0.493529736995697,0.119628868997097,0.511898398399353,-2.078078778210282,-9.38545580125153,-1.9404120366208253,100,walking
1783069034247745000,4.8420536,1.066692242923379,-0.7048024660587311,0.9952392642147838,-0.6241142749786377,0.1379946172237396,0.5123949646949768,-2.123432854544371,-9.363712755998968,-1.9955667914792892,100,walking
1783069034257708000,4.8520166,1.0247285396799444,-0.7994874134033918,1.0028531002193688,-0.7193348407745361,0.1303982138633728,0.48543581366539,-2.1673612819895145,-9.339358066943287,-2.0613899476073683,100,walking
1783069034267671000,4.8619796,1.0085817069992422,-0.8668284267485141,0.9416834689855575,-0.7785218358039856,0.0954707786440849,0.4295708835124969,-2.207777463530004,-9.31361630744338,-2.133696912796795,100,walking
1783069034277635000,4.8719436,0.9990944783382116,-0.9073743721485136,0.7554270301416516,-0.7918157577514648,0.0580618903040885,0.358879417181015,-2.2425832578428087,-9.287885653859377,-2.208258525045216,100,walking
1783069034287598000,4.8819066,1.007133846278489,-0.9481535417824984,0.5818786817014217,-0.7742328643798828,0.0220326818525791,0.2978832721710205,-2.271870873256028,-9.262966901180148,-2.281761275890469,100,walking
1783069034297560800,4.8918694,1.0499357539117335,-0.9741279409945012,0.4823229134500026,-0.7213792204856873,-0.0334484204649925,0.2475053071975708,-2.29701554364562,-9.23953634123206,-2.350548250260204,100,walking
1783069034307523800,4.9018324,1.153645573102683,-1.0747867020517587,0.3274637756496668,-0.6659809350967407,-0.0863464623689651,0.2172458171844482,-2.319771419202536,-9.2177365973562,-2.412962620858103,100,walking
1783069034317487000,4.9117956,1.2575368863403795,-1.2630208707094193,0.1701233424276113,-0.5939525365829468,-0.1497262418270111,0.1879124343395233,-2.341362050372362,-9.197695095324516,-2.467958093501627,100,walking
1783069034327450000,4.9217586,1.1986131343372166,-1.4402847325414418,0.0701031715348362,-0.5254989266395569,-0.2009389698505401,0.1368672996759414,-2.3608486950002607,-9.179946088144185,-2.5150325638875364,100,walking
1783069034337413000,4.9317216,1.0675029747843745,-1.5202151783466338,0.0175824184417724,-0.4749244153499603,-0.2281591445207595,0.0635259672999382,-2.3754852692484856,-9.16495719332695,-2.5555855235502123,100,walking
1783069034347376000,4.9416846,0.954174409507215,-1.565510364100337,-0.0163400171652436,-0.4316928386688232,-0.2327015995979309,-0.0122354608029127,-2.383811929697543,-9.152731333482263,-2.591394211295247,100,walking
1783069034357339100,4.9516477,0.7752391073316335,-1.6239175448834895,-0.0122688222035765,-0.4217667281627655,-0.2030268013477325,-0.0814816430211067,-2.3851899400524794,-9.142806736317276,-2.624944014197588,100,walking
1783069034367302000,4.9616106,0.658037500013411,-1.7750532782465218,0.0067629182636737,-0.4325332939624786,-0.2028867602348327,-0.1424740552902221,-2.3802166816845536,-9.13427622385919,-2.6589398073017594,100,walking
1783069034377265000,4.9715736,0.6143180391438305,-1.9781845717847344,0.0224915255323052,-0.4583512842655182,-0.255461037158966,-0.1970590054988861,-2.3707639398150144,-9.126420834183692,-2.694121010798216,100,walking
1783069034387228000,4.9815366,0.5340408257275819,-2.1608938395410773,-0.0913838599726557,-0.4808347821235657,-0.3116427361965179,-0.2455780208110809,-2.358272707032412,-9.118937784951925,-2.73018250426054,100,walking
1783069034397191200,4.9914998,0.444646239876002,-2.3366671705543998,-0.166985044401884,-0.4720799028873443,-0.3736336827278137,-0.2980433702468872,-2.3429488811723886,-9.112255530709028,-2.765463076478243,100,walking
1783069034407154200,5.0014628,0.2589787068359553,-2.5122289046436546,-0.1737552691891789,-0.4490579962730407,-0.4322425425052643,-0.3469489216804504,-2.324875172082334,-9.106980220654606,-2.7978976116150616,100,walking
1783069034417117200,5.0114258,-0.0162602299273014,-2.6410037531167267,-0.1655722549945116,-0.4207147657871246,-0.4822308719158172,-0.4089808762073517,-2.3037211787641048,-9.103453215572236,-2.8267311996504665,100,walking
1783069034427080200,5.0213888,-0.340878260757029,-2.727789471644163,-0.1775125758960843,-0.409519761800766,-0.5134221315383911,-0.5034248232841492,-2.2767321956820785,-9.102109984269738,-2.852798537842929,100,walking
1783069034437043000,5.0313516,-0.5960961537547409,-2.7165596370995044,-0.1358162914171815,-0.4068792462348938,-0.5067519545555115,-0.6077048778533936,-2.2408828836657104,-9.103014239633085,-2.8781843235120177,100,walking
1783069034447006000,5.0413146,-0.7908294751733541,-2.575336810463667,-0.0478071685746312,-0.4072653949260711,-0.4714790284633636,-0.6952363848686218,-2.1957873121373352,-9.105822867313028,-2.9039442031905054,100,walking
1783069034456969000,5.0512776,-0.879990106138587,-2.4260095878273247,0.1006529158383607,-0.399356871843338,-0.4533690214157104,-0.7763733267784119,-2.142390214601159,-9.110002198824288,-2.930599570403993,100,walking
1783069034466933000,5.0612416,-0.90362320292145,-2.2683804007917643,0.2184665175750851,-0.3904501795768738,-0.4909870028495788,-0.8511188626289368,-2.0820961971580982,-9.115600749483704,-2.956535975693166,100,walking
1783069034476896000,5.0712046,-0.8624376444436609,-1.928768506708741,0.2013987706571817,-0.3768422305583954,-0.5384463667869568,-0.9036321640014648,-2.0173380399130285,-9.122267806157469,-2.980767915152013,100,walking
1783069034486859000,5.0811676,-0.7576809465482831,-1.5317998176783325,0.186871648132801,-0.3727559149265289,-0.5579549074172974,-0.8950291275978088,-1.9515078695222732,-9.128981624582408,-3.003948884253204,100,walking
1783069034496822000,5.0911306,-0.752359313134104,-1.299332539540529,0.2386886368706822,-0.372488260269165,-0.5291118025779724,-0.8511705994606018,-1.8882953342840076,-9.134597710898518,-3.02718509067297,100,walking
1783069034506785300,5.1010939,-0.8411687925741076,-1.217982874587178,0.3110205903708934,-0.3485934436321258,-0.5057821273803711,-0.7946155071258545,-1.82896460891515,-9.13888459443748,-3.0505855477437374,100,walking
1783069034516748000,5.1110566,-0.9043507865436374,-1.0772241583317517,0.3129351918205618,-0.2946108877658844,-0.5375767946243286,-0.7540259957313538,-1.774461449833214,-9.14302359393835,-3.070306731779873,100,walking
1783069034526711000,5.1210196,-1.0207374242171643,-0.7371265265583992,0.2241504084303975,-0.2651406526565552,-0.5708882212638855,-0.717765748500824,-1.724364562886208,-9.147336196440458,-3.08596987259686,100,walking
1783069034536674000,5.1309826,-1.235912645161897,-0.4373392778635024,0.2439396892666816,-0.2723141610622406,-0.5607189536094666,-0.6857385635375977,-1.677980412852019,-9.150989458251,-3.100670890383422,100,walking
1783069034546637000,5.1409456,-1.5868997736096382,-0.3311795813024044,0.4691486668393015,-0.3289155960083008,-0.5025047063827515,-0.6745916604995728,-1.6325531251512466,-9.15300079807341,-3.118931354217231,100,walking
1783069034556600000,5.1509086,-1.859820204297453,-0.1476484757691621,0.7585173973724245,-0.4224497973918915,-0.4255121648311615,-0.6792433857917786,-1.5854356924064457,-9.152177791252733,-3.145536452548205,100,walking
1783069034566563000,5.1608716,-1.9819201050512487,0.1949649382174015,0.9806582195460796,-0.5396938323974609,-0.3488148152828216,-0.6826331615447998,-1.5354615550562738,-9.14763313356042,-3.1833237468898297,100,walking
1783069034576525800,5.1708344,-1.9687299302190544,0.5357540593862533,1.151898583304882,-0.6125333905220032,-0.3058764040470123,-0.662981390953064,-1.484307268010825,-9.139317725157737,-3.231113087546825,100,walking
1783069034586489000,5.1807976,-1.905817839232087,0.7544418184965849,1.1900927048817276,-0.6303879022598267,-0.3160116970539093,-0.6376610398292542,-1.4352904313854873,-9.12846023105681,-3.283522489219904,100,walking
1783069034596452000,5.1907606,-1.839358284896612,0.9465285709291696,1.0441396348536014,-0.5998784899711609,-0.3501686155796051,-0.6265910863876343,-1.3889233786165711,-9.117041011419891,-3.3347920732080936,100,walking
1783069034606415000,5.2007236,-1.8267779125258323,1.1871516829937696,0.8509393682211637,-0.5502334833145142,-0.3716541826725006,-0.6269320845603943,-1.3441925487473607,-9.106272949168083,-3.382209365682304,100,walking
1783069034616378000,5.2106866,-1.8867603798016903,1.39280518848598,0.8696540055632591,-0.4768338501453399,-0.3718240857124328,-0.6441919803619385,-1.2991738418474792,-9.097196493265033,-3.4239679017424582,100,walking
1783069034626341000,5.2206496,-1.9473352600127456,1.6302736359119414,1.0750234334170818,-0.3879866600036621,-0.3665826916694641,-0.6715396046638489,-1.252066345974803,-9.090755646562576,-3.458450893841684,100,walking
1783069034636304100,5.2306127,-1.9003681955240663,1.9255302554398772,1.2672653764113784,-0.3105413913726806,-0.3754113614559173,-0.6872501373291016,-1.203115925649181,-9.08703750282228,-3.4854935068070887,100,walking
1783069034646267000,5.2405756,-1.7786086326405406,2.111624489459395,1.3189388650253415,-0.2406041622161865,-0.3726055920124054,-0.6596489548683167,-1.1550367352001367,-9.08548618172705,-3.505742806370556,100,walking
1783069034656231000,5.2505396,-1.6084285915896297,2.163110346546769,1.2999722987487912,-0.1975770592689514,-0.3612216413021087,-0.5813567638397217,-1.111384348217398,-9.084896399140357,-3.521342234301567,100,walking
1783069034666194000,5.2605026,-1.406663910229504,2.0257792666524645,1.3411167945638298,-0.1518901884555816,-0.3628978729248047,-0.4621239006519317,-1.0767216156370938,-9.08448372668624,-3.533157759779692,100,walking
1783069034676157000,5.2704656,-1.1755643402483311,1.856345075532794,1.3112649693965912,-0.1001380458474159,-0.3994761407375335,-0.3577913641929626,-1.0529884194806218,-9.084439887544512,-3.5404160603448744,100,walking
1783069034686120000,5.2804286,-0.9706034201301632,1.703531764346361,1.155988482967019,-0.0474328994750976,-0.4599903225898742,-0.2873185276985168,-1.039029598363489,-9.0851547578156,-3.5427088474571704,100,walking
1783069034696083000,5.2903916,-0.7754588875621556,1.6045120026677846,0.9752142749264836,0.0148158278316259,-0.51560378074646,-0.2320068031549453,-1.032612205601856,-9.087289431756734,-3.5391046854853627,100,walking
1783069034706046000,5.3003546,-0.5981858195103704,1.5155693983674048,0.9274462693184614,0.0541980862617492,-0.5437113642692566,-0.1684085428714752,-1.0331633366785944,-9.09067381349802,-3.5302427491158244,100,walking
1783069034716009000,5.3103176,-0.4663878968890756,1.3756307663232088,0.9734674312591552,0.0365216210484504,-0.5318999886512756,-0.0880825519561767,-1.0401635708294807,-9.09378873064816,-3.520149809646606,100,walking
1783069034725971700,5.3202803,-0.3835265121985227,1.1984463994681835,0.9372942941159008,-0.0361501611769199,-0.5067241787910461,0.0368923470377922,-1.0558375983666628,-9.094224199455976,-3.514353106066584,100,walking
1783069034735934700,5.3302433,-0.3607373188938945,0.8944125992447137,0.8854793512046336,-0.1432113647460937,-0.5154886245727539,0.175399363040924,-1.0832655573878436,-9.089914519563315,-3.517155888527632,100,walking
1783069034745897700,5.3402063,-0.3243390677578747,0.6443272468298673,0.8057271845757961,-0.232344776391983,-0.5897889137268066,0.2590397000312805,-1.1226567067295312,-9.080895346805454,-3.528084109777212,100,walking
1783069034755860700,5.3501693,-0.2963430265251547,0.541828995385766,0.6413610905006527,-0.3022381067276001,-0.664840579032898,0.3025397658348083,-1.1699557796515525,-9.06817907309532,-3.545377774405479,100,walking
1783069034765823700,5.3601323,-0.2395050678201019,0.5514473030805588,0.5298889667451382,-0.3383143246173858,-0.758633553981781,0.3381477296352386,-1.2242499721579252,-9.052958123087883,-3.5658863094270226,100,walking
1783069034775786800,5.3700954,-0.39461657294631,0.3255681711614132,0.3815919639393687,-0.3687619864940643,-0.8056625723838806,0.3340991735458374,-1.28297045667395,-9.03612213909924,-3.587876607438922,100,walking
1783069034785750000,5.3800586,-0.6237022458218038,0.0586579406738281,0.4565943056926131,-0.3897359073162079,-0.7902746200561523,0.2724568247795105,-1.3392436941683292,-9.018508156475423,-3.6115535433635113,100,walking
1783069034795712800,5.3900214,-0.8323276067316532,0.1409147835999727,0.6979398868128657,-0.3841994702816009,-0.7111451625823975,0.1836196333169937,-1.387097186102718,-9.001405630505085,-3.636073359853029,100,walking
1783069034805675800,5.3999844,-0.9371884956538676,0.4651993446916341,0.9066010496884584,-0.3794530630111694,-0.5738372802734375,0.0967889130115509,-1.4230449900574982,-8.98556274920702,-3.661279405041039,100,walking
1783069034815638800,5.4099474,-0.8849275625407695,0.6200625741451978,1.114065111733973,-0.3783845901489258,-0.4345446527004242,0.0288886912167072,-1.4468750707171856,-8.970887742644548,-3.6878318964019416,100,walking
1783069034825601800,5.4199104,-0.7197497136913239,0.5928384671330451,1.1916054475322364,-0.3658488392829895,-0.3507558107376098,-0.0186752509325742,-1.461517490184307,-8.957131019970774,-3.7153929802834975,100,walking
1783069034835564800,5.4298734,-0.3597413666591048,0.5689759455084801,1.0893512339770792,-0.3398627936840057,-0.3559947609901428,-0.0556899905204772,-1.4710747153416277,-8.94449190315008,-3.7419767435655,100,walking
1783069034845527800,5.4398364,0.0142817694611847,0.5841629932463169,0.8424965340465307,-0.2695006132125854,-0.4107643663883209,-0.0890493392944336,-1.4787849974580107,-8.934090920644998,-3.76372154238373,100,walking
1783069034855491800,5.4498004,0.3601622224196791,0.6259580619245767,0.6814850110962987,-0.1659670025110244,-0.4545381963253021,-0.1248430237174034,-1.485586494166404,-8.927402821183204,-3.776888190209865,100,walking
1783069034865454800,5.4597634,0.6742090287439525,0.5816770216494799,0.6677291652053594,-0.0419626496732234,-0.4988470673561096,-0.1535620093345642,-1.4910807076685129,-8.92546980729401,-3.7792932055249806,100,walking
1783069034875417600,5.4697262,0.9509342585422098,0.4995628020644188,0.6079615097239613,0.0854594856500625,-0.568157434463501,-0.1664871275424957,-1.4968120909273623,-8.928648437330127,-3.769504801960289,100,walking
1783069034885380900,5.4796895,1.144084110161662,0.4296130675256252,0.4867641107678413,0.1899217963218689,-0.6160877346992493,-0.1689843982458114,-1.5039625472038984,-8.9365108412683,-3.747966047108173,100,walking
1783069034895343900,5.4896525,1.2466431518822907,0.3297691299825906,0.4784659457609057,0.2578102946281433,-0.6277769207954407,-0.1510224491357803,-1.512549027632922,-8.947398145985602,-3.718418757845461,100,walking
1783069034905307000,5.4996156,1.2028083940699696,0.1103571482509374,0.5628057324409484,0.2840657532215118,-0.6032801270484924,-0.1173204183578491,-1.5231826498501002,-8.959477290835975,-3.684845281806588,100,walking
1783069034915270000,5.5095786,1.0946890878736972,-0.1439367617696523,0.6787219761237502,0.3025581836700439,-0.5606242418289185,-0.0631541237235069,-1.5365686395153402,-8.9715365619421,-3.649776306512952,100,walking
1783069034925233000,5.5195416,1.0333790252558883,-0.2843967873394489,0.7839476067051291,0.3320464789867401,-0.5080935955047607,-0.016502846032381,-1.552472018828988,-8.983559008169173,-3.6132951263338327,100,walking
1783069034935195600,5.5295042,1.0574379462353884,-0.3528098138302564,0.8460533497452736,0.383984237909317,-0.4842721819877624,0.0036354446783661,-1.5697972476392985,-8.99639803147614,-3.5736472988173364,100,walking
