time,seconds_elapsed,acc_x,acc_y,acc_z,gyr_x,gyr_y,gyr_z,grav_x,grav_y,grav_z,fs_hz,activity
1783069020438765300,0.0,-0.2387913665927946,-0.656038142889738,1.8309534446448088,0.2867587804794311,-0.4258185923099518,-1.0756548643112185,-1.6596609123073518,-9.128764766961336,-3.175148331479728,100,walking
1783069020448728300,0.009963,-0.3290127586573362,-1.0903490128427744,1.7284832502514125,0.1607670336961746,-0.2559219598770141,-1.117429494857788,-1.5697386493198573,-9.15354148082137,-3.1494419355541465,100,walking
1783069020458691300,0.019926,-0.0997952760957181,-1.5263514891445635,1.364844876153767,0.0634841695427894,-0.2200531363487243,-1.1073702573776243,-1.4751402112148702,-9.173933695986866,-3.135805916650593,100,walking
1783069020468654300,0.029889,0.2657230665296316,-1.875541358911991,0.8231982515975832,0.0644668787717819,-0.2969798445701599,-1.086864948272705,-1.382767778596282,-9.191355370908974,-3.1268688692182303,100,walking
1783069020478617300,0.039852,0.7371447928674518,-1.9704706364065407,0.4512301483109593,0.1521048545837402,-0.3778736889362335,-1.038560390472412,-1.2955921839684248,-9.2088045183599,-3.1128339141249657,100,walking
1783069020488580400,0.0498151,1.190240077463165,-1.9347452430307863,0.3204369457527995,0.3024688065052032,-0.3906669914722442,-0.9276034832000732,-1.2170250624056904,-9.22806977532208,-3.0873858768746256,100,walking
1783069020498543400,0.0597781,1.3374997731104492,-1.8956009811222552,0.3276499458715319,0.4513038694858551,-0.4037264883518219,-0.7782430052757263,-1.150452695345506,-9.249706437590715,-3.047911944620311,100,walking
1783069020508506400,0.0697411,1.401988611894846,-1.876658964765072,0.280340205425024,0.5679199695587158,-0.473610520362854,-0.6115855574607849,-1.0995709416311237,-9.272838891375065,-2.995963146196305,100,walking
1783069020518469400,0.0797041,1.4367631342865526,-1.781321106469631,0.0029360534518957,0.6605480313301086,-0.5168588757514954,-0.4700658023357391,-1.064464849197492,-9.296799028155206,-2.933738160690665,100,walking
1783069020528432400,0.0896671,1.3894824738040563,-1.7009195360213518,-0.1104722990632057,0.7335194945335388,-0.5354213714599609,-0.3528052270412445,-1.0415750450626016,-9.321236719319224,-2.863575075662136,100,walking
1783069020538395400,0.0996301,1.3332918000265954,-1.6672709489196538,-0.1893877226069569,0.7907837629318237,-0.5418366193771362,-0.2468199133872985,-1.0289292793054132,-9.345758581635357,-2.7872037836432457,100,walking
1783069020548358400,0.1095931,1.222827538139373,-1.6809329790472984,-0.3531242866069078,0.8203373551368713,-0.5879181027412415,-0.1576151996850967,-1.025455465715006,-9.369953111693263,-2.7060668846577403,100,walking
1783069020558321400,0.1195561,0.9877227511048317,-1.8143810800284144,-0.4882710081994533,0.8018220067024231,-0.7042913436889648,-0.0899335145950317,-1.030818380987644,-9.392876891162992,-2.623293324381113,100,walking
1783069020568284200,0.1295189,0.8215709426566958,-2.096634425598382,-0.6932388695150613,0.7234107851982117,-0.8601056933403015,-0.0203211437910795,-1.045578508550301,-9.413190780395269,-2.543422207547724,100,walking
1783069020578247400,0.1394821,0.6673007837254553,-2.643222598209977,-1.1192100734069943,0.6236475706100464,-0.905912697315216,0.0888354033231735,-1.070873328000307,-9.429688326209783,-2.470745386132598,100,walking
1783069020588210400,0.1494451,0.4807258535169065,-3.4028257449924944,-1.4097048853605985,0.5440155863761902,-0.7334091067314148,0.2463432848453521,-1.1065103124402462,-9.442066161745784,-2.406952128396928,100,walking
1783069020598173400,0.1594081,0.1248004649493843,-4.141492486730217,-1.3288698919311166,0.454212874174118,-0.449935108423233,0.4150370359420776,-1.151913196352124,-9.450241284894943,-2.3529637869693336,100,walking
1783069020608136400,0.1693711,-0.1706737428519874,-4.540484206020832,-1.2516712091773747,0.3261395990848541,-0.1484900265932083,0.549049973487854,-1.2044958357002586,-9.453624497592449,-2.3126966585107147,100,walking
1783069020618099500,0.1793342,-0.4933002345383167,-4.542834568539262,-1.2183335877209902,0.1776043027639389,0.0709641501307487,0.6345897316932678,-1.2612008156754075,-9.452172545218469,-2.288274018785357,100,walking
1783069020628063500,0.1892982,-0.8842632534131407,-4.018959747517108,-1.1005015735447403,-0.0016687763854861,0.1710891425609588,0.5995963215827942,-1.3172053192310034,-9.44618061132729,-2.2814579090297222,100,walking
1783069020638026500,0.1992612,-1.455582108785957,-2.617432323393225,-1.4278610120370985,-0.1209754645824432,0.3115693032741546,0.4569025337696075,-1.3617949870638548,-9.437523257619144,-2.2910826464653016,100,walking
1783069020647989200,0.2092239,-1.793207066835463,-1.25591366905272,-1.3122772151790558,-0.1221440583467483,0.4150480031967163,0.2546157538890838,-1.3870409258708356,-9.429707030910253,-2.3080545317932963,100,walking
1783069020657952300,0.219187,-1.7782000518396497,-0.2953337764173745,-1.002099651503563,-0.0372991599142551,0.4459165930747986,0.0394715592265129,-1.390675629111379,-9.42572351423204,-2.3220997160196304,100,walking
1783069020667915300,0.22915,-1.4847759084358811,0.6075158117830753,-1.1809975442782044,0.1379264444112777,0.4115580916404724,-0.1309065669775009,-1.3759956541128455,-9.427454283547402,-2.3238139725916085,100,walking
1783069020677878300,0.239113,-0.9552321018666028,1.2681488812476396,-1.5064624011956154,0.3686564862728119,0.3745401501655578,-0.228388637304306,-1.349635616584122,-9.435817038223147,-2.305256279376894,100,walking
1783069020687841300,0.249076,-0.3108925800770521,1.6312264065921305,-1.674016769918054,0.5463992953300476,0.3658033907413482,-0.2730802297592163,-1.3173141864329576,-9.449790618517994,-2.266390249887854,100,walking
1783069020697804300,0.259039,0.2984695902250707,1.7095155149310826,-1.6850050507918,0.6194356083869934,0.3730073273181915,-0.2525019347667694,-1.2838332109831272,-9.466428449586031,-2.2155979280225933,100,walking
1783069020707767300,0.269002,0.5496249099589884,1.6567472168177366,-1.6583151967868208,0.5983710885047913,0.3967627286911011,-0.188159167766571,-1.2545676612712442,-9.482645424893498,-2.1623823245331644,100,walking
1783069020717730300,0.278965,0.5846962233401835,1.589017496415973,-1.5427417751923205,0.4964383542537689,0.4504700601100921,-0.1297146826982498,-1.2306817587710916,-9.496317976415156,-2.115598946048319,100,walking
1783069020727693300,0.288928,0.6094776133753359,1.503283917289972,-1.3815975657731294,0.3860253095626831,0.5287259817123413,-0.0768000707030296,-1.2105718676783144,-9.506800791984796,-2.0798193382672965,100,walking
1783069020737656300,0.298891,0.407095238508284,1.3217565527945756,-1.286661127885431,0.2970189750194549,0.6436986923217773,-0.0303571987897157,-1.1934408462658523,-9.514414774119851,-2.054746710200608,100,walking
1783069020747619000,0.3088537,0.0954042745951563,1.089513731062412,-1.1217235175326463,0.2413274943828582,0.7455843091011047,-0.0030422213021665,-1.1777329895243047,-9.520095157843828,-2.037425573043525,100,walking
1783069020757582000,0.3188167,-0.109837142964825,0.981317560237646,-0.9423936630815268,0.198427140712738,0.7751272320747375,-0.0078403251245617,-1.1619329244546592,-9.524576687172054,-2.025518423759192,100,walking
1783069020767545300,0.32878,-0.1529548385489731,0.9587561843395233,-0.98363679696545,0.1529805660247802,0.7384411096572876,-0.0350602306425571,-1.144552677521482,-9.52835152953565,-2.017644329383224,100,walking
1783069020777508400,0.3387431,-0.1439566355139017,0.918975962615013,-1.1199667369931936,0.119729183614254,0.6918615698814392,-0.0727286860346794,-1.1249701713036746,-9.531667522215844,-2.012995772925019,100,walking
1783069020787471400,0.3487061,-0.1130250522859394,0.8421107495993375,-1.203496084073186,0.0797503367066383,0.6655063629150391,-0.0904725342988967,-1.103528666280955,-9.534559152004125,-2.0111684113673864,100,walking
1783069020797434400,0.3586691,-0.1093421990547329,0.6952887877821922,-1.1765087084263564,0.0393431670963764,0.6408103108406067,-0.0983228981494903,-1.0813243601921945,-9.536776828053592,-2.012717394375056,100,walking
1783069020807397400,0.3686321,-0.0756888627126812,0.52248132083714,-1.120320664997399,0.0076946932822465,0.597829282283783,-0.0994752496480941,-1.0594621455393731,-9.538297754010555,-2.0171314114250243,100,walking
1783069020817360100,0.3785948,-0.0334263226531445,0.3933686187118291,-1.1096443726822731,-0.0136415176093578,0.5537571907043457,-0.0892512053251266,-1.0388769650850445,-9.539220129552485,-2.0234682132311166,100,walking
1783069020827324200,0.3885589,-0.0177487879846245,0.2289765134125947,-1.160081889760494,-0.0072110490873456,0.5316900014877319,-0.0817248523235321,-1.019838283420354,-9.53987713215649,-2.0300420386634768,100,walking
1783069020837287200,0.3985219,-0.0818674782823771,0.0329810631036758,-1.1218528430007395,-0.000994968926534,0.5406352281570435,-0.0828191861510276,-1.0012094246655705,-9.540654546269774,-2.035650087803602,100,walking
1783069020847250200,0.4084849,-0.1990979463689029,-0.0672954206377267,-1.0166945785671473,-0.0388914868235588,0.5508710741996765,-0.1039798706769943,-0.9812436182186008,-9.541234391984345,-2.0426463764317333,100,walking
1783069020857213200,0.4184479,-0.2787193262249231,-0.081662968686223,-0.934401495283842,-0.1279968321323394,0.5383546352386475,-0.1444027125835418,-0.9581851795185355,-9.540783141085504,-2.0556571030437945,100,walking
1783069020867176200,0.4284109,-0.3130779612921178,-0.0249532394707202,-0.8555312260560691,-0.2372322380542755,0.5311161279678345,-0.1756075173616409,-0.9317572643853724,-9.53853565441966,-2.0781138495236635,100,walking
1783069020877139500,0.4383742,-0.2247963781837373,0.0669897156894206,-0.7096724101826548,-0.3273167014122009,0.5890721678733826,-0.1775332987308502,-0.9031718058921396,-9.534260461318492,-2.110098448935896,100,walking
1783069020887102500,0.4483372,0.0915163272459059,0.1228074645012617,-0.3898369374543428,-0.3933923840522766,0.624754011631012,-0.1620470285415649,-0.8741210679747163,-9.52812941121757,-2.1496631282135845,100,walking
1783069020897065200,0.4582999,0.4969176943831145,0.2622498374611139,-0.2505463940553367,-0.4731810390949249,0.5697830319404602,-0.1524932831525802,-0.8461717884931713,-9.520178159952165,-2.1955793684750797,100,walking
1783069020907028200,0.4682629,0.7419754278942943,0.5636088655173778,-0.4491182707235217,-0.5691871643066406,0.4880080223083496,-0.1379425674676895,-0.8205351698681712,-9.509841474854946,-2.249446129349619,100,walking
1783069020916991200,0.4782259,0.8373197889957577,0.8140268108874559,-0.5710194340348244,-0.6567694544792175,0.4513531029224396,-0.1151091381907463,-0.7978156807988882,-9.496898406651615,-2.3114495810590685,100,walking
1783069020926954200,0.4881889,0.85686305918172,0.950754079669714,-0.415666959759593,-0.7282471060752869,0.4603897631168365,-0.0859190300107002,-0.7775552753195166,-9.481444232410192,-2.3807604331724344,100,walking
1783069020936917200,0.4981519,0.8182506391275673,1.1277385400384663,-0.2286746078565716,-0.7761904001235962,0.4716242849826813,-0.0555767118930816,-0.7594428416542709,-9.463749001243707,-2.455823711332678,100,walking
1783069020946880300,0.508115,0.8336918077569454,1.3472756094545124,-0.1440802618935704,-0.7699016332626343,0.4531744420528412,-0.0200051367282867,-0.7443580121818929,-9.44476373026669,-2.5323379189535973,100,walking
1783069020956843300,0.518078,0.929656200452894,1.5510118831485509,-0.1580889135017991,-0.7318228483200073,0.4203457534313202,0.0075638145208358,-0.7325834032360464,-9.425540558880568,-2.606315886095166,100,walking
1783069020966806300,0.528041,1.0495915435839445,1.6828373513638972,-0.1963277510032057,-0.6569392681121826,0.3989307284355163,0.0300041418522596,-0.7235311319261789,-9.407129872921107,-2.6744693848669527,100,walking
1783069020976769300,0.538004,1.0800123277455569,1.710848224839568,-0.1421981014087796,-0.5817148089408875,0.4082633256912231,0.0378640815615654,-0.7157944001942873,-9.39024946526885,-2.7351830890268087,100,walking
1783069020986732300,0.547967,1.0361365072704851,1.7028320916444062,0.032947160834074,-0.5242671966552734,0.4202893376350403,0.0485785119235515,-0.7084301550365985,-9.374752036407587,-2.789720734900236,100,walking
1783069020996695300,0.55793,0.9454752624839544,1.6760270868271587,0.1486062148854136,-0.4795059859752655,0.4432187080383301,0.0556917488574981,-0.7012666931480169,-9.360368121746182,-2.839389897954464,100,walking
1783069021006658300,0.567893,0.7627575922254473,1.5441396592915058,0.2169543594464659,-0.4537713229656219,0.4743209779262543,0.0531521588563919,-0.6931761064771562,-9.346693232136964,-2.8860397131875155,100,walking
1783069021016621300,0.577856,0.6427329633757471,1.364262984612584,0.2827040119469166,-0.4253826141357422,0.4812396168708801,0.0437686294317245,-0.6838832313444465,-9.333662485650182,-2.930092789925635,100,walking
1783069021026584000,0.5878187,0.6068238109309226,1.3185001813471318,0.3233352975428104,-0.3901042640209198,0.4570983052253723,0.0352712795138359,-0.6735623283382505,-9.321418505626916,-2.971172696071863,100,walking
1783069021036548000,0.5977827,0.5910491725634783,1.319264151456952,0.2788292163401842,-0.325372576713562,0.418794721364975,0.0409117713570594,-0.6639225394640117,-9.310510742643476,-3.0073215755566958,100,walking
1783069021046511000,0.6077457,0.5911234068434685,1.2210831786900758,0.2339548863470554,-0.238946333527565,0.3798568844795227,0.0561383962631225,-0.6563655482131987,-9.301663419321178,-3.036218584217131,100,walking
1783069021056474000,0.6177087,0.5666392461892217,1.076917868861556,0.2469181205555796,-0.1616081595420837,0.3505284488201141,0.0606421306729316,-0.6507353603065014,-9.295163535907864,-3.057261956767737,100,walking
1783069021066437000,0.6276717,0.4762839255467057,0.9656704937726258,0.3823156020388007,-0.0912490412592887,0.3444494903087616,0.0506145320832729,-0.6453741985995322,-9.290907632029056,-3.071302757079899,100,walking
1783069021076400400,0.6376351,0.3473424152698368,0.9702736036539076,0.5998208733662963,-0.0336021333932876,0.3610623180866241,0.0321026369929313,-0.6385370460558683,-9.288777049741148,-3.0791657455399637,100,walking
1783069021086363400,0.6475981,0.19244279932864,1.007231753695011,0.7718854129895567,0.0244023147970438,0.3990595042705536,0.0209365356713533,-0.6292348185729235,-9.28847543644607,-3.0819907398328183,100,walking
1783069021096326400,0.6575611,0.0706670159626752,0.9584949030548332,0.9061553517475724,0.0706859901547432,0.4317109584808349,0.0261212009936571,-0.6186397748004645,-9.289867183065414,-3.0799402370437976,100,walking
1783069021106289200,0.6675239,-0.0492610937099903,0.8394359774321317,0.9729302556425332,0.1049930974841117,0.4511269927024841,0.0305676143616437,-0.6076479502627625,-9.292464213821292,-3.0742911252409217,100,walking
1783069021116252200,0.6774869,-0.0907008826771751,0.7313333301097155,1.0240198068886994,0.1161598861217498,0.4172126650810241,0.0317263454198837,-0.5971830722086131,-9.29569194369614,-3.0665730982095,100,walking
1783069021126215200,0.6874499,-0.1321746469791978,0.6832774474710226,1.0176932342156768,0.1476818621158599,0.3437451124191284,0.0171812269836664,-0.5877319377742707,-9.299560309562086,-3.0566546385243534,100,walking
1783069021136178200,0.6974129,-0.1497429638303816,0.6997510278880595,0.9961655852794646,0.2020070999860763,0.2725839018821716,-0.006486908532679,-0.5789920568818226,-9.30481106969714,-3.0423104713514446,100,walking
1783069021146141200,0.7073759,-0.1828385201591998,0.7252502108037472,1.003712639658153,0.2587305605411529,0.2431597262620926,-0.0317461937665939,-0.5695392784796655,-9.311904242828488,-3.0223239143773912,100,walking
1783069021156104400,0.7173391,-0.2510236561782658,0.7191986556798219,1.067167459219694,0.3194817304611206,0.2415504306554794,-0.0397843830287456,-0.5588150188369676,-9.320817032602427,-2.9967446519628167,100,walking
1783069021166067500,0.7273022,-0.2658168092276901,0.7550310165613889,1.1178069286108017,0.389384388923645,0.2349950671195984,-0.0293386653065681,-0.5483614658944308,-9.331510276052356,-2.9652330768898127,100,walking
1783069021176030200,0.7372649,-0.1704038398694247,0.7619897496581077,1.0947910869434476,0.4578565657138824,0.1927970647811889,-0.0008105876040644,-0.5403747414568438,-9.344006185010077,-2.9271035449817777,100,walking
1783069021185993200,0.7472279,0.0074555036377161,0.7275584877461194,0.9794853763744236,0.5312383770942688,0.1412225514650344,0.0371426530182361,-0.537172803610377,-9.3582077288419,-2.8819781628370285,100,walking
1783069021195956200,0.7571909,0.1475017607748508,0.670111676427722,0.8855319581747054,0.618934690952301,0.076424553990364,0.0717037692666053,-0.5392530439505353,-9.374231811925767,-2.829025155806541,100,walking
1783069021205919200,0.7671539,0.255785975209251,0.6269120016485452,0.7941784933403134,0.7053223252296448,0.002880823565647,0.1034561023116111,-0.5462325275743379,-9.392235086128116,-2.767299936516583,100,walking
1783069021215882200,0.7771169,0.3370789415393024,0.5578121619373559,0.692792002530396,0.7802397608757019,-0.0630771741271019,0.1345016211271286,-0.5580938284229486,-9.411870345446468,-2.697337634757161,100,walking
1783069021225845200,0.7870799,0.4003643593506887,0.3572837443739176,0.6053869830608367,0.8242626190185547,-0.1329971402883529,0.1724348813295364,-0.5749915160035715,-9.432355499592424,-2.6211551433086395,100,walking
1783069021235808300,0.797043,0.4079580293500796,0.0407207174450159,0.4802043138608336,0.8212875723838806,-0.1948239952325821,0.2134848833084106,-0.5972494154430925,-9.452476496601104,-2.5425094766169787,100,walking
1783069021245772300,0.807007,0.3762156777285039,-0.3808224408715963,0.4260781713977455,0.76603764295578,-0.2733814120292663,0.2709726691246032,-0.6256614170655608,-9.470867308816311,-2.4660873311936853,100,walking
1783069021255735000,0.8169697,0.3652901598926633,-0.7557476403981447,0.3209644767582416,0.6871982216835022,-0.3409267067909241,0.3567836880683899,-0.6624705870900303,-9.486497424146531,-2.395390723810345,100,walking
1783069021265698300,0.826933,0.4091016098946333,-1.1526841807246206,0.2285398755609989,0.6138936281204224,-0.4005964398384094,0.4726349115371704,-0.7103221062630415,-9.498969952228665,-2.33139741345793,100,walking
1783069021275661300,0.836896,0.4968554428018629,-1.6625199550002812,0.0769914697438478,0.56202632188797,-0.473637044429779,0.5959202647209167,-0.77084196835123,-9.50852571608126,-2.272474538237601,100,walking
1783069021285624300,0.846859,0.496171698321402,-2.2689497251123187,-0.1942927380442619,0.5258209109306335,-0.5171376466751099,0.6953810453414917,-0.8434807227782904,-9.515460483780505,-2.2169677550710736,100,walking
1783069021295587300,0.856822,0.3832420692339539,-2.864538367736339,-0.3639221594750881,0.5071179270744324,-0.5100492835044861,0.7447916865348816,-0.9232842542681844,-9.520367545044422,-2.163456821896881,100,walking
1783069021305550300,0.866785,0.0988283307597041,-3.314136238670349,-0.3211994545578956,0.4880579710006714,-0.4780069291591644,0.7287541031837463,-1.003986049772054,-9.523871753773092,-2.111459362025559,100,walking
1783069021315513000,0.8767477,-0.1819332418825477,-3.5611966903060672,-0.2474531042151153,0.4933001101016998,-0.4978333115577698,0.6435585021972656,-1.0795117578122764,-9.526855738019943,-2.0601080911032854,100,walking
1783069021325476000,0.8867107,-0.2716892083924263,-3.7389071268618106,-0.3652371875964105,0.5251872539520264,-0.5785795450210571,0.5272934436798096,-1.1459773034971206,-9.530655714824794,-2.0059199893198905,100,walking
1783069021335439000,0.8966737,-0.244022983635962,-3.907935659790039,-0.6215162800848484,0.5810044407844543,-0.6697458624839783,0.4315103888511657,-1.2035710490055382,-9.535955574798583,-1.9461155089594424,100,walking
1783069021345402400,0.9066371,-0.1906751320689916,-4.116130081936717,-0.8239566687494516,0.6290225386619568,-0.7328177690505981,0.368169218301773,-1.254824266380817,-9.542640751650929,-1.8798450474552808,100,walking
1783069021355365400,0.9166001,-0.1938597534544766,-4.354607414144278,-0.9117508336670695,0.6209900975227356,-0.766288697719574,0.312328040599823,-1.3010202003665268,-9.549869533860685,-1.8104564539305863,100,walking
1783069021365328400,0.9265631,-0.4187564502075314,-4.526828605633974,-0.9393763610869644,0.5388092398643494,-0.8033846616744995,0.2082658261060714,-1.3400839443847536,-9.556763385027647,-1.744373916213959,100,walking
1783069021375291400,0.9365261,-0.870347102393955,-4.494183058094978,-0.92071126197502,0.3921322524547577,-0.798481822013855,0.0390751622617244,-1.3659868857957422,-9.563072129783034,-1.6888189099915325,100,walking
1783069021385254100,0.9464888,-1.3443245045639574,-4.258233783060312,-0.7230195291422307,0.2021567225456237,-0.7148124575614929,-0.1637280136346817,-1.3726454669021069,-9.56887877023518,-1.6500827904924749,100,walking
1783069021395217200,0.9564519,-1.7719791314981876,-3.933133229410648,-0.3362432944327592,-0.0096271000802516,-0.5590702295303345,-0.3583872020244598,-1.3579906263448298,-9.574054711568357,-1.6320895992927251,100,walking
1783069021405180200,0.9664149,-1.9904782361686228,-3.4584026707857847,0.0878261674910783,-0.2318495213985443,-0.3831487596035003,-0.5241721868515015,-1.3232466452218592,-9.578025368764996,-1.6373238466843962,100,walking
1783069021415143200,0.9763779,-1.938976012468338,-2.815800932574272,0.3392899686522782,-0.4434725344181061,-0.2750540971755981,-0.6661714911460876,-1.2716482676707208,-9.580177578362822,-1.6653782670408486,100,walking
1783069021425106200,0.9863409,-1.7242527730748056,-1.896293055039644,0.3149216894626617,-0.6268582940101624,-0.2158147245645523,-0.7702171802520752,-1.2069983931057156,-9.58001332771182,-1.7137341555394232,100,walking
1783069021435069400,0.9963041,-1.4750275446206331,-0.8079314166218042,0.1019577148266136,-0.7658476233482361,-0.1481196284294128,-0.8424856662750244,-1.133006251308322,-9.57721755951345,-1.778646918824315,100,walking
1783069021445032400,1.0062671,-1.187693827046454,0.149825235286355,0.124608376443386,-0.8504427075386047,-0.059278704226017,-0.8719671368598938,-1.0528299409832804,-9.571906593623757,-1.8548681348480285,100,walking
1783069021454995200,1.0162299,-0.9378639837626368,0.9619207858502864,0.2197264545083045,-0.8821080923080444,0.0402131974697113,-0.8668540716171265,-0.969865753505379,-9.564287350791693,-1.9375659995399412,100,walking
1783069021464959200,1.0261939,-0.7941604462269694,1.6950585350334644,0.231723181772232,-0.8583473563194275,0.1446642428636551,-0.841721773147583,-0.8865691192027181,-9.554923310118912,-2.0218376894198355,100,walking
1783069021474922200,1.0361569,-0.716502694594115,2.34073193577528,0.2599113115109503,-0.7562901973724365,0.242406353354454,-0.7962173223495483,-0.8045635476239025,-9.545183421871066,-2.100603475359827,100,walking
1783069021484885200,1.0461199,-0.6787917534243315,2.854903693428636,0.3033464024811983,-0.5801956057548523,0.2981194257736206,-0.7539910674095154,-0.7251081719845532,-9.53682066719532,-2.16648420689404,100,walking
1783069021494848300,1.056083,-0.6027768736276775,3.3227789793312548,0.2517408645369112,-0.3510405421257019,0.3063575625419616,-0.7221086621284485,-0.6483430583424866,-9.53169148761332,-2.2128910071514545,100,walking
1783069021504811300,1.066046,-0.5564606377305462,3.608792554217577,0.137715695297718,-0.1192028075456619,0.281493216753006,-0.7094482779502869,-0.5737523295974358,-9.530849776092172,-2.236981346182525,100,walking
1783069021514774300,1.076009,-0.5596744852105155,3.6582401834756135,0.0408519426092505,0.1053164005279541,0.2470962107181549,-0.696121096611023,-0.5009566675756126,-9.53450829859972,-2.2388784119755027,100,walking
1783069021524737300,1.085972,-0.6000880364025011,3.700999128749967,0.0283002118110656,0.3197930157184601,0.24368417263031,-0.6617876291275024,-0.4309149804370477,-9.542402266719936,-2.2197430650033056,100,walking
1783069021534700000,1.0959347,-0.6438986461542546,3.705259708803892,0.2004360631048679,0.5200242400169373,0.2658844590187073,-0.6041446328163147,-0.3648083677250892,-9.55414472696185,-2.1807399651311337,100,walking
1783069021544663300,1.105898,-0.502750638320297,3.6102994516491886,0.3896472601011395,0.6823502779006958,0.2491744607686996,-0.5264711380004883,-0.3051426747808233,-9.569019640010596,-2.1239475260682403,100,walking
1783069021554626300,1.115861,-0.3390626992350444,3.36107626902163,0.4138422285504639,0.7853978872299194,0.1481938511133194,-0.4291434586048126,-0.2551481339634396,-9.585700725698471,-2.0541692025735974,100,walking
1783069021564589300,1.125824,-0.181622148373071,2.977023175665736,0.2312210774689912,0.8225420713424683,-0.0075102583505213,-0.3209525346755981,-0.2177607439259067,-9.602826632544398,-1.977042854403704,100,walking
1783069021574552300,1.135787,-0.0806447863533161,2.588688459467888,0.1202285539239644,0.7999657392501831,-0.1533550173044204,-0.211040511727333,-0.1937905606757849,-9.619111412391064,-1.898821112212539,100,walking
1783069021584515300,1.14575,-0.0590960763627663,2.239918276417255,0.2059498580902814,0.6970920562744141,-0.2599043548107147,-0.0888293907046318,-0.1833167138638906,-9.633362640583517,-1.826225977731496,100,walking
1783069021594478000,1.1557127,-0.1528683110429905,1.8672306266844272,0.3349076619148254,0.515544056892395,-0.3484803140163421,0.0502621531486511,-0.1868090860242955,-9.644345222368836,-1.76693938376531,100,walking
1783069021604441000,1.1656757,-0.3068886781979352,1.4662871888041495,0.4211171879895031,0.2480217963457107,-0.436650663614273,0.1758118271827697,-0.2047223255893215,-9.6508649795264,-1.728949990980327,100,walking
1783069021614404000,1.1756387,-0.6218924199208616,1.05697339746356,0.3177947606809437,-0.0848149508237838,-0.498068630695343,0.2447380870580673,-0.2334360318384133,-9.651857497695088,-1.71974961643666,100,walking
1783069021624367400,1.1856021,-1.1202030299670993,0.7029974624633789,0.21757614460662,-0.3961232900619507,-0.4376633465290069,0.2745678722858429,-0.2667878096843138,-9.64698609226644,-1.7420837594501672,100,walking
1783069021634330400,1.1955651,-1.3069538281992077,0.4594248529434204,0.485709048756957,-0.6358436942100525,-0.2945490181446075,0.2983449101448059,-0.3007524952641688,-9.636998366737366,-1.7911476500876249,100,walking
1783069021644293400,1.2055281,-1.212308043821156,0.1888771427363157,0.8668412862300873,-0.809516191482544,-0.246290385723114,0.3225357234477997,-0.3352440177297219,-9.62277987177074,-1.860135846117884,100,walking
1783069021654256400,1.2154911,-1.0327101860836148,0.0917494784146547,0.6452624818533659,-0.9421735405921936,-0.3584839999675751,0.3261617720127105,-0.3720875284152105,-9.604960137441754,-1.94336854833886,100,walking
1783069021664219100,1.2254538,-0.9345647960867732,0.4018628908127546,-0.1912542471311986,-1.0201842784881592,-0.435922622680664,0.3098182082176208,-0.4105275875771418,-9.584224223405124,-2.035801917364448,100,walking
1783069021674182100,1.2354168,-0.7842686553530395,0.8566495625615119,-0.3809253167241812,-1.0507404804229736,-0.4235993325710296,0.3117262423038482,-0.4490445479001849,-9.561368248474595,-2.132836788836121,100,walking
1783069021684146200,1.2453809,-0.5911324304001405,1.161596385976672,-0.1334592068970203,-1.0547813177108765,-0.3784014880657196,0.3278580605983734,-0.4880540409805253,-9.536962706014512,-2.231263991449028,100,walking
1783069021694110000,1.2553447,-0.4999623593086376,1.3634417313575744,-0.1090963345348834,-1.036152958869934,-0.3417424261569977,0.3491202890872955,-0.5281975795920938,-9.511508531284331,-2.3286497221849856,100,walking
1783069021704073000,1.2653077,-0.3706799631722271,1.5130828422486782,-0.2304302193522453,-0.9784340858459472,-0.3020235002040863,0.3729947209358215,-0.5699420140616596,-9.48562531748712,-2.422495003835112,100,walking
1783069021714036000,1.2752707,-0.1770252307705581,1.6453689137130976,-0.2881991022318601,-0.8774887323379517,-0.26632821559906,0.3999209702014923,-0.6132111008152366,-9.460492045274377,-2.508677349641919,100,walking
1783069021723999000,1.2852337,-0.0332671865686774,1.7351731032788753,-0.2881324667364359,-0.7262190580368042,-0.2618604898452759,0.4192368686199188,-0.6585074556127191,-9.43746948160529,-2.5828145989984272,100,walking
1783069021733962000,1.2951967,0.0864336902193725,1.819459406206012,-0.2970779897361993,-0.5538707971572876,-0.2669391632080078,0.4156956672668457,-0.7047363420199603,-9.41790728752315,-2.6413559275552627,100,walking
1783069021743925000,1.3051597,0.2076560774862766,1.9094950664401051,-0.2433043139725923,-0.3784228563308716,-0.2542433142662048,0.3978948295116424,-0.7497931159079074,-9.402598659232256,-2.6831585950180887,100,walking
1783069021753888000,1.3151227,0.3015011399406939,1.911679424741864,-0.061233636380732,-0.2413769364356994,-0.22947458922863,0.3952538967132568,-0.7932103058952837,-9.39131563319564,-2.710055077511072,100,walking
1783069021763851000,1.3250857,0.3282857595570385,1.7643045052170752,0.1968506058335304,-0.1564386039972305,-0.184645339846611,0.4042135775089264,-0.8360060029834508,-9.382803825438025,-2.726623934996128,100,walking
1783069021773814000,1.3350487,0.4043242394249886,1.5431149924188852,0.4434712047472596,-0.1005397886037826,-0.1188387125730514,0.425588309764862,-0.8788251540124415,-9.375746308141949,-2.737416254906356,100,walking
1783069021783777000,1.3450117,0.6061226038590073,1.311524497115612,0.6813771668076515,-0.0421587638556957,-0.0349749699234962,0.4663096368312835,-0.9224564982071518,-9.36980873478651,-2.7433836388781665,100,walking
1783069021793740000,1.3549747,0.8834415617667138,1.0357587599992752,0.9076178255155682,0.0492389649152755,0.0320232398808002,0.5172856450080872,-0.9682863022942096,-9.365187504726649,-2.7433719484403727,100,walking
1783069021803703000,1.3649377,1.1741969243526458,0.6389461383134126,1.0179024930521845,0.1512537449598312,0.0735448524355888,0.5664558410644531,-1.0173767156124114,-9.362520331344008,-2.73469501324892,100,walking
1783069021813666000,1.3749007,1.428234521524608,0.186420397233963,1.0531529623925686,0.2447462230920791,0.0915296450257301,0.5908793807029724,-1.0692539831701666,-9.361898984575271,-2.7169737708583472,100,walking
1783069021823628800,1.3848635,1.5551777706563472,-0.1585229210048913,1.092164537832141,0.3040321767330169,0.0981388166546821,0.571029782295227,-1.121079082149267,-9.363067443832756,-2.691940159627795,100,walking
1783069021833592000,1.3948267,1.5465389755181966,-0.4080839572846889,1.2639654580831527,0.32123464345932,0.1101637110114097,0.5302318334579468,-1.1697514161858706,-9.365196857076883,-2.6636756036520004,100,walking
1783069021843555000,1.4047897,1.4924762536801397,-0.6530769549965858,1.5507462179496885,0.2985399961471557,0.0523259714245796,0.4804661571979522,-1.2147489341672508,-9.367406349819898,-2.635618845207989,100,walking
1783069021853518000,1.4147527,1.455742121653259,-0.9210691355019808,1.749250728470087,0.2263018637895584,-0.1881904900074005,0.4006434977054596,-1.2577715718790887,-9.368910324642062,-2.609966517557204,100,walking
1783069021863481000,1.4247157,1.3201165305025877,-0.98451781758368,1.3559718338683246,0.1376313865184784,-0.3892745971679687,0.2874737977981567,-1.2976707438081505,-9.369206677240133,-2.5892849640563127,100,walking
1783069021873444000,1.4346787,1.2614600511334837,-1.078279220342636,1.3452981719017028,0.0463588573038578,-0.4582152962684631,0.182699978351593,-1.3305926240704953,-9.36852044854164,-2.5750199995994567,100,walking
1783069021883407000,1.4446417,1.3226621233321725,-1.485223359942436,1.868496701097488,-0.0381509698927402,-0.4052332937717438,0.1200222223997116,-1.355582396159321,-9.366644717797636,-2.568800686693191,100,walking
1783069021893369900,1.4546046,1.269106620363891,-2.033880155521631,2.224835565836728,-0.1134675145149231,-0.2667312622070312,0.0978506430983543,-1.3741519259423016,-9.363266765797135,-2.571246034018696,100,walking
1783069021903334000,1.4645687,1.172231907889992,-2.573575646010041,2.2833073362886904,-0.1808870285749435,-0.0824959054589271,0.1282767206430435,-1.3889071581341326,-9.35792891190052,-2.582732181411981,100,walking
1783069021913297000,1.4745317,1.1753453637354074,-3.05711787212193,2.236954165914655,-0.2048612236976623,0.1310379803180694,0.1915381550788879,-1.402944159054011,-9.350682594034074,-2.601321438808739,100,walking
1783069021923260000,1.4844947,1.2398062915995716,-3.465149222436547,2.0713079689010976,-0.2195520102977752,0.1999517977237701,0.2575507164001465,-1.419222216898948,-9.342034592676162,-2.623471019035577,100,walking
1783069021933223000,1.4944577,1.2666079354159534,-3.591634498667717,1.5064806675046682,-0.244918555021286,0.1423676311969757,0.2825136184692383,-1.4400379181735217,-9.33211642525196,-2.647318050830066,100,walking
1783069021943186000,1.5044207,1.113775042746216,-3.097240039151907,0.616358458930254,-0.2758828699588775,0.1070059165358543,0.2684678435325622,-1.4624306595064698,-9.321185281392932,-2.673426305554807,100,walking
1783069021953149200,1.5143839,1.0968157246388497,-2.5360546013891696,0.5455243427723646,-0.2666971385478973,0.1102775707840919,0.235880047082901,-1.4828807423390449,-9.310155937856436,-2.7004554745167493,100,walking
1783069021963112200,1.5243469,1.104333699053526,-2.1820260594189165,0.6917085912078619,-0.2057674974203109,0.1138352826237678,0.2015484422445297,-1.5001250148676335,-9.300415465086695,-2.724385800680518,100,walking
1783069021973075000,1.5343097,1.1439520082145929,-2.0303595801800487,0.5484112963855267,-0.1290185451507568,0.0832884162664413,0.1723072528839111,-1.514454861254245,-9.293017171528934,-2.741649654692411,100,walking
1783069021983038000,1.5442727,1.2590722792141138,-2.1209359231621026,0.2138204453349113,-0.0384942330420017,0.0093595972284674,0.1441464573144912,-1.5276717779628932,-9.288332813104986,-2.750177536801994,100,walking
1783069021993001000,1.5542357,1.3502064022094011,-2.2978555016011,-0.1161424536541104,0.053646195679903,-0.0534719750285148,0.1098481938242912,-1.5400963752500711,-9.286637699624896,-2.7489687455341216,100,walking
1783069022002964000,1.5641987,1.2815735954880714,-2.438283378466964,-0.2977989974871277,0.1401057243347168,-0.0911402553319931,0.0493249334394931,-1.5495742515608668,-9.288066855645178,-2.738796603348851,100,walking
1783069022012927000,1.5741617,1.1689105083823204,-2.4735902541697024,-0.3276534530028701,0.2112963646650314,-0.1130117326974868,-0.0242125429213047,-1.553478857783973,-9.2927132201463,-2.720763810791075,100,walking
1783069022022890000,1.5841247,1.0157475069753823,-2.4238784210175277,-0.3472749760568142,0.2552571594715118,-0.1507412642240524,-0.0926214233040809,-1.551450274565816,-9.300078195956347,-2.696653451885283,100,walking
1783069022032853000,1.5940877,0.7990498987689614,-2.497024905771017,-0.452653751373291,0.2540391385555267,-0.1959235072135925,-0.1253674328327179,-1.5457413953997194,-9.308633842855691,-2.6702833313539625,100,walking
1783069022042816000,1.6040507,0.5732398865632713,-2.829760484343767,-0.779072694145143,0.2392204999923706,-0.2158263623714447,-0.1186866238713264,-1.5397493153780697,-9.317073754420877,-2.644186767067015,100,walking
1783069022052779000,1.6140137,0.1664259492143988,-3.352626420584321,-1.165528172467649,0.1965133398771286,-0.197595328092575,-0.1120493113994598,-1.5347120518632231,-9.324521147817372,-2.620751823204756,100,walking
1783069022062742000,1.6239767,-0.4119859331592917,-3.7156565996557473,-1.4237392559319737,0.1621521711349487,-0.1304817944765091,-0.1446104496717453,-1.527466903040558,-9.331096434554455,-2.6015125774666665,100,walking
1783069022072705000,1.6339397,-0.9793466985560954,-3.643236091089249,-1.501869082055986,0.1298540234565735,-0.0356788784265518,-0.2375204116106033,-1.5121191117830577,-9.33767581294477,-2.586828510814905,100,walking
1783069022082668000,1.6439027,-1.5123980748549102,-3.2856209228038784,-1.398142750121653,0.097948282957077,0.0309494137763977,-0.3918133080005646,-1.4828976934738456,-9.345288626036048,-2.5762317134767767,100,walking
1783069022092631000,1.6538657,-1.9721514291003344,-2.7175071470826864,-1.3506126449227331,0.0850285366177558,0.0843742117285728,-0.5733577013015747,-1.436443693073839,-9.354656173840164,-2.568545835149288,100,walking
1783069022102593800,1.6638285,-2.171827906009555,-1.9626585013508795,-1.198335340309143,0.1090356037020683,0.1312176138162613,-0.7442677021026611,-1.3718898262292143,-9.366404479300977,-2.5610101789474484,100,walking
1783069022112557000,1.6737917,-2.091814458096027,-1.0217197132527829,-0.9617010056197642,0.1746312528848648,0.1531293243169784,-0.871818482875824,-1.2923897346653044,-9.380787224918604,-2.5496947119459508,100,walking
1783069022122520000,1.6837547,-1.8269691973142328,-0.0753688369780778,-0.8337780978009104,0.2407218515872955,0.1572851985692978,-0.9602537751197816,-1.2024440908022225,-9.397439084511994,-2.5323192142531274,100,walking
1783069022132483000,1.6937177,-1.529623934943974,0.6234843652874231,-0.7727952213108539,0.325070858001709,0.1557322144508361,-1.009333848953247,-1.105793469407782,-9.415890687003731,-2.507709673653543,100,walking
1783069022142447000,1.7036817,-1.2427999204576017,1.231282501143217,-0.7071808856278657,0.4200410544872284,0.1470596194267273,-1.0079599618911743,-1.0070016712661831,-9.435762677687404,-2.4744138455122706,100,walking
1783069022152410000,1.7136447,-0.9440406996361912,1.853196256113052,-0.604419453202933,0.5282081961631775,0.1283773481845855,-0.9470044374465942,-0.9111663848426192,-9.456731815958022,-2.4311288305372,100,walking
1783069022162373000,1.7236077,-0.6869980754293501,2.2828654377400874,-0.497401678507775,0.623351514339447,0.1014234945178031,-0.8441963195800781,-0.8237430990640073,-9.478338667610288,-2.377585164137185,100,walking
1783069022172336000,1.7335707,-0.7505284444451331,2.253843341395259,-0.4781383212417364,0.6869751811027527,0.0665266066789627,-0.7436720132827759,-0.7467454918403178,-9.499894665858148,-2.316194437498599,100,walking
1783069022182299000,1.7435337,-0.9032484513249248,2.08166365095973,-0.502905536621064,0.6993330717086792,-0.0028253076598048,-0.6759824752807617,-0.6787202225580811,-9.520747484272718,-2.250575864031911,100,walking
1783069022192262000,1.7534967,-1.001630572687089,2.050171365109086,-0.4443839356780052,0.6515865325927734,-0.0693777203559875,-0.6297796964645386,-0.6175980106625706,-9.539982346096634,-2.1857963717378674,100,walking
1783069022202225000,1.7634597,-1.2063947281241416,2.0425047760039567,-0.3372533482581377,0.539246678352356,-0.1002080738544464,-0.5782818794250488,-0.5618727259071543,-9.556406826674936,-2.128325741152465,100,walking
1783069022212188000,1.7734227,-1.376626207101345,1.9751053104698657,-0.1479628024153411,0.3870360851287842,-0.1039646491408348,-0.5004188418388367,-0.512548576898314,-9.56906289463043,-2.083433290980756,100,walking
1783069022222151200,1.7833859,-1.439598211582005,1.849823564809561,0.0280751708835363,0.2190739661455154,-0.1207643970847129,-0.4056348204612732,-0.4715730809746309,-9.577558335775135,-2.053869050583243,100,walking
1783069022232114200,1.7933489,-1.4358900047138332,1.72246325930953,0.0268225404739379,0.0287276692688465,-0.1459163427352905,-0.3112075328826904,-0.4399668498881161,-9.58172948397994,-2.04139345376119,100,walking
1783069022242077200,1.8033119,-1.3483771409556269,1.610449576023221,-0.0822467599235475,-0.1434883028268814,-0.1596404165029525,-0.2071996331214904,-0.4182442629016935,-9.581644728305935,-2.046347715167701,100,walking
1783069022252040000,1.8132747,-1.2151684016883373,1.5542805295556783,-0.132738929798454,-0.2571659088134765,-0.1728033721446991,-0.082053042948246,-0.4078009025596082,-9.577997311714292,-2.065437177171558,100,walking
1783069022262003000,1.8232377,-1.0520144598819314,1.6279057377368211,-0.1371533852398395,-0.3185661435127258,-0.1758582890033722,0.0493734218180179,-0.4097952547146007,-9.572016483739018,-2.092596256123483,100,walking
1783069022271966000,1.8332007,-0.941773046965152,1.630634285917878,-0.2592360425978899,-0.3476115465164184,-0.1579570472240448,0.1534183472394943,-0.4232212110640481,-9.56456967486441,-2.123742651145905,100,walking
1783069022281929000,1.8431637,-0.9528638383653014,1.4369728315144776,-0.3803733819298446,-0.3438969850540161,-0.1275088489055633,0.2165571004152298,-0.4440032657973468,-9.55630862699747,-2.156432914609462,100,walking
1783069022291892000,1.8531267,-0.913912541745603,1.314538291978836,-0.3828447404794394,-0.3035479784011841,-0.0978938341140747,0.2531458139419555,-0.4688883354026824,-9.54819721673429,-2.1868818288870155,100,walking
1783069022301855000,1.8630897,-0.8785746863827109,1.339814772054553,-0.3153418145708739,-0.2511579990386963,-0.0905445739626884,0.2601611018180847,-0.4953977182742208,-9.540852699190378,-2.212934846293181,100,walking
1783069022311818000,1.8730527,-0.7457137376397848,1.3089917637676,-0.3056568713806569,-0.1998838037252426,-0.0994991138577461,0.2636612057685852,-0.5224649542242288,-9.534570257920029,-2.233693410553038,100,walking
1783069022321781000,1.8830157,-0.5724717517349869,1.1895318561285733,-0.3021064854227006,-0.1640903949737548,-0.1132157295942306,0.2609288096427917,-0.5498103495284915,-9.52913420434594,-2.2502622680380937,100,walking
1783069022331744000,1.8929787,-0.4493506547072902,1.120297576382756,-0.2496929920963942,-0.1587407737970352,-0.121000237762928,0.2502691745758056,-0.5767143942734226,-9.524094456613064,-2.2648168630912897,100,walking
1783069022341707000,1.9029417,-0.3579915273170918,1.1300450634151695,-0.0868000393137335,-0.1640686988830566,-0.1081275790929794,0.2444996982812881,-0.6028316360222176,-9.519029574438928,-2.2792698974661527,100,walking
1783069022351670000,1.9129047,-0.2789244203429669,1.1632096663922071,0.0631396161325275,-0.1888511180877685,-0.0638015195727348,0.2471145987510681,-0.6280291691102087,-9.513585922080278,-2.295134259943664,100,walking
1783069022361633000,1.9228677,-0.146943834631145,1.199299801427126,0.1710018788278103,-0.2310462296009063,0.00296898977831,0.2640235424041748,-0.6527194467958063,-9.507180146691203,-2.314710336420685,100,walking
1783069022371597000,1.9328317,-0.0020532792679965,1.1891373038530348,0.2956622777193785,-0.292279303073883,0.0656699836254119,0.300760805606842,-0.6783488319624215,-9.499262213173507,-2.339711945077777,100,walking
1783069022381560000,1.9427947,0.1430190624028444,1.173572070452571,0.4261041826218366,-0.3474040627479553,0.112228162586689,0.3394123315811157,-0.7065542050968855,-9.489532261797786,-2.3706448434799907,100,walking
1783069022391522800,1.9527575,0.275143732760474,1.2311252647548914,0.5358753476783633,-0.3866590857505798,0.1358188241720199,0.3581205606460571,-0.7366263219512998,-9.478252742892504,-2.4063458330668506,100,walking
1783069022401485800,1.9627205,0.4665043628755956,1.364453538748622,0.6229580033257603,-0.4078591763973236,0.1200582236051559,0.3456982374191284,-0.7666771768219769,-9.465981874862312,-2.444945320574194,100,walking
1783069022411448800,1.9726835,0.5869909101486206,1.4823948585182427,0.6295604703307152,-0.4206366837024688,0.0954338833689689,0.3244428038597107,-0.7955855836592615,-9.453141097989676,-2.485066464690864,100,walking
1783069022421412000,1.9826467,0.7016605147711932,1.5970546723991632,0.6660621087759733,-0.4122748970985412,0.0761845558881759,0.3141342401504516,-0.8234654511664062,-9.44016003586352,-2.5250100602835417,100,walking
1783069022431375000,1.9926097,0.811379730444774,1.6700433362424372,0.7410916307970881,-0.3876121938228607,0.0584343001246452,0.3178265392780304,-0.851482535187155,-9.427406937274336,-2.563079678697884,100,walking
1783069022441338000,2.0025727,0.9281430194109678,1.63396898329854,0.7643506335705518,-0.3495098352432251,0.0284476391971111,0.3258189558982849,-0.8805582614153623,-9.415124378806352,-2.59815946764648,100,walking
1783069022451301000,2.0125357,1.0449753550253809,1.5417583171129223,0.7016349419385194,-0.3110266923904419,0.0128907859325408,0.3299778997898102,-0.910750424452871,-9.403568381047249,-2.629416483436525,100,walking
1783069022461264000,2.0224987,1.0548969565156847,1.4327473227739334,0.71202189591825,-0.257855087518692,0.0118849100545048,0.333430677652359,-0.941621290469542,-9.393018929982183,-2.65611335170418,100,walking
1783069022471227000,2.0324617,0.9839875831644982,1.3541115929543972,0.7850476769015192,-0.1969116777181625,0.0164133887737989,0.3205786943435669,-0.9718668641947208,-9.38381446378529,-2.677664089255035,100,walking
1783069022481190000,2.0424247,0.9701401865325868,1.297275607010722,0.7867839991748332,-0.1176054179668426,0.0287046767771244,0.2995080351829529,-1.000366836361587,-9.376508524686098,-2.692717866002023,100,walking
1783069022491153000,2.0523877,0.9045175944779068,1.1309721151322123,0.7713397618055343,-0.0195978265255689,0.0432081222534179,0.2606867849826813,-1.0255744159195572,-9.371814229390024,-2.699569923853874,100,walking
1783069022501116200,2.0623509,0.8344861730050295,0.9592524434238672,0.782110746666789,0.0813825875520706,0.0298236068338155,0.2102462500333786,-1.0465225844673811,-9.370232513156532,-2.6970231619805096,100,walking
1783069022511079200,2.0723139,0.7755980037719011,0.7966267632752656,0.744696961812675,0.1780599355697631,0.0007450799457728,0.1603153049945831,-1.0635007534056902,-9.371758699810504,-2.685047769765556,100,walking
1783069022521042200,2.0822769,0.684433412573114,0.5314081391364336,0.7150047111213207,0.2582490444183349,-0.0415363311767578,0.1069016084074974,-1.0764840805541724,-9.37618762216866,-2.6643340675607323,100,walking
1783069022531005000,2.0922397,0.6134414755050093,0.2773930460572242,0.760088884472847,0.3359987735748291,-0.1207606941461563,0.0411471724510192,-1.0855480423018335,-9.383289563128352,-2.6354966801330444,100,walking
1783069022540968000,2.1022027,0.575753111493215,0.0833586666882038,0.7579027726054192,0.3999361991882324,-0.2290866374969482,-0.0388991944491863,-1.0902071932192892,-9.392912546998264,-2.599043849265575,100,walking
1783069022550931000,2.1121657,0.481168628848344,-0.0849263543963432,0.7112561722427606,0.4508456885814667,-0.3155149519443512,-0.1208939105272293,-1.0895949796050786,-9.404791200840473,-2.5559885513931517,100,walking
1783069022560894000,2.1221287,0.3817681972891092,-0.2961357404500246,0.7653805611401796,0.4743304848670959,-0.3840665817260742,-0.1847037672996521,-1.0838678341299297,-9.4181878580302,-2.508658644941449,100,walking
1783069022570857000,2.1320917,0.3244202432353049,-0.5688356602549552,0.812456200569868,0.4752728044986725,-0.453086256980896,-0.2254138588905334,-1.0750026098247616,-9.43219358702898,-2.4593676675498486,100,walking
1783069022580820000,2.1420547,0.2894317858319729,-0.866774650734663,0.7947276516556739,0.4383611381053924,-0.5206930041313171,-0.2616930305957794,-1.0638065314192324,-9.445949725180864,-2.410963702125847,100,walking
1783069022590783000,2.1520177,0.2676737622059881,-1.043555112963915,0.7828228404588997,0.3859573602676391,-0.5893538594245911,-0.2897476851940155,-1.050876834154129,-9.458759522393343,-2.3659888343676925,100,walking
1783069022600746000,2.1619807,0.2731477366376668,-1.1183815136283637,0.7845119625896215,0.3150613605976105,-0.6616304516792297,-0.3079240322113037,-1.037197268369794,-9.470124966016412,-2.3262280479960142,100,walking
1783069022610709000,2.1719437,0.3420543918643146,-1.1630150206029417,0.8351204523205756,0.2345290929079055,-0.7588698863983154,-0.3107576370239258,-1.024252227405086,-9.479660856124758,-2.29288984201774,100,walking
1783069022620673000,2.1819077,0.4722714019697159,-1.2330658774286507,0.7850830404758453,0.1362794935703277,-0.88875412940979,-0.2930052578449249,-1.0142587297223509,-9.486972055920958,-2.266944522769749,100,walking
1783069022630636000,2.1918707,0.6249263807892799,-1.3861387163341043,0.6900520561724901,0.0321134068071842,-1.0153546333312988,-0.2522642314434051,-1.009794297659397,-9.491617251378296,-2.249425378822535,100,walking
1783069022640599000,2.2018337,0.6545910128213465,-1.6147656856566666,0.5901695401847362,-0.0626889988780021,-1.1134684085845947,-0.2098355442285537,-1.011775972995907,-9.493581829449534,-2.2402236891046163,100,walking
1783069022650562000,2.2117967,0.6283811243530363,-1.8396780183702703,0.5590006410695612,-0.1322009265422821,-1.1963528394699097,-0.1697697937488556,-1.019683312054351,-9.493274955457448,-2.237934555254131,100,walking
1783069022660525000,2.2217597,0.4908436351664364,-2.005799139419198,0.5258557657063007,-0.1820150911808014,-1.2753407955169678,-0.162745714187622,-1.0317835727579892,-9.491456507858633,-2.2401044466391205,100,walking
1783069022670487800,2.2317225,0.2794708021793514,-2.1447838317394257,0.4173880844637751,-0.2230400443077087,-1.3466439247131348,-0.2067375481128692,-1.043819536053762,-9.488791088041662,-2.245809964804351,100,walking
1783069022680450800,2.2416855,0.0661274728368967,-2.253666231262684,0.3385278982385993,-0.2657278478145599,-1.4099994897842407,-0.2797592878341675,-1.0517905879981817,-9.485853281024095,-2.2544879229091106,100,walking
1783069022690416600,2.2516513,-0.0654034694112837,-2.2319547501921653,0.335126565362513,-0.3082055151462555,-1.4552900791168213,-0.3529734313488006,-1.0541853741802274,-9.482725504392384,-2.2664992632202803,100,walking
1783069022700379600,2.2616143,-0.1059994644980877,-2.2434651552438734,0.3698470194794237,-0.3690057396888733,-1.4851542711257937,-0.3887807130813598,-1.0521954424720257,-9.478994501170517,-2.28296334515661,100,walking
1783069022710342700,2.2715774,-0.006614668899402,-2.36355926913321,0.3426303651213646,-0.4322773814201355,-1.5082014799118042,-0.3743089437484741,-1.0501260157868266,-9.473822651490568,-2.3052771760344504,100,walking
1783069022720305700,2.2815404,0.127307114008069,-2.5827695908129216,0.1828627047523856,-0.4787050485610962,-1.5486748218536377,-0.3258029222488403,-1.0522172159124166,-9.466948674067854,-2.332407028891891,100,walking
1783069022730268700,2.2915034,0.2612679868169129,-2.871760720205307,-0.0822702869296073,-0.4827607870101928,-1.597009778022766,-0.2635229825973511,-1.0610811250433323,-9.45882674241066,-2.36116243712455,100,walking
1783069022740231400,2.3014661,0.2453179188173264,-3.263561066687107,-0.4291441348396241,-0.4501866102218628,-1.6295408010482788,-0.2088994234800338,-1.077153138922155,-9.45024771463573,-2.3880827388845383,100,walking
1783069022750194400,2.3114291,-0.0067665715254843,-3.6869881390541783,-0.6699266752496361,-0.3874089121818542,-1.6215234994888306,-0.2116905897855758,-1.0965117732562124,-9.442515659078955,-2.4097651399910447,100,walking
1783069022760157700,2.3213924,-0.4980789932474493,-3.944951092976332,-0.707377138852328,-0.3096613883972168,-1.5676610469818115,-0.2864340841770172,-1.1120216232076288,-9.436839951530098,-2.4248373291775582,100,walking
1783069022770120700,2.3313554,-1.2313996977820991,-3.949938233739137,-0.6003221008867025,-0.2345013618469238,-1.470495104789734,-0.4434478282928467,-1.1149178561057895,-9.43424759694934,-2.433580315342545,100,walking
1783069022780083700,2.3413184,-2.039499748969078,-3.690913203543424,-0.415483273755759,-0.1802876591682434,-1.340002417564392,-0.6528559327125549,-1.0976523946586996,-9.435296813741326,-2.437357788054645,100,walking
1783069022790046700,2.3512814,-2.681354468205571,-3.1910815214097497,-0.1732949582010507,-0.169748917222023,-1.187414288520813,-0.876908540725708,-1.0562935254406185,-9.439379699140789,-2.439826516255736,100,walking
1783069022800009700,2.3612444,-3.060939476236701,-2.5722604717582462,0.0653770197957754,-0.2058848142623901,-1.052909255027771,-1.0645644664764404,-0.9916958194542675,-9.44483562645912,-2.4458121665365997,100,walking
1783069022809972500,2.3712072,-3.0951784304469823,-1.9806115066707133,0.2846075074806809,-0.2796555757522583,-0.9465330243110656,-1.172501564025879,-0.9103209469944238,-9.449607078644632,-2.45899181997478,100,walking
1783069022819935500,2.3811702,-2.8346722217828035,-1.4484668699532746,0.4205965251162648,-0.38371542096138,-0.8660123348236084,-1.21142840385437,-0.8200766124457121,-9.45173590736687,-2.482453067322075,100,walking
1783069022829898500,2.3911332,-2.5570345533147454,-0.9025017976760864,0.4684016478642821,-0.4946936070919037,-0.784000813961029,-1.2168923616409302,-0.7261641107782721,-9.450176402965187,-2.517389940668642,100,walking
1783069022839861500,2.4010962,-2.303479478962719,-0.1942261025488376,0.6141472126215696,-0.6061722636222839,-0.6930360198020935,-1.2006081342697144,-0.6309139307662844,-9.444380868428944,-2.56437381016165,100,walking
1783069022849824800,2.4110595,-2.044034323658794,0.6667348934710026,0.832264478367567,-0.6812906265258789,-0.5878020524978638,-1.1634877920150757,-0.5360171307692304,-9.434601232692598,-2.621331668919325,100,walking
1783069022859787800,2.4210225,-1.8503978575661777,1.516719737446308,1.0353072168394923,-0.7051549553871155,-0.4734690189361572,-1.1024495363235474,-0.4433970069998875,-9.421775653389096,-2.6840149195864798,100,walking
1783069022869750800,2.4309855,-1.5980723250091076,2.229790265634656,1.1300813037723303,-0.6607199907302856,-0.3874094784259796,-1.0178380012512207,-0.3552969544708728,-9.407457205179334,-2.746616044928133,100,walking
1783069022879714800,2.4409495,-1.3070882682338356,2.7738988963902,1.114295121097565,-0.5338782072067261,-0.3512772917747497,-0.902340531349182,-0.275329482857231,-9.39386707124412,-2.8017580864354965,100,walking
1783069022889677600,2.4509123,-1.1116624345064163,3.153745770227909,0.9829501298755406,-0.3375824391841888,-0.3431417047977447,-0.7715516686439514,-0.2067944374219514,-9.383608127558231,-2.8417481515184044,100,walking
1783069022899640600,2.4608753,-1.0552236311867833,3.417375079348683,0.7758110620006918,-0.0860886648297309,-0.3305675983428955,-0.6512870192527771,-0.1499577756248414,-9.378788744577763,-2.8611607079967856,100,walking
1783069022909603600,2.4708383,-1.0495923473015427,3.5698265714854,0.6501645746812224,0.1890728920698166,-0.3011835515499115,-0.5547369122505188,-0.1029164403235539,-9.381002328974008,-2.8559724917039278,100,walking
1783069022919566600,2.4808013,-1.0746319498814645,3.6785330299198624,0.6256114404439925,0.4539133608341217,-0.278801828622818,-0.4925787150859833,-0.0621650583122158,-9.390649278241396,-2.8252842157125477,100,walking
1783069022929529600,2.4907643,-1.0637604272551835,3.719612059283256,0.5927613102436066,0.6573097705841064,-0.2855571806430816,-0.4434444606304168,-0.0261998031824245,-9.406439552569388,-2.772831559419632,100,walking
1783069022939492600,2.5007273,-1.077864355931431,3.563489185157418,0.5603209298878907,0.7763842344284058,-0.3070869743824005,-0.377349317073822,0.0043641620135196,-9.426140862861276,-2.7052263421803717,100,walking
1783069022949455600,2.5106903,-1.0604558327518403,3.258821763205528,0.6000120120242237,0.833362340927124,-0.3331027328968048,-0.2929890751838684,0.0275073717997875,-9.447534948545696,-2.62939748647511,100,walking
1783069022959418600,2.5206533,-1.012609135884419,2.9079198288232084,0.6423486402332782,0.8390687108039856,-0.3812068700790405,-0.1959203332662582,0.0414610692172311,-9.46907984087765,-2.550527655638754,100,walking
1783069022969381600,2.5306163,-0.932128654981032,2.587783035060763,0.6555605885058641,0.8063659071922302,-0.4318136572837829,-0.0972158908843994,0.0452266459955601,-9.489667870876191,-2.472759356303513,100,walking
1783069022979344600,2.5405793,-0.811398800471425,2.339270046529174,0.6577326718479395,0.7346581816673279,-0.4918822944164276,0.0119215184822678,0.0382212630288093,-9.508407642659543,-2.399813654819131,100,walking
1783069022989307600,2.5505423,-0.6720470284044742,2.1525123801648616,0.6639788727611303,0.6148568987846375,-0.5456686615943909,0.1225156337022781,0.0196271559269982,-9.524408929389717,-2.3357304742261764,100,walking
1783069022999270700,2.5605054,-0.6099391299398615,1.8826181654304264,0.6489771184623241,0.4513883888721466,-0.5692504048347473,0.2165617048740387,-0.0094109160175634,-9.536731235346195,-2.284964894237369,100,walking
1783069023009233700,2.5704684,-0.7061394868161529,1.543956703940034,0.6495265690386295,0.262125551700592,-0.5821868181228638,0.284027636051178,-0.0463879265935858,-9.544780101767184,-2.2506487831376494,100,walking
1783069023019196400,2.5804311,-0.8516547499489039,1.314573947814107,0.6794973444104194,0.078684888780117,-0.591071367263794,0.2992537319660187,-0.0874708055816125,-9.54838251017332,-2.234082702131569,100,walking
1783069023029159400,2.5903941,-0.9295233678534628,1.2648837419718504,0.6839604612991214,-0.0883479192852974,-0.618718683719635,0.2791116237640381,-0.1285642196633853,-9.547924245011806,-2.234056983168423,100,walking
1783069023039122700,2.6003574,-0.8827472228270024,1.3498492593348026,0.580733018797636,-0.222596526145935,-0.6494891047477722,0.2523316740989685,-0.1680080490403808,-9.544004441219569,-2.2481449836231766,100,walking
1783069023049085700,2.6103204,-0.7291375005658716,1.4298790738612412,0.4590928445100784,-0.322062999010086,-0.6600102186203003,0.2549047768115997,-0.2065465636081062,-9.537394667690991,-2.272850093551725,100,walking
1783069023059048700,2.6202834,-0.4637424604142084,1.4875328059285875,0.3621142332702874,-0.3743914663791656,-0.6665592193603516,0.3031902909278869,-0.2479340195998549,-9.528758356770872,-2.3047096052795646,100,walking
1783069023069011700,2.6302464,-0.1563133003977127,1.5373960302501917,0.2423831074744462,-0.3922955393791199,-0.6878653764724731,0.3632861077785492,-0.2951432588139548,-9.51891617719233,-2.3395538319066165,100,walking
1783069023078974700,2.6402094,0.1631593851665034,1.5696879420459269,0.0606175503090024,-0.3792265951633453,-0.7199032306671143,0.4227147996425628,-0.3488594687692821,-9.508560202872752,-2.3740144660435614,100,walking
1783069023088937500,2.6501722,0.4562456749180331,1.6114309882760047,-0.0798299080401659,-0.3323775827884674,-0.732614278793335,0.4710376858711242,-0.4085111331881955,-9.49838016964197,-2.4050522861249743,100,walking
1783069023098900500,2.6601352,0.6259333658747375,1.63788586448133,-0.1147699962571263,-0.2627196609973907,-0.7335663437843323,0.5050651431083679,-0.4724050748193636,-9.489071074026825,-2.429967093281448,100,walking
1783069023108863500,2.6700982,0.7249028586708008,1.6080349160969256,-0.0737201929882168,-0.1933390647172927,-0.735788106918335,0.5295001268386841,-0.5392024828070774,-9.480916993665694,-2.4478227757066486,100,walking
1783069023118826800,2.6800615,0.8302193824060261,1.4998615416258572,-0.040175943043828,-0.1355141103267669,-0.7475183010101318,0.534066379070282,-0.6077082656152546,-9.473899808380008,-2.4589216773480174,100,walking
1783069023128789800,2.6900245,0.8324535711988806,1.2792121270537375,-0.0050718964368104,-0.1068504527211189,-0.758716344833374,0.51909339427948,-0.6760823483351618,-9.467531442391872,-2.4655948715016245,100,walking
1783069023138752800,2.6999875,0.7798109452918172,0.9944020827382802,0.0750119863644242,-0.1011020243167877,-0.7588894367218018,0.4780546426773071,-0.7419527046058326,-9.461496838402748,-2.469812489196658,100,walking
1783069023148715800,2.7099505,0.7942263510700315,0.8455325407415628,0.2237736840724944,-0.1118557751178741,-0.7482702136039734,0.441879391670227,-0.8038032307758927,-9.455380985870956,-2.4738743318080902,100,walking
1783069023158679800,2.7199145,0.8945690319154411,0.7291448801547289,0.3602218436524271,-0.1420376300811767,-0.72901451587677,0.4320019781589508,-0.8629954244568944,-9.448676519796251,-2.479538933441043,100,walking
1783069023168642600,2.7298773,1.0666082179017364,0.4893050274223089,0.4332406103730201,-0.1818208843469619,-0.7053899168968201,0.4504301249980926,-0.9220584388002752,-9.440776121935247,-2.4883631681486964,100,walking
1783069023178605600,2.7398403,1.3025137999251484,0.1961217070370912,0.4434136293411254,-0.2244794070720672,-0.6736639142036438,0.4887143969535827,-0.9833367180403322,-9.431305698278546,-2.500781335695088,100,walking
1783069023188568600,2.7498033,1.4913269375145437,-0.111107674357295,0.4275257398575544,-0.25931116938591,-0.611098051071167,0.5384992957115173,-1.047501950893551,-9.420059497120976,-2.517064946497977,100,walking
1783069023198531600,2.7597663,1.5990236343845723,-0.4544873965412378,0.4752902383342385,-0.2847749888896942,-0.5383191704750061,0.5701980590820312,-1.1140483797948806,-9.407229826164246,-2.5363988847821948,100,walking
1783069023208494600,2.7697293,1.6932430100440978,-0.7425807003110647,0.5453045625418425,-0.2816261649131775,-0.4779907166957855,0.5810302495956421,-1.1810335654396562,-9.393421665564178,-2.5571818528309462,100,walking
1783069023218457600,2.7796923,1.7951383271589874,-1.0200772067427637,0.5470525752529501,-0.2262196540832519,-0.4261379241943359,0.5618088841438293,-1.2462674504376947,-9.379885307642818,-2.575838914766908,100,walking
1783069023228420600,2.7896553,1.89230953836143,-1.3608902933090925,0.5224766446620226,-0.1409488171339035,-0.3741783797740936,0.513197124004364,-1.306777594849467,-9.368275533869864,-2.588074126961827,100,walking
1783069023238383600,2.7996183,1.980228644832969,-1.7306699466407298,0.4832052492424845,-0.0268350411206483,-0.3195375204086303,0.4477382004261017,-1.3605791815333068,-9.3597210560143,-2.591299226488173,100,walking
1783069023248346600,2.8095813,1.9765094781793653,-2.121561946105957,0.4481052942886948,0.0995951071381568,-0.2601161897182464,0.3665373623371124,-1.406091078777611,-9.355044880896806,-2.5838828127518294,100,walking
1783069023258309600,2.8195443,1.9396229320697485,-2.52208452822566,0.4529796223267913,0.2092803418636322,-0.2134054154157638,0.2797138094902038,-1.44222768330276,-9.354503613626957,-2.565862587414682,100,walking
1783069023268272600,2.8295073,1.937789725293219,-2.9073101724922656,0.3954658832520246,0.2784430384635925,-0.1941647976636886,0.1836373805999755,-1.469124750317633,-9.357436744469403,-2.539772452868521,100,walking
1783069023278235600,2.8394703,1.814749913340807,-3.263523657286167,0.3024149668499827,0.2741412222385406,-0.1762537062168121,0.0786366686224937,-1.485996244011074,-9.362599241799115,-2.5107673076584933,100,walking
1783069023288198700,2.8494334,1.5581798750817777,-3.5068513521343467,0.3340902080520987,0.1948574185371399,-0.1496741771697998,-0.0225941650569438,-1.49278824223876,-9.368117128437756,-2.4860282954603434,100,walking
1783069023298161400,2.8593961,1.278025255356729,-3.6000235568284986,0.4268722443848848,0.0797875374555587,-0.0894867479801178,-0.1237356960773468,-1.4888646390542386,-9.372658863520622,-2.471220894689858,100,walking
1783069023308124400,2.8693591,1.1636895588636398,-3.506351001396775,0.5268535445719957,-0.0154028804972767,-0.019429575651884,-0.1982547789812088,-1.4749357746839522,-9.375800668677687,-2.467653557597101,100,walking
1783069023318087700,2.8793224,1.2730766930386423,-3.348808908122778,0.5529436791181565,-0.0533177703619003,0.0104071507230401,-0.2448712736368179,-1.4541381935879587,-9.378168566852809,-2.470998484110832,100,walking
1783069023328050700,2.8892854,1.4805572678275405,-3.2278573006212707,0.2651338684648275,-0.0671843439340591,0.0278294365853071,-0.2689284682273865,-1.4295309910759328,-9.38030850149095,-2.477226564845443,100,walking
1783069023338013700,2.8992484,1.5879719328857955,-3.130957015314698,-0.0903901727601885,-0.0592875368893146,0.0519390329718589,-0.2911099195480346,-1.402271812750399,-9.38263840574324,-2.483975746844709,100,walking
1783069023347976700,2.9092114,1.5641582188390195,-3.005785159769654,-0.3304983210399747,-0.0314719900488853,0.0946931913495063,-0.3185920119285583,-1.3720236817419529,-9.385705976620317,-2.489272976469993,100,walking
1783069023357939700,2.9191744,1.5373583285883068,-2.808823494777083,-0.4824158524304628,0.0007487940602004,0.1224244236946106,-0.3438696563243866,-1.338340461718291,-9.389783601322767,-2.4922303649708626,100,walking
1783069023367902500,2.9291372,1.5030926325015723,-2.6741566656559703,-0.6609773528575896,0.0363394767045974,0.113944873213768,-0.3610630631446838,-1.3022789682559668,-9.394864265587923,-2.492186525829136,100,walking
1783069023377865500,2.9391002,1.4115908452376722,-2.643300924143195,-0.9641405077263712,0.0715235620737075,0.0700730234384536,-0.3392962515354156,-1.2668914285324513,-9.4007316963166,-2.488298578479886,100,walking
1783069023387828500,2.9490632,1.2462784102231264,-2.703576821407676,-1.3002607603013514,0.1100584641098976,0.0140197370201349,-0.2876424193382263,-1.236402328374982,-9.406893726077676,-2.480333590950072,100,walking
1783069023397791700,2.9590264,0.8148286287896335,-2.8955811562538147,-1.6405273189008236,0.1721932142972946,0.0017875719349831,-0.2465258836746215,-1.2113682787530125,-9.413607544502616,-2.4671745419085025,100,walking
1783069023407754800,2.9689895,0.1352156951755285,-3.0628163760244846,-1.9190134208917615,0.2435092031955719,0.0797991752624511,-0.2690128684043884,-1.1867190637301652,-9.42174818086028,-2.448010699494183,100,walking
1783069023417717800,2.9789525,-0.7158821515429764,-3.066364423894882,-1.8712328480631115,0.3072066903114319,0.22132009267807,-0.3887957334518432,-1.1526424604747445,-9.4322660677433,-2.4236659473106266,100,walking
1783069023427680800,2.9889155,-1.5815093127429485,-2.835886858269572,-1.6512749228864907,0.338806539773941,0.3498813211917877,-0.5817556977272034,-1.1002958218395709,-9.445469832709431,-2.396422112684697,100,walking
1783069023437643500,2.9988782,-2.0941677432239056,-2.3067659532874822,-1.4281792842060326,0.3360427021980285,0.4350976943969726,-0.798762321472168,-1.0256268767591563,-9.460884843984246,-2.3685757821209728,100,walking
1783069023447607600,3.0088423,-2.2824027886644003,-1.6355378400504588,-1.247315205924958,0.3279347121715545,0.4934229850769043,-0.9555266499519348,-0.9313639542188494,-9.477298218646643,-2.341742574122548,100,walking
1783069023457570600,3.0188053,-2.148354968224466,-1.0518535702317953,-1.0835615446597338,0.3185188472270965,0.545750081539154,-1.0368635654449463,-0.82464508940503,-9.493556695008277,-2.315756192211807,100,walking
1783069023467533600,3.0287683,-1.8497227347835896,-0.5457505527436733,-0.8891215070992707,0.3150590062141418,0.5663731694221497,-1.0652951002120972,-0.71207318771407,-9.508848372164367,-2.290228806114942,100,walking
1783069023477496600,3.0387313,-1.5413528050519525,0.0791466019511222,-0.8031313228636979,0.327678918838501,0.560081958770752,-1.0638266801834106,-0.5981656535051763,-9.52307563495934,-2.2635415824584664,100,walking
1783069023487459600,3.0486943,-1.2980351932063698,0.7143950547903776,-0.7384134976290166,0.3432031869888305,0.5729215741157532,-1.0362704992294312,-0.4854952964084222,-9.53627998444736,-2.2347360514737664,100,walking
1783069023497422600,3.0586573,-1.1571486127875743,1.233725802642107,-0.5558877697460353,0.374101459980011,0.5937663912773132,-0.965086042881012,-0.3772352665672078,-9.548488308635353,-2.203279567588865,100,walking
1783069023507385900,3.0686206,-1.1522915281452235,1.589505572193861,-0.4183914162874221,0.405519962310791,0.6079175472259521,-0.8744450211524963,-0.2764484038845636,-9.559952536457777,-2.1682439100429414,100,walking
1783069023517348600,3.0785833,-1.1789010834556073,1.8327642934590576,-0.315821853172779,0.4318476915359497,0.6132577061653137,-0.7763954401016235,-0.1845969081338495,-9.570824059084057,-2.129705358942598,100,walking
1783069023527311600,3.0885463,-1.22537386162132,2.0473335113346574,-0.2449038581237196,0.4598541557788849,0.581220269203186,-0.689293622970581,-0.102061312198406,-9.581288754475116,-2.087797185278684,100,walking
1783069023537274600,3.0985093,-1.3474825302034616,2.180548388081789,-0.2143523602545261,0.4602366089820862,0.5351611375808716,-0.6228402853012085,-0.027986273323954,-9.591201076680422,-2.0441277010306718,100,walking
1783069023547237600,3.1084723,-1.5548700198814271,2.2049171056628225,-0.153303432790935,0.4415813684463501,0.4998086988925934,-0.5771045088768005,0.0397892863803776,-9.600306174156067,-2.000729434939473,100,walking
1783069023557200600,3.1184353,-1.7494205320790408,2.229341937345266,-0.0324601079694926,0.4042790234088897,0.5017251372337341,-0.5357980728149414,0.103107606380945,-9.608270869424938,-1.9598150946184991,100,walking
1783069023567163600,3.1283983,-1.833043110400438,2.279799620428681,0.1531736689314246,0.3469990491867065,0.4930774271488189,-0.4811800718307495,0.1615910764038562,-9.614884150084851,-1.923086807810515,100,walking
1783069023577126700,3.1383614,-1.8244073840022088,2.2746984978973863,0.2394868015110492,0.2932274043560028,0.4660785496234894,-0.4087364971637726,0.2135587621914222,-9.620109775778651,-1.8916357307530935,100,walking
1783069023587089700,3.1483244,-1.6683207502335309,2.244637706154585,0.1887919486708938,0.2458415478467941,0.4243188500404358,-0.302745372056961,0.2563402846237644,-9.624314826253055,-1.864732818519324,100,walking
1783069023597052700,3.1582874,-1.4283090480655432,2.167778338357806,0.0857021610744297,0.2029047310352325,0.3873427212238312,-0.1689369529485702,0.2865741861774586,-9.627810851675273,-1.8421483540065584,100,walking
1783069023607015700,3.1682504,-1.2965806104838848,2.002482562217116,0.0105913905106484,0.1614719182252884,0.3485586047172546,-0.021344294771552,0.3023883163050748,-9.630859133329986,-1.8236008899249136,100,walking
1783069023616978700,3.1782134,-1.1410437195524572,1.890260204616189,0.04826631051898,0.13577800989151,0.2789342403411865,0.1150353848934173,0.303522014776431,-9.63370692397654,-1.8083035136803984,100,walking
1783069023626941700,3.1881764,-1.0396216459725052,1.8645120153754948,0.0116477676957845,0.1277418583631515,0.1904552727937698,0.2040779143571853,0.2921819065240211,-9.63653951705396,-1.7950288754351436,100,walking
1783069023636904700,3.1981394,-1.0409121972396969,1.846345075044036,-0.0512684149444103,0.1336652636528015,0.1224562525749206,0.2463018000125885,0.2731217802125029,-9.639471478852627,-1.7822414361849426,100,walking
1783069023646867500,3.2081022,-1.080557540538162,1.8192583306759595,-0.0361935954093933,0.1425084769725799,0.070088230073452,0.2720619738101959,0.2500687118072994,-9.642611530444023,-1.7685855435371398,100,walking
1783069023656830500,3.2180652,-1.2452137036010622,1.760597467392683,0.0116547819584608,0.1369283497333526,0.0594632849097251,0.2999303340911865,0.2237875482010655,-9.645750997513533,-1.754932719629258,100,walking
1783069023666793500,3.2280282,-1.3407330559432509,1.645319813874364,0.1265355451136827,0.1067477837204933,0.0519454814493656,0.3343730270862579,0.1945089380782097,-9.648537413361668,-1.7430702862694858,100,walking
1783069023676756700,3.2379914,-1.253248541496694,1.5412182188868522,0.2091070069469511,0.0443922653794288,0.0413466356694698,0.3736690282821655,0.1613429651279933,-9.65052829491794,-1.7354105652965603,100,walking
1783069023686719700,3.2479544,-1.1224705365076662,1.4464344873428343,0.2053534996323287,-0.0493028722703456,0.0408115610480308,0.4326058030128479,0.1233401192063931,-9.651065470534563,-1.735547635679692,100,walking
1783069023696679000,3.2579137,-1.005057624526322,1.3543477397978303,0.2867237689822912,-0.1484957635402679,0.0424043983221054,0.5054174661636353,0.0791002603250555,-9.649808163949846,-1.7450917090944944,100,walking
1783069023706642000,3.2678767,-0.8547303580019623,1.3414105168133974,0.3969961615592241,-0.235554963350296,0.0295275263488292,0.5689024329185486,0.0281322325497283,-9.646746438291668,-1.7634866129629312,100,walking
1783069023716605000,3.2778397,-0.7081874323219061,1.4203314933151006,0.352766705340892,-0.2978375256061554,0.0283927526324987,0.6224056482315063,-0.0286280304097686,-9.642018825247884,-1.7891380638308825,100,walking
1783069023726568000,3.2878027,-0.5640011162379757,1.5255664762467145,0.3039280017614364,-0.3219886124134063,0.0283567160367965,0.674866795539856,-0.0906634915425442,-9.63607423762977,-1.8188589560948312,100,walking
1783069023736531000,3.2977657,-0.4613652098888531,1.5804910756111143,0.2948994766533375,-0.3190514147281647,0.0232509039342403,0.6930926442146301,-0.1560395797565579,-9.629348144245148,-1.849783525060117,100,walking
1783069023746493700,3.3077284,-0.430028881784901,1.6755051087796686,0.2335306695856153,-0.2995187640190124,0.0416007041931152,0.6712520122528076,-0.2210442408422939,-9.62230874712765,-1.8795441648125648,100,walking
1783069023756457000,3.3176917,-0.4853260042561217,1.756160361728072,0.2177405413880944,-0.2717646360397339,0.0994027480483055,0.6341272592544556,-0.2821652836940251,-9.615277533316611,-1.9071493800967927,100,walking
1783069023766420700,3.3276554,-0.4557100336713716,1.8022294544637203,0.3022149142332375,-0.2310799360275268,0.1470898687839508,0.6065930724143982,-0.3390153894945979,-9.608523967403173,-1.9317685653075571,100,walking
1783069023776384000,3.3376187,-0.2434208530243486,1.8402642938256264,0.3049871554255485,-0.1690021753311157,0.1515794247388839,0.6013514399528503,-0.3940352293943986,-9.602415713655947,-1.951599347198009,100,walking
1783069023786347000,3.3475817,0.0298071092426776,1.7934294774144888,0.1561632061362266,-0.0816307142376899,0.1451427638530731,0.5982009172439575,-0.4484930880298838,-9.597479426297545,-1.96408502702266,100,walking
1783069023796310000,3.3575447,0.3222816237714141,1.704339573597908,0.0626022943854331,0.0297954119741916,0.1330248564481735,0.5856686234474182,-0.5025950824324041,-9.59413186943531,-1.9673393526434897,100,walking
1783069023806273000,3.3675077,0.4533258419485762,1.634817709082365,-0.0257289000183343,0.1472908109426498,0.1222174316644668,0.5489090085029602,-0.5544808620901778,-9.59284475223422,-1.9596629727967083,100,walking
1783069023816236000,3.3774707,0.5116310601945966,1.5935118852257728,-0.0239063607662916,0.2666632831096649,0.0919093266129493,0.4829754829406738,-0.6017128611253574,-9.59388637024164,-1.9405361013919116,100,walking
1783069023826198800,3.3874335,0.5293602666959166,1.5440075573444365,-0.0355626040294766,0.3833554983139038,0.077848345041275,0.4077644944190979,-0.6426360788725316,-9.59735492313504,-1.9100259584464128,100,walking
1783069023836161800,3.3973965,0.5587739927068353,1.4183587319374085,0.0021738369077444,0.4818911254405975,0.0773103907704353,0.3411476612091064,-0.6769877727422863,-9.6030873293072,-1.8689029438108204,100,walking
1783069023846124800,3.4073595,0.6431186747577041,1.2309352951407433,0.1311636433057487,0.5552761554718018,0.0614341348409652,0.2918563485145569,-0.7058169037982821,-9.610492052605748,-1.819524726527184,100,walking
1783069023856087800,3.4173225,0.7582990784466266,0.9832523276925086,0.2070664410300552,0.5972848534584045,0.0277603231370449,0.2583301067352295,-0.7313642367046326,-9.618837856146692,-1.764494328700751,100,walking
1783069023866051000,3.4272857,0.9215718243271112,0.7201075872182846,0.2433095746695995,0.6239686012268066,-0.0213023703545331,0.2406298816204071,-0.7553245196152478,-9.627585226225852,-1.7057180223442614,100,walking
1783069023876014000,3.4372487,1.0464898512415588,0.4600590591937303,0.2670043385118246,0.6254602670669556,-0.0807571783661842,0.2224740535020828,-0.7783392653040587,-9.636285834553837,-1.6451665230087935,100,walking
1783069023885977000,3.4472117,1.1463557814206928,0.2211573640942573,0.3102408381700515,0.5950243473052979,-0.1655494719743728,0.2067652940750122,-0.8009920458126812,-9.644435823261738,-1.5854526435412466,100,walking
1783069023895939800,3.4571745,1.2040938307706266,-0.0024327801048755,0.3591277648054063,0.5287718176841736,-0.2813839316368103,0.1939834654331207,-0.8237150420133024,-9.651588033103945,-1.529293680076301,100,walking
1783069023905902800,3.4671375,1.171957109536603,-0.2581283736169338,0.3819027834542095,0.4313437342643738,-0.3981435596942901,0.1742568910121917,-0.8464953944243491,-9.657307579794525,-1.479943665973842,100,walking
1783069023915865900,3.4771006,1.067385485884547,-0.5657312644988298,0.3719587509363889,0.2999963760375976,-0.4768826067447662,0.1599144339561462,-0.868966023299098,-9.661250764462352,-1.44067080924958,100,walking
1783069023925828900,3.4870636,0.9395087552949786,-0.9212702110320328,0.4514547508470714,0.1425550580024719,-0.5480619072914124,0.1508963406085968,-0.8911760284762829,-9.663047584751247,-1.4148217899829147,100,walking
1783069023935791900,3.4970266,0.7790302432429045,-1.3205167818665504,0.5009884509533643,-0.0368533171713352,-0.6393638253211975,0.148042231798172,-0.9138537972956896,-9.662434421288966,-1.4045001563243569,100,walking
1783069023945755000,3.5069897,0.6655274173773825,-1.643148315054178,0.4038474887587129,-0.2197766005992889,-0.7544440031051636,0.143849104642868,-0.9377179994206876,-9.659278587606549,-1.410459210859239,100,walking
1783069023955718000,3.5169527,0.610245675138384,-1.863529434078932,0.1877940236747264,-0.3745219707489013,-0.8785800933837891,0.1320318728685379,-0.9624925213236362,-9.65377706758082,-1.4312823647879065,100,walking
1783069023965681000,3.5269157,0.587726457881555,-2.054479291436076,0.0161095694102346,-0.4925258457660675,-0.9865681529045104,0.1160275563597679,-0.9878571911394596,-9.646282912433149,-1.464152514863014,100,walking
1783069023975644000,3.5368787,0.5454387833807617,-2.2276380560368296,-0.1314775315605104,-0.5900406837463379,-1.0771596431732178,0.108012244105339,-1.0139539015568793,-9.637126961553095,-1.5060067663826049,100,walking
1783069023985607000,3.5468417,0.5189711938243359,-2.3545658153384923,-0.2958228751085698,-0.6675516963005066,-1.149523377418518,0.1006373688578605,-1.0410567933421582,-9.626467620372772,-1.5548947159312665,100,walking
1783069023995570000,3.5568047,0.4086320926867425,-2.5053888294905424,-0.4554489350497722,-0.7191368937492371,-1.2107343673706057,0.0892044156789779,-1.068833054344356,-9.614508887031674,-1.609101084023714,100,walking
1783069024005533000,3.5667677,0.2631733089815825,-2.632794727697968,-0.6166162330836057,-0.7548105716705322,-1.242721438407898,0.050282210111618,-1.095607444827631,-9.601725393304228,-1.666404541348666,100,walking
1783069024015496000,3.5767307,0.0556296058285981,-2.699661109268665,-0.6872258928358554,-0.7729874849319458,-1.2507929801940918,-0.0137276630848646,-1.1185055783994495,-9.588578911483287,-1.725830105394125,100,walking
1783069024025458700,3.5866934,-0.1063507621537894,-2.70224294245541,-0.6850356893151998,-0.787387490272522,-1.2804372310638428,-0.0901695117354393,-1.1356414221175015,-9.575522446033355,-1.786079553043097,100,walking
1783069024035422000,3.5966567,-0.1325149848494678,-2.6481840200096367,-0.7390703541025518,-0.7764123678207397,-1.33189857006073,-0.1678395420312881,-1.146737181953713,-9.562843581724168,-1.8459192508473992,100,walking
1783069024045385000,3.6066197,-0.0960736252240836,-2.614004687032103,-0.900092982968688,-0.7689404487609863,-1.3778910636901855,-0.2186743468046188,-1.1535500768389553,-9.550634673014285,-1.90396607388556,100,walking
1783069024055348000,3.6165827,-0.0973430606380105,-2.710889190247655,-0.9937959335386752,-0.73781818151474,-1.4253607988357544,-0.2618016004562378,-1.15751795755662,-9.538894550859927,-1.9596011596068736,100,walking
1783069024065311000,3.6265457,-0.1386901663530617,-2.8267431823492046,-1.058157638812065,-0.7257539629936218,-1.4331142902374268,-0.3016259968280792,-1.1591168441206217,-9.527636659264564,-2.0127051194153727,100,walking
1783069024075274000,3.6365087,-0.2570071875672787,-2.836946596455574,-1.0669107079796492,-0.7346372008323669,-1.3745092153549194,-0.3341282904148102,-1.1575170077085497,-9.516534835013749,-2.06545295926258,100,walking
1783069024085237000,3.6464717,-0.5160561100952327,-2.87641760610044,-0.9229904589533804,-0.7705627083778381,-1.2668991088867188,-0.3575386703014374,-1.152253461157158,-9.504897004190086,-2.121236951935291,100,walking
1783069024095199700,3.6564344,-0.8498777303390205,-2.942509496167302,-0.7157587443590164,-0.818320631980896,-1.153545379638672,-0.4016115665435791,-1.142397326118499,-9.492225154143572,-2.1824220729991795,100,walking
1783069024105162800,3.6663975,-1.1370328764759003,-2.825836588898301,-0.5228165441408753,-0.8576667904853821,-1.0493160486221311,-0.4738538861274719,-1.1254875462412834,-9.478713346141577,-2.2489203519098457,100,walking
1783069024115126000,3.6763607,-1.3952064044088124,-2.5291952370136976,-0.3469130108766257,-0.9071065187454224,-0.9447848796844482,-0.5790290236473083,-1.0986538267862052,-9.464407757413388,-2.3212751017637547,100,walking
1783069024125089000,3.6863237,-1.6303589761078356,-2.227537518271804,-0.1014572179585695,-0.9656751155853271,-0.8597398996353149,-0.6798719763755798,-1.0605741253692655,-9.449133615913986,-2.399885112620145,100,walking
1783069024135052800,3.6962875,-1.7777862103417514,-1.8180033621788023,0.2367366260200738,-0.9912915229797364,-0.7700241804122925,-0.7764706611633301,-1.0119074904210863,-9.432798567184806,-2.4836945918157696,100,walking
1783069024145016000,3.7062507,-1.8846935103997584,-1.2408920410096644,0.53593730699867,-0.970550537109375,-0.6737203598022461,-0.8644922375679016,-0.9528842235662044,-9.416147876635192,-2.568763861814141,100,walking
1783069024154979000,3.7162137,-1.8760744428753853,-0.5754600468307733,0.8598737853050231,-0.9052605032920836,-0.5916734337806702,-0.9352787733078004,-0.8847393464922905,-9.39998117021024,-2.6510359023094177,100,walking
1783069024164942000,3.7261767,-1.8502397443950176,0.0695960987955331,1.028877183791995,-0.8071037530899048,-0.504714846611023,-0.9855024218559264,-0.809269460292533,-9.38513548325598,-2.7266654360502955,100,walking
1783069024174904800,3.7361395,-1.8396315488800403,0.6061275722950696,1.1957122983291744,-0.6754703521728516,-0.4115905165672302,-1.0076215267181396,-0.7284488607145846,-9.372346728831529,-2.7926442211315035,100,walking
1783069024184867800,3.7461025,-1.8491751839034256,1.0954384449362755,1.4253604273930192,-0.5118499994277954,-0.3415083587169647,-1.0078516006469729,-0.6446849742263555,-9.362466555330156,-2.845869907623529,100,walking
1783069024194830800,3.7560655,-1.7878084226623177,1.5374766942709683,1.5454118711844085,-0.3082505166530609,-0.2804141342639923,-0.9795709848403932,-0.5607537683472037,-9.35663887208998,-2.882573498381674,100,walking
1783069024204793900,3.7660286,-1.6728486029215155,1.8376468048036096,1.6369634889394045,-0.0761987343430519,-0.2434284687042236,-0.9260603785514832,-0.4793890519551932,-9.356038568109271,-2.8991563843920827,100,walking
1783069024214756900,3.7759916,-1.539050373328477,2.0000217250615355,1.7227157727658748,0.1718891113996505,-0.2330562621355056,-0.8531065583229065,-0.4032456869406625,-9.361294004419443,-2.8937796597898005,100,walking
1783069024224720100,3.7859548,-1.43254376302585,2.090589884737134,1.761124998398125,0.3921892344951629,-0.2637909650802612,-0.7807533740997314,-0.3340777138967067,-9.372404011976718,-2.866497685110569,100,walking
1783069024234683000,3.7959177,-1.376328539329022,2.1331085915148256,1.7832526590541005,0.5854244828224182,-0.3350502252578735,-0.7094680070877075,-0.2728275282399728,-9.388586500492693,-2.819642410433292,100,walking
1783069024244646000,3.8058807,-1.4359129471980034,2.106174991881847,1.8741680247321724,0.7318413257598877,-0.414126306772232,-0.6455437541007996,-0.2198271932027302,-9.40864027748406,-2.75673061170727,100,walking
1783069024254609000,3.8158437,-1.5986403341554103,2.007458597064018,2.023652191495896,0.8170241117477417,-0.4921737015247345,-0.5854977369308472,-0.1742660134566016,-9.43098011958599,-2.6826561984539032,100,walking
1783069024264572000,3.8258067,-1.7502489457271992,1.826032939377427,2.2236174222186205,0.8315423727035522,-0.5935839414596558,-0.5153055787086487,-0.1366812102839816,-9.45365956890583,-2.6038462811112404,100,walking
1783069024274535000,3.8357697,-1.7940784428425132,1.5755933666974304,2.3659917569771407,0.7632235288619995,-0.7025961875915527,-0.4283663928508758,-0.1087132900340482,-9.474812247049808,-2.527151456226408,100,walking
1783069024284498000,3.8457327,-1.895884766499698,1.212666063478589,2.454232642748952,0.6258018016815186,-0.7933518290519714,-0.3442428708076477,-0.0907041980122681,-9.4925635923177,-2.4603677845031022,100,walking
1783069024294461000,3.8556957,-1.9211356737427407,0.8959399549424648,2.542083944681287,0.4242492318153381,-0.8632009625434875,-0.2559393644332886,-0.0823622669288422,-9.5056387624681,-2.409654373092949,100,walking
1783069024304424000,3.8656587,-1.8989312945887444,0.7445072844594717,2.608236625024676,0.1863775253295898,-0.9077789187431335,-0.1552077233791351,-0.083916565432446,-9.513121227177978,-2.379889641687274,100,walking
1783069024314387000,3.8756217,-1.8137839909181,0.646862318265438,2.6600144507959484,-0.0728388652205467,-0.946675717830658,-0.0449741519987583,-0.0961904565367847,-9.514537523716688,-2.3737582993254063,100,walking
1783069024324350000,3.8855847,-1.70201829104349,0.5669429783761502,2.6569740601867435,-0.3122469484806061,-0.9900176525115968,0.0781068876385688,-0.1207174334194511,-9.509884729474782,-2.3912175297789275,100,walking
1783069024334313000,3.8955477,-1.59175452016443,0.5280623358398676,2.498102179613709,-0.5113763213157654,-1.0156190395355225,0.1873620152473449,-0.15750906778723,-9.499735091382265,-2.429119244280457,100,walking
1783069024344276000,3.9055107,-1.4837310755580664,0.6104524497568607,2.2975217396020886,-0.6363193392753601,-1.0283981561660769,0.2670902907848358,-0.2041812409825623,-9.48516003806293,-2.48202490503788,100,walking
1783069024354239000,3.9154737,-1.3854241383239627,0.74797934448421,2.095244432544708,-0.705359935760498,-1.06864595413208,0.3069029450416565,-0.2575966778930276,-9.467661790773272,-2.5431097805976868,100,walking
1783069024364202000,3.9254367,-1.3363732532985508,0.900844678118825,1.855768736949563,-0.7240455746650696,-1.1001899242401123,0.2991854846477508,-0.3142791903080418,-9.448443880084156,-2.607398420634865,100,walking
1783069024374164700,3.9353994,-1.3125992867402732,1.112897529259324,1.633122887863219,-0.690464198589325,-1.0874173641204834,0.2679543495178222,-0.3697762192655354,-9.428857136082648,-2.6702605350002644,100,walking
1783069024384127700,3.9453624,-1.253171238476783,1.3942033648461103,1.5512547519937157,-0.6043102145195007,-1.0590367317199707,0.2204114943742752,-0.4215727132046595,-9.410438851338624,-2.726957112473249,100,walking
1783069024394091000,3.9553257,-1.1176716848585757,1.6424480578303335,1.4586387198776003,-0.4846024513244629,-1.050797700881958,0.180223062634468,-0.4690854288773611,-9.39457375820875,-2.773504636375606,100,walking
1783069024404054000,3.9652887,-0.8801405474599451,1.793068827408552,1.2752236419394611,-0.3316289782524109,-1.0637555122375488,0.1511655300855636,-0.5138833326334133,-9.382388230374454,-2.8066148788169025,100,walking
1783069024414017000,3.9752517,-0.5875544988481327,1.8673977999448772,1.048340301413834,-0.166168138384819,-1.0770829916000366,0.1322709321975708,-0.5571731333814561,-9.37471579605043,-2.823940107627213,100,walking
1783069024423980000,3.9852147,-0.3160354593908414,1.8406342961817976,0.9139569654092192,0.0163362920284271,-1.0694711208343506,0.1231250539422035,-0.5992977628076449,-9.371894308888912,-2.8246792355567214,100,walking
1783069024433943000,3.9951777,-0.0770171156417578,1.7916618832200764,0.8589683608978986,0.1806700974702835,-1.0744025707244873,0.117512971162796,-0.640644831990078,-9.373948318809273,-2.8087463378876447,100,walking
1783069024443905800,4.0051405,0.0953426075357943,1.6863538350522518,0.8576178230717778,0.310253769159317,-1.0960981845855713,0.1091886460781097,-0.6814731014627963,-9.380120285442471,-2.7783658126711845,100,walking
1783069024453868800,4.0151035,0.2231882853999733,1.472972365656495,0.8679822729587554,0.3941033780574798,-1.1128580570220947,0.1056493073701858,-0.7217807811275124,-9.389100295233726,-2.737554494333267,100,walking
1783069024463831800,4.0250665,0.3613440526153892,1.314342477145791,0.9684300216138362,0.4434549212455749,-1.1271532773971558,0.1203009039163589,-0.7626721058990806,-9.399561483493446,-2.690159998212754,100,walking
1783069024473794800,4.0350295,0.4580157167978584,1.0998001472771166,1.0563999814897775,0.4584759473800659,-1.1471844911575315,0.1406248211860656,-0.8051750305857509,-9.41052302249074,-2.6389672788530585,100,walking
1783069024483758000,4.0449927,0.5724010245863348,0.836626765230298,1.071361988300085,0.4526968896389007,-1.1671680212020874,0.1654566675424575,-0.8496795774184167,-9.42118645532429,-2.586442726367712,100,walking
1783069024493721000,4.0549557,0.6679909579467028,0.6082815354585647,1.099644956715405,0.4228937327861786,-1.183637022972107,0.1927716434001922,-0.8964874327573925,-9.430914068612456,-2.534669576771557,100,walking
1783069024503685000,4.0649197,0.7354176037486642,0.3526847261458635,1.1384116174831986,0.3588447570800781,-1.2002378702163696,0.2145735472440719,-0.9455087263621388,-9.4388290795207,-2.4869454103052613,100,walking
1783069024513648000,4.0748827,0.7893436205297708,0.0744493840456008,1.1873925060123205,0.2505747377872467,-1.2196193933486938,0.2418174147605896,-0.996591701737046,-9.444158165588975,-2.4464433040469884,100,walking
1783069024523611000,4.0848457,0.8242839279424399,-0.2341466095268726,1.1789129930891096,0.1097695305943489,-1.2458654642105105,0.2695931494235992,-1.050685549365729,-9.445909393170476,-2.416864742863178,100,walking
1783069024533574000,4.0948087,0.8096740955706685,-0.5687713628470897,1.1639058319628235,-0.0609715804457664,-1.2581055164337158,0.2944846749305725,-1.107452927052602,-9.443480704718828,-2.4009599022448063,100,walking
1783069024543537000,4.1047717,0.7057585246745497,-0.887035932996869,1.1271627859771252,-0.2446095049381256,-1.2477763891220093,0.2904779016971588,-1.16529560582079,-9.43646235038936,-2.401177490518242,100,walking
1783069024553500000,4.1147347,0.568677181757614,-1.1705384018450975,1.0791451895222066,-0.4316135048866272,-1.2219892740249634,0.2564970254898071,-1.2207977128122,-9.425000460654497,-2.4185512346453963,100,walking
1783069024563463000,4.1246977,0.4275868223950266,-1.3695990849435329,1.0420464619666336,-0.5917342901229858,-1.1814312934875488,0.194944679737091,-1.2712436323925853,-9.409695339494943,-2.45193225685209,100,walking
1783069024573426000,4.1346607,0.3681663729161024,-1.440010007253289,0.9473153373926876,-0.6975957751274109,-1.132427453994751,0.1177979633212089,-1.3144745790928605,-9.391658163022994,-2.497860187551379,100,walking
1783069024583389000,4.1446237,0.4492284530997276,-1.3264005792081357,0.7901540601298213,-0.745127260684967,-1.0826914310455322,0.0425761491060256,-1.3495980610527096,-9.372389398929476,-2.550939743570983,100,walking
1783069024593352000,4.1545867,0.6712609925933182,-1.1697399449437855,0.5384852379158139,-0.7312106490135193,-1.039921522140503,-0.0156629215925931,-1.3781491788849234,-9.35322643329799,-2.605429458649456,100,walking
1783069024603315000,4.1645497,0.9429255780011416,-1.0773925006359817,0.2624050280228257,-0.6838847398757935,-1.005993366241455,-0.0513240434229373,-1.401714617259055,-9.335141326031088,-2.6572055308550597,100,walking
1783069024613278000,4.1745127,1.1471705318696797,-0.9809849672824144,0.0562359742239117,-0.6145640015602112,-0.9679255485534668,-0.0787884220480918,-1.4220546638458966,-9.318720352584124,-2.703624459941685,100,walking
1783069024623241000,4.1844757,1.280882690614462,-0.8851046726733446,-0.1180526711896061,-0.5542290806770325,-0.9209866523742676,-0.1043838337063789,-1.439198983131349,-9.304168095618486,-2.744364758870005,100,walking
1783069024633204000,4.1944387,1.3578478568732737,-0.8781208051353693,-0.2704229147836566,-0.5109833478927612,-0.8535037636756897,-0.128723531961441,-1.4528675891302525,-9.291250161856413,-2.7806872413560746,100,walking
1783069024643167000,4.2044017,1.4430181030280886,-0.8948141657829284,-0.3670551968038082,-0.4804734885692596,-0.7859967947006226,-0.1429513245820999,-1.4630696880623697,-9.279495426654815,-2.8143898967325685,100,walking
1783069024653129700,4.2143644,1.59023929329589,-0.9200473912388086,-0.4799108838722109,-0.4468108713626861,-0.7189338803291321,-0.1352246850728988,-1.4712771060459315,-9.268477773556112,-2.846233480238914,100,walking
1783069024663092700,4.2243274,1.7597898042716085,-1.0293746119201184,-0.6160819800764322,-0.3832122683525085,-0.6751274466514587,-0.0954167693853378,-1.4802667604483664,-9.258360284167528,-2.8743647652238606,100,walking
1783069024673056000,4.2342907,2.047293179324269,-1.2186012987464665,-0.7897773357719182,-0.2835147082805633,-0.6363126635551453,-0.0457837022840976,-1.492586582186818,-9.249745600557327,-2.895647499488294,100,walking
1783069024683019000,4.2442537,2.3261706187203526,-1.5003139615684746,-1.001746892543137,-0.1349447518587112,-0.6257801055908203,0.0012020480353385,-1.5087002432502803,-9.243964679068329,-2.905739562174677,100,walking
1783069024692981800,4.2542165,2.4927146413564683,-1.87013453143239,-1.2110922382906075,0.0327124111354351,-0.6342303156852722,0.0398181527853012,-1.5288986894093453,-9.242103561371565,-2.901098458370566,100,walking
1783069024702944800,4.2641795,2.4143745334826408,-2.3612176744431257,-1.4874538954734802,0.2066946029663086,-0.6484119296073914,0.0724239274859428,-1.552461935826391,-9.244674873164296,-2.8803181206703186,100,walking
1783069024712907800,4.2741425,2.0377507133446637,-3.045716188141704,-1.6791221302330492,0.366228848695755,-0.6666553616523743,0.0780567824840545,-1.5785129074059423,-9.251652310961484,-2.8435248058021068,100,walking
1783069024722870800,4.2841055,1.2425883235335349,-3.849626678684354,-1.805383534580469,0.498890221118927,-0.6528795957565308,-0.001944035757333,-1.601269659745693,-9.263266176387669,-2.792530823884904,100,walking
1783069024732833800,4.2940685,0.2297586037009954,-4.386785344171524,-1.7632587955564258,0.5614214539527893,-0.5920183658599854,-0.1867871284484863,-1.610315135988593,-9.279467954126,-2.732902576874197,100,walking
1783069024742796500,4.3040312,-0.8763036727108061,-4.528864495375752,-1.4818039068877695,0.520155131816864,-0.517146110534668,-0.454688549041748,-1.5958591790042818,-9.299296105667947,-2.673333366574347,100,walking
1783069024752759800,4.3139945,-1.8183682499684397,-4.320822048920393,-1.053269574509561,0.3772996962070465,-0.4367341101169586,-0.7451637387275696,-1.5526675414010882,-9.32073987571299,-2.6236253328144548,100,walking
1783069024762722800,4.3239575,-2.432039661771804,-3.842935656613111,-0.5292223195299506,0.1644714623689651,-0.3300261199474334,-0.9891973733901978,-1.481581934700161,-9.341034475722909,-2.5923671479806303,100,walking
1783069024772685800,4.3339205,-2.60837807932198,-3.2834956012129783,0.0246019418150186,-0.0917896032333374,-0.2272344678640365,-1.1431680917739868,-1.388891376043111,-9.357290613996982,-2.585050979748368,100,walking
1783069024782648800,4.3438835,-2.3642265008702874,-2.736806306314468,0.4070578291073441,-0.3298579454421997,-0.1670380532741546,-1.2149927616119385,-1.2834895121119916,-9.367530268460513,-2.6023911138668656,100,walking
1783069024792611800,4.3538465,-2.0297301962353287,-1.9801082333236928,0.5159004811421036,-0.5302179455757141,-0.1190558820962905,-1.242045760154724,-1.1722151759508996,-9.371250750288366,-2.6412030750811097,100,walking
1783069024802574600,4.3638093,-1.7148520536534486,-0.9387941772848368,0.6302122122377157,-0.6634281277656555,-0.0590364709496498,-1.2283618450164795,-1.0591298448450863,-9.368992157706618,-2.6964082449525595,100,walking
1783069024812537600,4.3737723,-1.487475668913871,0.1073550438255071,0.9302323929056524,-0.7126401662826538,-0.0001603683922439,-1.1941604614257812,-0.94682879598476,-9.3621409766376,-2.761198112510145,100,walking
1783069024822500600,4.3837353,-1.3811015989497304,1.08067751365602,1.1338035391658543,-0.643969714641571,0.0337694138288497,-1.1665935516357422,-0.836228559692949,-9.353542075118424,-2.825307012066245,100,walking
1783069024832463600,4.3936983,-1.3307033909685908,1.9111586157381533,1.1672700476989148,-0.4646593332290649,0.0423461236059665,-1.1633732318878174,-0.7266639500591904,-9.346650562039017,-2.877927133880556,100,walking
1783069024842427000,4.4036617,-1.2957407986588776,2.5133500176280736,1.1092986279845236,-0.2050453573465347,0.0278000272810459,-1.1775859594345093,-0.616627777390927,-9.344755542072653,-2.909588638818264,100,walking
1783069024852390700,4.4136254,-1.31093120739758,2.8761235915899275,1.0916332074344155,0.1060986742377281,-0.0186180714517831,-1.1852904558181765,-0.5062678526610136,-9.349895243048667,-2.914368566571176,100,walking
1783069024862354000,4.4235887,-1.4102736251592636,2.9935663141876456,1.1184019718945026,0.4209411442279815,-0.1025189310312271,-1.1750898361206057,-0.3977976506678387,-9.36289091822207,-2.8893630123913288,100,walking
1783069024872317000,4.4335517,-1.5088536802463233,2.933786676007509,1.1567165049806236,0.7003283500671387,-0.2080458849668502,-1.1565446853637695,-0.2930823442287742,-9.383018344971536,-2.836099624237418,100,walking
1783069024882279700,4.4435144,-1.5830322845265268,2.6003403188169,1.1700412659779191,0.9073196053504944,-0.3357455134391784,-1.097162842750549,-0.1946625212047249,-9.408253323993089,-2.7599410981863737,100,walking
1783069024892242700,4.4534774,-1.7137180811874568,2.110995543906093,1.2254843362584709,1.0489307641983032,-0.4593132734298706,-1.00221848487854,-0.1067730609527789,-9.436355967405438,-2.6672432330057023,100,walking
1783069024902205700,4.4634404,-1.9051532378435132,1.709481612661481,1.2757096718907357,1.1320860385894775,-0.5645543932914734,-0.8907825350761414,-0.0308580202348297,-9.465497890737652,-2.5639400949195026,100,walking
1783069024912168700,4.4734034,-2.0805929529882965,1.3795534927248954,1.3500675782606004,1.1446292400360107,-0.6678711771965027,-0.7615252137184143,0.032054152950528,-9.494102638453244,-2.4558894700452685,100,walking
1783069024922131700,4.4833664,-2.3252524809621278,0.9672253219991922,1.3453361658245324,1.0851151943206787,-0.789929986000061,-0.6074463725090027,0.0796409978719428,-9.520510752907397,-2.350302604936063,100,walking
1783069024932094700,4.4933294,-2.6728715942814945,0.2904442508101463,1.2878595438897609,0.9648790955543518,-0.9068827033042908,-0.4582880735397339,0.1106270421003457,-9.543584754502772,-2.2534710009515284,100,walking
1783069024942057700,4.5032924,-3.062360156689584,-0.5243342552274465,1.2190760766513644,0.8143762946128845,-1.0149997472763062,-0.3348831236362457,0.1269192928674165,-9.562736029696463,-2.169873264810443,100,walking
1783069024952020700,4.5132554,-3.438558737152815,-1.188775484803319,1.1334028494104742,0.6394335031509399,-1.0934226512908936,-0.273627758026123,0.1330639605017378,-9.577798574271798,-2.10200662015602,100,walking
1783069024961983700,4.5232184,-3.847476514913141,-1.5845377206534146,1.1112183440007268,0.4537376463413238,-1.1481635570526123,-0.2906203866004944,0.1364639690704178,-9.588751345440745,-2.051241624689102,100,walking
1783069024971946800,4.5331815,-4.156855183295906,-1.6071405976057052,1.2342770067840814,0.2862352132797241,-1.19586980342865,-0.3559831380844116,0.1435747600568458,-9.595777883076668,-2.0176300085969268,100,walking
1783069024981909800,4.5431445,-4.239863429111242,-1.3464847513377665,1.255818391984701,0.1640703976154327,-1.249613642692566,-0.4087179899215698,0.1559540751638822,-9.599655016770958,-1.9981706903673708,100,walking
1783069024991872800,4.5531075,-4.123408256246149,-1.00191844971776,1.1657774710536002,0.1019058227539062,-1.2739946842193604,-0.397834450006485,0.169982892777305,-9.60155237482488,-1.9878867583706972,100,walking
1783069025001835800,4.5630705,-3.775380123734474,-0.7466565714478492,1.06706341432333,0.0667545348405838,-1.2825491428375244,-0.3167670965194702,0.1792891753808595,-9.60257937978506,-1.982097215183824,100,walking
1783069025011798800,4.5730335,-3.3122210526987907,-0.6299900939196348,0.9991872711881996,0.0210549514740705,-1.3049931526184082,-0.2062498927116394,0.1788095569040626,-9.602976270148158,-1.9802109630458056,100,walking
1783069025021761500,4.5829962,-2.8843858085006477,-0.4334440239906311,0.9422527933061122,-0.0315792188048362,-1.3342949151992798,-0.1171958073973655,0.168014332650695,-9.602600422573088,-1.9829824735857544,100,walking
1783069025031724800,4.5929595,-2.588625038842857,-0.0243505974024534,0.9641542439907788,-0.0878992229700088,-1.35727059841156,-0.0806191489100456,0.150579551651841,-9.60123790204823,-1.990967627120763,100,walking
1783069025041687800,4.6029225,-2.3988874798849222,0.4440495891571044,1.1012065069437027,-0.1338115334510803,-1.400251388549805,-0.0907554402947425,0.1312792233762797,-9.598878187179563,-2.003670895218849,100,walking
1783069025051650800,4.6128855,-2.2310718298777936,0.8535638715058564,1.163610940669477,-0.139699786901474,-1.4724727869033811,-0.0952854752540588,0.1114551817538682,-9.595992402610182,-2.0186405008137225,100,walking
1783069025061613800,4.6228485,-2.209989294360578,1.1733587199628353,1.1462333971500396,-0.1159988120198249,-1.5274747610092163,-0.0852567702531814,0.0897740684221498,-9.593317045921086,-2.0323875788763166,100,walking
1783069025071576800,4.6328115,-2.06736405358091,1.4265052135139702,1.244003012637049,-0.0902953147888183,-1.5913432836532593,-0.0656473785638809,0.0653624661140376,-9.591181202936172,-2.043367238052189,100,walking
1783069025081539600,4.6427743,-1.8228769595645369,1.6088503241330383,1.2482155157655477,-0.076621264219284,-1.6498124599456787,-0.045719489455223,0.0377003261609352,-9.589472645452618,-2.052068869293481,100,walking
1783069025091502600,4.6527373,-1.6257250326968729,1.746011308157444,1.1963880056336522,-0.0755035355687141,-1.6704566478729248,-0.0177938491106033,0.0066460892342613,-9.587918401747942,-2.059647049462795,100,walking
1783069025101465600,4.6627003,-1.389315885065496,1.8320172744840384,1.237789691080153,-0.104690097272396,-1.6869243383407593,0.0111281927675008,-0.0276025187203544,-9.586087094667551,-2.06797897060886,100,walking
1783069025111428900,4.6726636,-1.1126070218801498,1.8894757762402292,1.2175938752695918,-0.1354224383831024,-1.7174594402313232,0.0433409884572029,-0.0651904751145746,-9.583541501837969,-2.078907484119385,100,walking
1783069025121391900,4.6826266,-0.8204859969642013,1.9276707745999095,1.0811410395145415,-0.118314653635025,-1.7649520635604858,0.1133807823061943,-0.1086138847801834,-9.580736381289364,-2.089997617932409,100,walking
1783069025131355000,4.6925897,-0.6097013391286135,1.9870880092084409,0.9211009919449686,-0.0412904433906078,-1.8075882196426392,0.2131020575761795,-0.1612315223764628,-9.57880102931261,-2.0954567601211367,100,walking
1783069025141318000,4.7025527,-0.4332384184159338,1.971738464385271,0.7988637285470962,0.0705261081457138,-1.862243413925171,0.3149960935115814,-0.2247181801146827,-9.578566051512956,-2.090684869544208,100,walking
1783069025151280600,4.7125153,-0.2917050462598912,1.7937322597533465,0.6190392224468291,0.1845738589763641,-1.9299734830856323,0.3819788694381714,-0.2977174566835165,-9.58027460899651,-2.0736659302040934,100,walking
1783069025161243600,4.7224783,-0.3329335122976452,1.4657073430895804,0.3821428758203983,0.2738379240036011,-1.9905693531036377,0.393796294927597,-0.3753012297647073,-9.583696984660625,-2.045065712533146,100,walking
1783069025171206700,4.7324414,-0.4799895385989919,1.1349223140627145,0.2703730842925608,0.3258132338523865,-2.055184841156006,0.3585959672927856,-0.4522526232264935,-9.588249241137504,-2.007815155416727,100,walking
1783069025181170700,4.7424054,-0.6508849248450249,0.8573661863982677,0.2872887093886733,0.326515793800354,-2.104762554168701,0.2960605025291443,-0.5246679441612213,-9.593208324849606,-1.966072985969484,100,walking
1783069025191133700,4.7523684,-0.7542725994095206,0.5297054268717766,0.2999504764325916,0.2808324694633484,-2.120868444442749,0.2569865882396698,-0.5918671744154765,-9.597593992587925,-1.925164490867406,100,walking
1783069025201096700,4.7623314,-0.7423891963269561,0.2131523368149995,0.3054519964583218,0.2049032747745514,-2.12080192565918,0.2560014128684997,-0.6562733398851007,-9.600666824162008,-1.888617844236642,100,walking
1783069025211059700,4.7722944,-0.7097654222283512,-0.1259533613115549,0.3005227233625948,0.125974640250206,-2.1507108211517334,0.275705873966217,-0.7216679684028029,-9.601986674588918,-1.857801265690476,100,walking
1783069025221022700,4.7822574,-0.5798129813432693,-0.3656920917570591,0.2455449325062334,0.0522194094955921,-2.207933187484741,0.2800241410732269,-0.7884732674360275,-9.60151905707717,-1.8329003409288824,100,walking
1783069025230985700,4.7922204,-0.3696467476669698,-0.3943599678367376,0.108523649213463,-0.0257952325046062,-2.268260955810547,0.2704812288284302,-0.8555860249832272,-9.59948550542295,-1.8133448688484728,100,walking
1783069025240948700,4.8021834,-0.2500803109135479,-0.3373269980162381,0.0228565594524145,-0.0992861837148666,-2.2948567867279053,0.2518460750579834,-0.9215821995906532,-9.596065467846392,-1.7990549160808325,100,walking
1783069025250911700,4.8121464,-0.188525845080614,-0.3229372381359338,0.0185975868336856,-0.1791892647743225,-2.307168960571289,0.2288755029439926,-0.9856805777527392,-9.591303368011117,-1.7904565990835428,100,walking
1783069025260874800,4.8221095,-0.1558916957184672,-0.3125532067656517,-0.0421318994171917,-0.2498005926609039,-2.3069770336151123,0.2107633054256439,-1.047943118789792,-9.585227262967823,-1.7876367193572222,100,walking
1783069025270837800,4.8320725,-0.1112007594682276,-0.2945090160310268,-0.1828583208382129,-0.3078652322292328,-2.309711456298828,0.181581437587738,-1.1078967252973466,-9.57813058270514,-1.7895149343192576,100,walking
1783069025280800800,4.8420355,-0.0082004767861217,-0.2992775456070899,-0.2901573966927826,-0.3638893961906433,-2.324057102203369,0.1521460711956024,-1.1651080473594366,-9.57022141701579,-1.7954916706413029,100,walking
1783069025290763800,4.8519985,0.1264052697975188,-0.2366214752078056,-0.3503786411605775,-0.4066965281963348,-2.3361825942993164,0.1317739486694336,-1.220405644754693,-9.561648234459756,-1.804402706849575,100,walking
1783069025300726500,4.8619612,0.2450882747799158,-0.1708183389544487,-0.4213333149582147,-0.4380153715610504,-2.3478264808654785,0.1201036348938942,-1.2745949886471033,-9.55248410027325,-1.8154498783037063,100,walking
1783069025310689800,4.8719245,0.3758880532093346,-0.1336111825883388,-0.4434820184022188,-0.4551762342453003,-2.372851610183716,0.1128758192062377,-1.3284810387440025,-9.542854102140664,-1.8274184023864568,100,walking
1783069025320652800,4.8818875,0.5102192206352949,-0.140748194861412,-0.4961766667574643,-0.4751234650611877,-2.407217264175415,0.088155411183834,-1.3817086249321695,-9.533024197521804,-1.839217268990725,100,walking
1783069025330615800,4.8918505,0.5630272662371397,-0.1748924565255641,-0.6275771875590086,-0.4889085292816162,-2.428687810897827,0.0657515674829483,-1.4334692073076962,-9.523120643144845,-1.850870443513989,100,walking
1783069025340578800,4.9018135,0.5566723442524671,-0.2365145077019929,-0.7136018585860728,-0.5035680532455444,-2.443934202194214,0.0443786531686782,-1.4838269371479749,-9.513123565265536,-1.862559127742052,100,walking
1783069025350541800,4.9117765,0.5116153511688113,-0.3417413073271513,-0.7627171871498226,-0.525107204914093,-2.4664957523345947,0.0148311480879783,-1.5324427917569874,-9.503065112587809,-1.8744957953818144,100,walking
1783069025360504800,4.9217395,0.4377344146609306,-0.5025292506545782,-0.8585111186496913,-0.55442214012146,-2.450439691543579,-0.0189761146903038,-1.5784217219911514,-9.492962820768357,-1.887488401815295,100,walking
1783069025370467600,4.9317023,0.2905591093614697,-0.7433914321720599,-0.9071749040536582,-0.6067947745323181,-2.4071855545043945,-0.0476485043764114,-1.6212860273361205,-9.482542549040913,-1.903468061235547,100,walking
1783069025380430600,4.9416653,0.0690418259136378,-1.0074959575891491,-0.8524491882622242,-0.6642687320709229,-2.378798723220825,-0.0993784591555595,-1.6601386128216982,-9.471625433707237,-1.9242264793649315,100,walking
1783069025390393900,4.9516286,-0.0646500206954777,-1.102149340751767,-0.8508966981232166,-0.725082516670227,-2.3512191772460938,-0.1695695221424102,-1.693143056800961,-9.46047041796446,-1.950169460525364,100,walking
1783069025400356900,4.9615916,-0.0852326438665389,-1.0960913558870553,-0.8508391227170824,-0.7661017179489136,-2.338595151901245,-0.2381116151809692,-1.7196964249446989,-9.449320662918684,-1.98075369162038,100,walking
1783069025410320000,4.9715547,0.0301237739764153,-1.017800493982434,-0.8263853572010994,-0.7836229205131531,-2.340880870819092,-0.2951855659484863,-1.7410802814960478,-9.438426343938708,-2.0137362160287795,100,walking
1783069025420283000,4.9815177,0.0994501159198582,-0.9563701659858226,-0.8598537654303013,-0.758575975894928,-2.338127613067627,-0.3437003493309021,-1.7584820826739072,-9.428329312816262,-2.045659294512123,100,walking
1783069025430245600,4.9914803,0.2119946912124753,-0.9172253195554018,-0.8821341324299573,-0.7192855477333069,-2.3331127166748047,-0.3874140083789825,-1.7721162018813192,-9.419590710565448,-2.0739568759746847,100,walking
1783069025440208600,5.0014433,0.3149392251193523,-0.860064339441061,-0.8872221032187342,-0.6826037168502808,-2.317546367645264,-0.4296106696128845,-1.7819864385105668,-9.41225671441555,-2.098646642203629,100,walking
1783069025450171600,5.0114063,0.3871608501128852,-0.8091448840647936,-0.9010521833896636,-0.6566533446311951,-2.2905569076538086,-0.4514083564281463,-1.7889660682648418,-9.406015774199366,-2.120579949331284,100,walking
1783069025460134700,5.0213694,0.4840953299500047,-0.817592394414544,-0.8409200785100459,-0.6304308176040649,-2.2578442096710205,-0.4483859539031982,-1.7949204466246067,-9.40041196284294,-2.140309755065292,100,walking
1783069025470097700,5.0313324,0.6009500235266984,-0.8865934499263763,-0.772067783819139,-0.5889139771461487,-2.2385621070861816,-0.4298881590366363,-1.8017920859597625,-9.395157111054658,-2.1575373687200248,100,walking
1783069025480061000,5.0412957,0.7668288602523505,-0.9465057745754718,-0.7687485762685536,-0.5167297124862671,-2.241194725036621,-0.3733128905296325,-1.812197160118073,-9.390460477671027,-2.169236428211629,100,walking
1783069025490024000,5.0512587,0.926692382211238,-1.0031552980363367,-0.8113961701229214,-0.4051912426948547,-2.282266139984131,-0.282871663570404,-1.830204525973648,-9.386483975255487,-2.1713304778814315,100,walking
1783069025499988000,5.0612227,0.97864761037603,-1.2149363464981318,-1.0065282816007732,-0.2783737182617187,-2.315537452697754,-0.1983239501714706,-1.8576191871218384,-9.383447384038568,-2.1611505907811224,100,walking
1783069025509949700,5.0711844,0.7439392753131687,-1.5943950978010892,-1.12459848844707,-0.1652857810258865,-2.2921042442321777,-0.1758021265268325,-1.890013828639686,-9.382121688392758,-2.138698228215426,100,walking
1783069025519913700,5.0811484,0.1678903226785361,-1.7593951058655977,-0.9509707911603152,-0.0594610050320625,-2.192967414855957,-0.2300212383270263,-1.919099345609545,-9.38351811118722,-2.106424582728744,100,walking
1783069025529876700,5.0911114,-0.5578668147340416,-1.5948066012114286,-0.4473208659127354,0.0682610049843788,-2.054875612258911,-0.3471374809741974,-1.936442256207019,-9.389041258522868,-2.065543121764064,100,walking
1783069025539839700,5.1010744,-0.966928238748759,-1.150035712042451,0.1574918243914842,0.237340360879898,-1.9654139280319212,-0.4814133942127228,-1.9382858382470904,-9.400163541039824,-2.012549344331771,100,walking
1783069025549802800,5.1110375,-0.9358635306604206,-0.6158925949841737,0.6339591436810791,0.4079379141330719,-1.9594402313232424,-0.596118152141571,-1.9259554951146245,-9.417008877378702,-1.9444849851481616,100,walking
1783069025559765800,5.1210005,-0.6773645701654255,-0.1672907493501901,0.8933329873144626,0.5286079049110413,-2.003746271133423,-0.6495727896690369,-1.9046324288398029,-9.437947620511055,-1.862236471658945,100,walking
1783069025569728800,5.1309635,-0.470417956122756,-0.0320902517437934,1.0019342318087816,0.5411916375160217,-2.0384676456451416,-0.6559244394302368,-1.879491119451076,-9.460171142756938,-1.7728674586400388,100,walking
1783069025579691800,5.1409265,-0.6256602480217814,-0.207979902613163,1.0921749130956828,0.4136180877685547,-2.00443696975708,-0.6401093006134033,-1.8532368803843853,-9.480606612542273,-1.6893784435704349,100,walking
1783069025589654800,5.1508895,-1.1223372655168176,-0.3953238444328308,1.2678227180331945,0.182113766670227,-1.889629364013672,-0.6230416297912598,-1.8256734584152696,-9.497218140125272,-1.6248581867344676,100,walking
1783069025599617800,5.1608525,-1.7741859938926994,-0.4160387156814336,1.5533515781424938,-0.0988703817129135,-1.7197271585464478,-0.6022883653640747,-1.7966164368875324,-9.50897579793632,-1.5880676483452318,100,walking
1783069025609580800,5.1708155,-2.2144937661729758,-0.2561351539731025,1.7430268855191766,-0.3802123069763183,-1.525065779685974,-0.5997344255447388,-1.7654174348950384,-9.515798337432742,-1.582166607607901,100,walking
1783069025619543800,5.1807785,-2.4524761544704434,0.0927297216236591,1.7391396688222884,-0.6145000457763672,-1.3601657152175903,-0.6174600124359131,-1.7306427663728594,-9.518402382451296,-1.604764808385074,100,walking
1783069025629506800,5.1907415,-2.32435231725201,0.5189946477651596,1.5342140392132102,-0.7673700451850891,-1.2611054182052612,-0.6269136667251587,-1.6926690095484256,-9.517750640544294,-1.648536730094254,100,walking
1783069025639469800,5.2007045,-1.8022988664381203,0.8529331723868846,1.2565396919965743,-0.8258522748947144,-1.243376612663269,-0.6079142689704895,-1.6546290556199847,-9.514705866020917,-1.7038064896345138,100,walking
1783069025649432600,5.2106673,-1.261301499570906,1.1559721163541077,0.9169390499599276,-0.8089694380760193,-1.2471132278442385,-0.5612682104110718,-1.62056911123842,-9.510089896658062,-1.7613440479762852,100,walking
1783069025659395600,5.2206303,-0.9554103810429572,1.5381483099222182,0.7456693139761685,-0.710155725479126,-1.2232677936553955,-0.5014292597770691,-1.5923196067012846,-9.5050039716959,-1.813782675743848,100,walking
1783069025669358800,5.2305935,-0.788805129738897,1.957204327598214,0.8364782966703176,-0.5400213003158569,-1.1846370697021484,-0.4481753706932068,-1.5693338679112494,-9.501035068064928,-1.854163785970956,100,walking
1783069025679321900,5.2405566,-0.6937218307264149,2.2883336400181054,0.8748498206406832,-0.3238229155540466,-1.1560858488082886,-0.3932470679283142,-1.551291284611821,-9.499519402804973,-1.876972999150306,100,walking
1783069025689284900,5.2505196,-0.6426388553515077,2.409602642905712,0.8031618641324341,-0.1015219390392303,-1.1477054357528689,-0.3438867032527923,-1.537880014374852,-9.501227375766634,-1.8793552181117237,100,walking
1783069025699251700,5.2604864,-0.5469084906071424,2.3197563677638766,0.726001905953884,0.0796643197536468,-1.1750787496566772,-0.2955299019813537,-1.5291636239558457,-9.50595323524475,-1.8624996526397763,100,walking
1783069025709214700,5.2704494,-0.435377184010297,2.1542022329479456,0.6074503453314304,0.2135664522647857,-1.2119925022125244,-0.2381108254194259,-1.525773543126136,-9.51278045091629,-1.8301392056524752,100,walking
1783069025719177700,5.2804124,-0.3154549195565283,1.962404234328866,0.5816318673335016,0.2992596328258514,-1.2535743713378906,-0.1721986383199691,-1.528529125444591,-9.520600769278406,-1.786663490410894,100,walking
1783069025729140700,5.2903754,-0.2597213418968022,1.7138216876924035,0.6671696316264569,0.3340266644954681,-1.2922996282577517,-0.1015244722366333,-1.5377259928569196,-9.528347437882422,-1.7367792233012616,100,walking
1783069025739103700,5.3003384,-0.2022965962797403,1.3810381783246992,0.759815474358946,0.3115802705287933,-1.3344171047210691,-0.0203146412968635,-1.5544487257294357,-9.534790622672435,-1.6857728202939033,100,walking
1783069025749066800,5.3103015,-0.196861565618962,1.0462409910470247,0.7684779426336288,0.2427482008934021,-1.357748031616211,0.0685720890760421,-1.579037369671464,-9.539072830036282,-1.6380220580816267,100,walking
1783069025759029800,5.3202645,-0.1921260615296662,0.7826040831416845,0.8252326800346375,0.1433301270008087,-1.3640904426574707,0.1747286766767501,-1.612503293682635,-9.540294480785729,-1.597811482115835,100,walking
1783069025768992800,5.3302275,-0.1897870971880853,0.6077665716737508,0.9109301649339496,0.0155649613589048,-1.3537932634353638,0.3014703691005707,-1.656441365738958,-9.537689266723394,-1.5681382283858951,100,walking
1783069025778955800,5.3401905,-0.2249567563772201,0.3787228382438421,0.9759713769041,-0.1403208523988723,-1.3235578536987305,0.433972030878067,-1.7121018781624733,-9.530559853234887,-1.5516272385679184,100,walking
1783069025788918800,5.3501535,-0.3596626023344695,-0.0133960726678371,0.964293944722414,-0.3055327236652374,-1.2893595695495603,0.5556463003158569,-1.7792571596771478,-9.518519286829232,-1.5499758180990817,100,walking
1783069025798881800,5.3601165,-0.4773663139559328,-0.357756622582674,0.9301872385896742,-0.4612354934215545,-1.2636371850967407,0.6522266268730164,-1.8565310996241864,-9.501565229418873,-1.563304086227715,100,walking
1783069025808844800,5.3700795,-0.5135635626271366,-0.4864461308598518,0.8511061030901969,-0.6114529371261597,-1.2535754442214966,0.7078022956848145,-1.9409421979747712,-9.480165883037447,-1.5904656493976712,100,walking
1783069025818807800,5.3800425,-0.4702363159455359,-0.5127770884245634,0.8004770089626312,-0.738494336605072,-1.2303966283798218,0.7026715874671936,-2.027664349746704,-9.455331886032225,-1.6296194097869097,100,walking
1783069025828770600,5.3900053,-0.4495082929544151,-0.495539537897706,0.7504460268586873,-0.8527548313140869,-1.167556643486023,0.6707935333251953,-2.112287629543245,-9.42797743063867,-1.6798456222020088,100,walking
1783069025838733600,5.3999683,-0.4655260924279689,-0.4446300193935632,0.7930963971920311,-0.9512941837310792,-1.1075102090835571,0.6049553751945496,-2.191738036746532,-9.39883024660945,-1.740302282860875,100,walking
1783069025848696800,5.4099315,-0.3489531384021043,-0.3157096249699592,0.835118114233017,-1.0279606580734253,-1.0653175115585327,0.5295120477676392,-2.264018844581395,-9.368686452758311,-1.808959493371099,100,walking
1783069025858660600,5.4198953,-0.0982714275293052,-0.1309060152828693,0.8261927572384477,-1.0638961791992188,-1.0112239122390747,0.4585210382938385,-2.329000143057853,-9.33816271967888,-1.8827841696470973,100,walking
1783069025868623600,5.4298583,0.2077132145009934,0.0276917245239019,0.7993401138871907,-1.048700928688049,-0.9456635117530824,0.4230296313762665,-2.3883823063530025,-9.307617359289528,-1.9581340096637605,100,walking
1783069025878587000,5.4398217,0.5068906607344746,0.1172182661920785,0.8054913299933075,-1.0000126361846924,-0.8683937788009644,0.4323883354663849,-2.4457453849107025,-9.27698607418239,-2.031322872254252,100,walking
1783069025888550000,5.4497847,0.8869818647220731,0.213352827823162,0.7635846176341176,-0.9120020866394044,-0.8037303686141968,0.4703650176525116,-2.5044147237613794,-9.246225609737634,-2.0989504474557936,100,walking
1783069025898513000,5.4597477,1.2656035806789994,0.3170972799360751,0.6578314560472965,-0.790056049823761,-0.7363640069961548,0.5201271772384644,-2.566402977901697,-9.215596662718058,-2.1579484337389467,100,walking
1783069025908475600,5.4697103,1.51506583275944,0.3862479730516672,0.578792552254349,-0.6435629725456238,-0.6694324016571045,0.5500672459602356,-2.6309128594741225,-9.186135590434072,-2.205352720601112,100,walking
1783069025918438700,5.4796734,1.6439394654318689,0.3998685021251439,0.5924649576455354,-0.4809381663799286,-0.5984734296798706,0.5458252429962158,-2.695293561708927,-9.159055275806784,-2.2399751211710277,100,walking
1783069025928401700,5.4896364,1.6068001136049628,0.3406196098208427,0.6465479916192591,-0.3428838849067688,-0.5576373338699341,0.4999027848243713,-2.756016618219018,-9.135569186279175,-2.261886070336401,100,walking
1783069025938364700,5.4995994,1.5419462409004567,0.2432651510059833,0.6995721641898155,-0.2328603416681289,-0.5591803193092346,0.4301254749298095,-2.8110224661260843,-9.116176503545043,-2.272413163439184,100,walking
1783069025948327700,5.5095624,1.5716481362029908,0.1455313374847173,0.7348235103130341,-0.1534432768821716,-0.5517615079879761,0.3450771570205688,-2.8589804413482547,-9.10089300969541,-2.273845826590806,100,walking
1783069025958290700,5.5195254,1.6146970043346285,0.0154202719718217,0.8851905973911285,-0.1018783971667289,-0.5323684215545654,0.2572734951972961,-2.8985876445934173,-9.0894451484859,-2.26948806977272,100,walking
