time,seconds_elapsed,acc_x,acc_y,acc_z,gyr_x,gyr_y,gyr_z,grav_x,grav_y,grav_z,fs_hz,activity
1783066689436450800,0.0,0.2456651978850364,0.6786655697613954,-0.3404927685707807,0.0305442195385694,0.1305272728204727,0.1020338833332061,-1.4677555077910422,-9.238385417631267,-2.9442022715598344,50,walking
1783066689456374800,0.019924,0.3312343802295625,0.4089455425500869,-0.9987082554996012,0.0092715453356504,-0.0170260369777679,0.1703757494688034,-1.4901776213489473,-9.235020325112345,-2.943494123290479,50,walking
1783066689476299800,0.039849,-0.0994280502185225,0.3251069833904504,-0.9535629996106028,0.0429336540400981,-0.0355828069150447,0.1772875338792801,-1.5251872676707805,-9.230937439712882,-2.9383611443161963,50,walking
1783066689496224000,0.0597732,-0.2428368425913155,0.1319482178121805,-1.1628571996927262,0.0796455666422844,-0.0578745938837528,0.1611816436052322,-1.5595480946950613,-9.229315391469,-2.9253914803668857,50,walking
1783066689516148700,0.0796979,-0.5634017986379564,0.1385129831552505,-0.9633218848198652,0.1172158047556877,0.0403479114174842,0.0950673669576644,-1.5841969443917274,-9.231241975617408,-2.906007565461099,50,walking
1783066689536074000,0.0996232,-0.4894936818622052,0.1844324382871389,-0.7588005982279777,0.0828569903969764,0.1422787308692932,0.0416453368961811,-1.5909180693402885,-9.23526290169656,-2.8895141112998126,50,walking
1783066689555998000,0.1195472,0.0589576542727649,0.1990472390949726,-0.71304773183465,0.0124998977407813,0.1130382940173149,0.0555834360420703,-1.5915459919802843,-9.236709593373536,-2.8845392454966903,50,walking
1783066689575922700,0.1394719,0.2651350375086069,0.108173958992958,-0.56101241928339,-0.0988836362957954,0.1291680485010147,0.0874910280108451,-1.5982565955348311,-9.232177210640907,-2.895317244620621,50,walking
1783066689595848000,0.1593972,0.2337643322110175,0.0446802687257528,-0.3710457277446985,-0.2127257287502288,0.195399209856987,0.0973867699503898,-1.6059411586880683,-9.21985958085954,-2.9301097410604355,50,walking
1783066689615771600,0.1793208,0.3253469296261668,0.0713841512560844,-0.5573880913063883,-0.2289895564317703,0.1758123189210891,0.0643696412444114,-1.6096864826962352,-9.203766524192693,-2.978248625807464,50,walking
1783066689635697000,0.1992462,0.490954402064532,0.1095996078819036,-0.6187608438968658,-0.1449175924062729,0.1390657573938369,0.0369362570345401,-1.6096451277725397,-9.19080650485456,-3.018031477880477,50,walking
1783066689655620900,0.2191701,0.7592144397258758,0.1372913324058055,-0.5997574527412652,-0.0780110508203506,0.06443552672863,0.0443902052938938,-1.6100540008343756,-9.183333392494916,-3.040476241661608,50,walking
1783066689675545600,0.2390948,0.6697274994157254,0.099956750267744,-0.3752209676027297,-0.0379750579595565,0.115639790892601,0.0909465104341507,-1.617531789369136,-9.177571175706388,-3.0538737756341696,50,walking
1783066689695470800,0.25902,0.5816416580751538,0.265325007122755,-0.3824900818228721,0.0060469899326562,0.123458907008171,0.0629179999232292,-1.6252144528262316,-9.17385010935664,-3.0609704558968542,50,walking
1783066689715394800,0.278944,0.6495899896636604,0.3801490716546774,-0.2715691622093319,0.0441836565732955,0.1034395918250083,0.0242565758526325,-1.6259750619351865,-9.174200237968565,-3.0595132428258656,50,walking
1783066689735319800,0.298869,0.8362683071814477,0.3504202883452176,-0.131822253344953,0.0473508760333061,0.117357537150383,0.044940423220396,-1.6251576080724597,-9.176194626656176,-3.053962038439512,50,walking
1783066689755244800,0.318794,0.8469754330262541,0.2961807486355304,-0.0657744946807622,0.021942738443613,0.1163302138447761,0.0606942363083362,-1.6285326374635098,-9.17642492828071,-3.051476066842675,50,walking
1783066689775168800,0.338718,0.7867942283079028,0.3271551480919122,0.0014554595053195,-0.0110543277114629,0.1165774315595626,0.0588205233216285,-1.6323963271543382,-9.174628107991817,-3.0548110564842816,50,walking
1783066689795093800,0.358643,0.874457460322231,0.2150403425186872,-0.0096153850853443,-0.0191047899425029,0.1200288161635398,0.0881305485963821,-1.6379083685740827,-9.1714494779557,-3.0613971568763256,50,walking
1783066689815017700,0.3785669,0.9465320780605078,0.0872702871739864,-0.002001110689342,-0.055273912847042,0.1248670518398284,0.125370904803276,-1.6502774362817405,-9.165633485153316,-3.072153528690338,50,walking
1783066689834942700,0.3984919,0.7709731204502284,0.1149053130745887,0.1076286000698804,-0.0825123637914657,0.1422203481197357,0.0903872996568679,-1.66221454231292,-9.157505708277226,-3.0899057507410643,50,walking
1783066689854867700,0.4184169,0.9325023836642504,0.0152256261825561,-0.0705813104405999,-0.0379579737782478,0.1067634746432304,0.0727954357862472,-1.6687195402927697,-9.150901779967546,-3.1059260344326494,50,walking
1783066689874792000,0.4383412,1.027947647856921,-0.09075111502707,-0.1245882104381918,0.0035801592748612,0.0896355584263801,0.0835346356034278,-1.6776742695122957,-9.14727657520771,-3.111774175938964,50,walking
1783066689894716700,0.4582659,0.9880369316205382,-0.1183855564057826,-0.0481777554526925,0.0459462851285934,0.08455590903759,0.0809246301651001,-1.6878918582744895,-9.146126820650696,-3.1096243044286966,50,walking
1783066689914642400,0.4781916,1.0750718026034534,-0.2385579962283372,-0.005180909769237,0.0408329330384731,0.0633353814482688,0.0790924429893493,-1.6969653915680945,-9.146412067332864,-3.1038392912864685,50,walking
1783066689934566100,0.4981153,1.1557494135141373,-0.4044605060905218,0.0115828857660293,0.0317153371870517,0.0587952248752117,0.1002110466361045,-1.709707968763262,-9.14556100346148,-3.099354547087848,50,walking
1783066689954491400,0.5180406,1.1508278853334486,-0.4575193115830421,-0.0480099976703524,0.0273823253810405,0.0327168181538581,0.1110602617263794,-1.726782876074314,-9.1433778142035,-3.0963246778726576,50,walking
1783066689974415400,0.5379646,0.9341225322119892,-0.3754115217387676,0.0344622415721416,0.0570783764123916,0.0240459591150283,0.0539762265980243,-1.7408187079504132,-9.142886231294272,-3.089912472742796,50,walking
1783066689994340000,0.5578892,0.7977880621396005,-0.4480710997581482,0.1562792337313294,0.0550778545439243,0.0690045729279518,-0.033993873745203,-1.7396072863340375,-9.146243725028633,-3.0806475085303187,50,walking
1783066690014265300,0.5778145,0.987561715324223,-0.3826747907400131,0.2646767723470926,0.0299612209200859,0.1228833943605423,-0.0806135088205337,-1.72213256605044,-9.150586722669004,-3.077564155562222,50,walking
1783066690034189300,0.5977385,1.2872678616069255,-0.2634808405607938,0.178678697066009,0.0371548011898994,0.0903696566820144,-0.0976313576102256,-1.6992203308880327,-9.155458712619543,-3.0758129279807207,50,walking
1783066690054114300,0.6176635,1.2222368787698448,-0.0728869570344686,0.241251473096013,0.0488613620400428,0.1141991540789604,-0.1161781325936317,-1.674292079728097,-9.161698483791946,-3.0708988524541256,50,walking
1783066690074038300,0.6375875,1.355104841775447,0.1072147585719823,0.2505743049755692,0.0920577496290206,0.1280894726514816,-0.1548550873994827,-1.6415112153716385,-9.170316674533488,-3.062863430036604,50,walking
1783066690093963300,0.6575125,1.6715788752466438,-0.0488543395400047,0.0830339647784829,0.1423858553171157,0.098553754389286,-0.1384995877742767,-1.6075336885765197,-9.182288851878049,-3.0449606935992835,50,walking
1783066690113888300,0.6774375,1.749625699262321,-0.3014630729526281,0.0725485188603401,0.1593692451715469,0.1020893603563308,-0.0741009041666984,-1.581882091578096,-9.195287449660896,-3.0190628667548296,50,walking
1783066690133812200,0.6973614,1.659775040206313,-0.5063555309444666,0.0545209869995713,0.123550571501255,0.1020976230502128,-0.0438030287623405,-1.5656529874414205,-9.205423643749953,-2.996545622259378,50,walking
1783066690153737200,0.7172864,1.506867036473751,-0.6648831281244755,-0.0625067250564694,0.0851117447018623,0.1081017777323722,-0.0205348506569862,-1.5525065056204794,-9.212993786743285,-2.9800740876689558,50,walking
1783066690173662200,0.7372114,1.3557863942988215,-0.9744126031547784,-0.1607151703521609,0.0195748396217823,0.1409437507390976,0.0615920573472976,-1.548519774071872,-9.21575974432528,-2.973594077999889,50,walking
1783066690193586400,0.7571356,1.0316713445551693,-1.2412450922310352,-0.3636196693971752,-0.0762951374053955,0.1257151365280151,0.1391253918409347,-1.5592936815425753,-9.210942699432373,-2.982875993347168,50,walking
1783066690213511200,0.7770604,0.499662024655193,-1.3446236336410045,-0.4230810354083776,-0.2070428133010864,0.1542972475290298,0.1649725437164306,-1.5801951614044605,-9.197794464045762,-3.0122990717083216,50,walking
1783066690233435100,0.7969843,-0.2278945633947849,-1.0632178448110818,-0.3508788457676768,-0.3444651663303375,0.2788707911968231,0.0469832122325897,-1.5887056539878248,-9.177230983966588,-3.069986413784325,50,walking
1783066690253360400,0.8169096,-0.4065991255544126,-0.5401134236395359,-0.4730936050727963,-0.4326357841491699,0.3871192336082458,-0.0789203196763992,-1.563529419416189,-9.153559600999952,-3.152475311900675,50,walking
1783066690273285000,0.8368342,-0.2230506304949522,-0.2132049437850713,-0.5868070780143141,-0.4359385073184967,0.5089673399925232,-0.0921253189444542,-1.5185812935344871,-9.127921886396408,-3.2473569508612155,50,walking
1783066690293209300,0.8567585,-0.2101334273852407,0.3717155898302793,-0.6753937084838748,-0.3613070547580719,0.5774602293968201,-0.1206192672252655,-1.4641617210827766,-9.104565560728313,-3.336689139001072,50,walking
1783066690313134000,0.8766832,-0.4442443810768425,0.8596896609097718,-0.5514332745552063,-0.2547286748886108,0.7067652344703674,-0.1627233773469925,-1.3951010443381964,-9.087812578848004,-3.411120402868092,50,walking
1783066690333059300,0.8966085,-0.5173658775195479,0.945804348307848,-0.6789934865415096,-0.0621823146939277,0.753224790096283,-0.1908666640520095,-1.3119538284435868,-9.081152536436916,-3.46147871723026,50,walking
1783066690352983300,0.9165325,-0.7085161528196185,0.9094844961702824,-0.9045768503844738,0.2054071277379989,0.6953433156013489,-0.2285403460264206,-1.2243526288148014,-9.091070119339228,-3.467534364007413,50,walking
1783066690372908300,0.9364575,-0.9950970792651176,0.9886778598725796,-0.7604787605732679,0.4721221029758453,0.676429033279419,-0.2808375656604767,-1.130355371473357,-9.120433576467631,-3.4220419021159407,50,walking
1783066690392832300,0.9563815,-1.0374255972329527,0.7755389670610427,-0.586035216858983,0.6641183495521545,0.5934256911277771,-0.2842528522014618,-1.0353544169820843,-9.16556918774545,-3.330279856480658,50,walking
1783066690412757200,0.9763064,-1.1583176565669475,0.7663678186118602,-0.3286450943887233,0.7173541784286499,0.418072372674942,-0.2959275543689728,-0.949028863312304,-9.216852215737104,-3.212379453243315,50,walking
1783066690432682200,0.9962314,-1.255501288859546,0.5136521176934242,-0.1622036553442478,0.6628546714782715,0.2722301483154297,-0.2670807540416717,-0.8747397113297134,-9.265955561602116,-3.089870387166738,50,walking
1783066690452606200,1.0161554,-1.2878469766691327,0.2344938155293464,-0.034743104340136,0.4790522456169128,0.176890566945076,-0.1784853935241699,-0.8194993970796466,-9.305077611678838,-2.9856919275507328,50,walking
1783066690472531200,1.0360804,-1.302299134261161,0.0267401228874921,0.1005345501556992,0.1725397855043411,0.1465578228235244,-0.0584799610078334,-0.7884374654702841,-9.326417921349403,-2.9268890254482627,50,walking
1783066690492456200,1.0560054,-1.397515119742602,0.0497848983883857,0.1584919413447379,-0.1275773793458938,0.0955853909254074,0.0001226012827828,-0.7765695522177964,-9.327914881908892,-2.9252912348628044,50,walking
1783066690512380400,1.0759296,-1.4700747445188462,0.2257587204098701,0.1824658143892884,-0.3093382120132446,0.1023430302739143,-0.0151801267638802,-0.7704491696413606,-9.314598304218054,-2.9690175638645884,50,walking
1783066690532305200,1.0958544,-1.0922683635327963,0.6563637215822935,0.1651727342829108,-0.3917159140110016,0.1077523157000541,-0.0337611846625804,-0.758299882164225,-9.293746654847263,-3.036718350432813,50,walking
1783066690552229000,1.1157782,-0.4497236892707645,0.8831821801781654,0.2427911037534475,-0.3988929092884063,0.1160322129726409,0.0235404055565595,-0.7503698928825557,-9.26917277008295,-3.112840636126697,50,walking
1783066690572154400,1.1357036,0.0387897493824362,1.2719780841469763,0.3080813220486044,-0.315586119890213,0.1085301488637924,0.0967875942587852,-0.7545064812306315,-9.245417800486088,-3.1817215723901984,50,walking
1783066690592079000,1.1556282,0.2927762739542872,1.34862293241024,0.4041945486307144,-0.1950482726097107,0.1067990362644195,0.1564403772354126,-0.7713174038432538,-9.22734204556942,-3.2298014204263685,50,walking
1783066690612003300,1.1755525,0.4820403701815753,1.3120605036884545,0.5552256525754928,-0.1348945051431656,0.0947287902235984,0.2015071809291839,-0.7976260765109211,-9.213973445430398,-3.2614214243099093,50,walking
1783066690631928300,1.1954775,0.7003468018241227,1.0275041418731212,0.6102899526715279,-0.0705714076757431,0.125013992190361,0.2832959294319153,-0.8347214430656283,-9.203402951577305,-3.281919437937438,50,walking
1783066690651852300,1.2154015,0.9998201622642576,0.7674199580132961,0.6950912193834782,-0.0027480162680149,0.1691283136606216,0.4292080402374267,-0.8895373213585466,-9.194860164159536,-3.2914532822191718,50,walking
1783066690671777300,1.2353265,1.057142178159207,0.6080167470425367,0.5317030304297804,0.1005738452076911,0.1046787574887275,0.5347536206245422,-0.970202657309547,-9.188834912520646,-3.285483852420747,50,walking
1783066690691702300,1.2552515,0.5549903094496578,0.47300271191895,0.455320632494986,0.2968526184558868,0.053270760923624,0.5020801424980164,-1.0618130195144564,-9.190441763195397,-3.2524963595762846,50,walking
1783066690711626200,1.2751754,0.4350874072834849,0.3066828534275293,0.0718643359884619,0.6015922427177429,-0.0207274295389652,0.393997848033905,-1.1421254503745586,-9.209373258158564,-3.1707097645103928,50,walking
1783066690731551200,1.2951004,0.4524380627959966,-0.2609486917346715,0.2149570481494069,0.811514139175415,0.1428023129701614,0.3797332644462585,-1.2099038322236388,-9.24507994683385,-3.0389181985646485,50,walking
1783066690751476200,1.3150254,0.4758975565776228,-0.1487660816222429,0.6941752735823392,0.753480851650238,0.2526524364948272,0.2826546728610992,-1.260447513090074,-9.284089184185865,-2.89609261290729,50,walking
1783066690771400200,1.3349494,0.8791646150998771,-0.1945183634936809,1.1358066956818105,0.5521275997161865,0.3758519291877746,0.2464935034513473,-1.2902192587584256,-9.314801717835664,-2.782119319985807,50,walking
1783066690791325400,1.3548746,1.2960139165118336,-0.5033867442667485,0.9436164828747512,0.2508027255535126,0.3978980481624603,0.3174139857292175,-1.3202552083209156,-9.329898749202489,-2.716672449824214,50,walking
1783066690811249200,1.3747984,1.1471053576789796,-0.7755927430748939,0.9697539636939764,-0.0001172982156276,0.4769603610038757,0.3726427257061004,-1.361984956678003,-9.326740577432512,-2.70689661348015,50,walking
1783066690831174400,1.3947236,0.8534433138661086,-1.0074603017538786,0.3489592758819461,0.0311500765383243,0.4708050191402435,0.3582912385463714,-1.4050072290636595,-9.315588484299182,-2.723258842477202,50,walking
1783066690851099100,1.4146483,0.1683826362401247,-1.1980576924115418,-0.207776488995552,0.322515457868576,0.4008115530014038,0.2197546660900116,-1.4368606033116578,-9.316378173372147,-2.703872004961968,50,walking
1783066690871023000,1.4345722,-0.3338660439074039,-1.6228800185292958,0.0237330500259995,0.5557441115379333,0.4291164875030517,0.0689027160406112,-1.441134919629991,-9.3364272741884,-2.631467570747435,50,walking
1783066690890948400,1.4544976,-0.2335937979497015,-2.1232564750641583,0.126270172175765,0.6120887994766235,0.4105550348758697,-0.0101562784984707,-1.4231937508784234,-9.366517292025684,-2.532442548371851,50,walking
1783066690910872800,1.474422,-0.2149061947450041,-2.5256051035672424,0.0714531248390674,0.5641815662384033,0.3484918177127838,-0.0287976674735546,-1.4010301421262323,-9.396471700784565,-2.431836832676083,50,walking
1783066690930796800,1.494346,-0.5959256194934248,-2.475271339124441,0.2400289455637335,0.4974146485328674,0.3649810254573822,-0.1166849285364151,-1.371509740870446,-9.423463168084622,-2.3425870621226728,50,walking
1783066690950722000,1.5142712,-0.4363347769960761,-2.493770287889242,0.0706269031479954,0.5054051876068115,0.2932637929916382,-0.159877210855484,-1.3274435123898087,-9.45030207517147,-2.258328231724352,50,walking
1783066690970646000,1.5341952,-0.4754129879310727,-2.522928577834368,-0.1616845999062061,0.4904363751411438,0.1645664423704147,-0.1126278713345527,-1.2921063876792789,-9.476211592453716,-2.1684723119713363,50,walking
1783066690990570800,1.55412,-1.0099301989987493,-1.832265696287155,-0.0534485354624688,0.299382209777832,0.0880547687411308,-0.1398624628782272,-1.264112173077464,-9.49664706223905,-2.094299406779557,50,walking
1783066691010496000,1.5740452,-1.2760036864012478,-1.15872813706398,0.1138642795890569,-0.0065828999504446,0.0427547357976436,-0.1629756093025207,-1.2316232774049043,-9.506841123995184,-2.067233851329982,50,walking
1783066691030419700,1.5939689,-1.3369878780655562,-0.4653396299451589,-0.2473518357977271,-0.1807186305522918,-0.0057036071084439,-0.1303460001945495,-1.2023622577376665,-9.505611289939283,-2.089987242668867,50,walking
1783066691050345000,1.6138942,-1.4073610987134275,0.3582008592188358,-0.6759823220267891,-0.1340512186288833,-0.147475391626358,-0.133228912949562,-1.1819682890065013,-9.501658168399333,-2.1193981922008094,50,walking
1783066691070269700,1.6338189,-1.5764087747335431,1.400779820626974,-0.4889543142884969,-0.0647895485162735,-0.1467359066009521,-0.1755148768424987,-1.159116259598732,-9.501261862558126,-2.1337441129393877,50,walking
1783066691090194000,1.6537432,-1.5185796860992908,2.1446827094525096,-0.4410357942938804,-0.0335526466369628,-0.0710046589374542,-0.1774880290031433,-1.1300059735137968,-9.503111874338984,-2.14111098844558,50,walking
1783066691110119000,1.6736682,-1.3725216943919658,2.5318635794401168,-0.5245025975316763,-0.0088742198422551,-0.0646989569067955,-0.1635675132274627,-1.100688474418968,-9.506173015475271,-2.1427879817470905,50,walking
1783066691130043000,1.6935922,-1.037968179677054,2.6387814008921384,-0.3245616244673728,-0.0270881876349449,-0.0796747133135795,-0.1057823672890663,-1.0761120323713869,-9.508643789502978,-2.1443094922259447,50,walking
1783066691149968000,1.7135172,-0.6371659038331359,2.3498095607221123,-0.4053174151808023,-0.0605611875653266,-0.2298988252878189,0.0263473782688379,-1.074538791705295,-9.507425061362982,-2.1504928570359945,50,walking
1783066691169892900,1.7334421,-0.6682905984804034,2.108367533490062,-0.3413108069553971,-0.0545243099331855,-0.3185133039951324,0.1847222596406936,-1.1062619637023656,-9.50271089232266,-2.155243266433477,50,walking
1783066691189816800,1.753366,-0.8808372244872152,1.7383301060050724,-0.3914005335092544,-0.0154280290007591,-0.4272033870220184,0.2910807430744171,-1.1681505568604915,-9.495393847307565,-2.1548329320669173,50,walking
1783066691209741800,1.773291,-0.9347919559061528,1.3785159663707016,-0.2690069105058908,0.0820352435111999,-0.6056853532791138,0.3776475191116333,-1.2524608982503411,-9.488873505628108,-2.1361180024638773,50,walking
1783066691229666000,1.7932152,-0.9163346543259918,0.8376134381800889,-0.0676285981148481,0.1189280822873115,-0.7584027647972107,0.480555921792984,-1.3630951098769903,-9.482177807381747,-2.0977773120231924,50,walking
1783066691249590800,1.81314,-1.0546904010929166,0.2960743656516075,0.2848828172907233,0.0585825070738792,-0.795789897441864,0.5541268587112427,-1.4946857464231549,-9.471105209225415,-2.057789146636426,50,walking
1783066691269516000,1.8330652,-1.046839395331591,0.169978380998969,0.5671174581602215,-0.0352600365877151,-0.8387194275856018,0.463737279176712,-1.6259871907643972,-9.455589075663683,-2.029375683709234,50,walking
1783066691289440000,1.8529892,-0.4318571931906044,0.2449029813408851,0.6693548667110503,-0.1640017628669738,-0.9377431869506836,0.3602412641048431,-1.7384863194800912,-9.437888583800197,-2.0184873560786247,50,walking
1783066691309364700,1.8729139,0.4595293362312018,0.0781336255162954,0.4607140159711241,-0.2696800231933594,-0.9910972714424132,0.3740341067314148,-1.844873979578167,-9.416267703622578,-2.0250250872842965,50,walking
1783066691329290000,1.8928392,0.948434112289548,0.0901911430567502,-0.0034133155748248,-0.3400450646877289,-1.0999913215637207,0.3830960094928741,-1.959086049691588,-9.389269806581735,-2.043030407313257,50,walking
1783066691349214000,1.9127632,0.8190968076281249,0.1873316668599844,-0.3654001230731606,-0.4670408070087433,-1.162015438079834,0.3244926929473877,-2.073209272477776,-9.35861923225224,-2.070849265348166,50,walking
1783066691369139000,1.9326882,0.9939712901055812,0.5597895994901657,-0.3806424081295728,-0.6735077500343323,-1.0792430639266968,0.2482720762491226,-2.172217635979503,-9.32316622607708,-2.128480931714177,50,walking
1783066691389063000,1.9526122,1.8205222131319343,0.4145680586069822,-1.0499357539117335,-0.8611801862716675,-1.0275249481201172,0.2749817073345184,-2.2656939381867645,-9.27805224210918,-2.2259305214665828,50,walking
1783066691408988000,1.9725372,1.99219059304446,0.5075748436063527,-1.4148708898216484,-0.8202822804450989,-0.8489692807197571,0.2833787500858307,-2.361047286312282,-9.225611276254057,-2.3417810064367948,50,walking
1783066691428913000,1.9924622,2.1623099899493154,0.755620214626193,-1.82583215610832,-0.4856341183185577,-0.7784885168075562,0.188951700925827,-2.44377861488238,-9.182014126589891,-2.4267191974014044,50,walking
1783066691448836900,2.0123861,2.5030899048984048,0.66455754943192,-1.9355211958393448,-0.1079731956124305,-0.7382713556289673,0.073315605521202,-2.5045865731969474,-9.16187968557775,-2.440780455979705,50,walking
1783066691468761900,2.0323111,2.683012172284722,0.2779027491450309,-1.7523662301421163,0.0502424612641334,-0.503296434879303,0.0195140372961759,-2.543101305030286,-9.15919380749464,-2.41085103553161,50,walking
1783066691488686800,2.052236,2.819303387737274,0.0676917264789342,-1.7323358340263366,0.0356139615178108,-0.2264543026685714,-0.0206126905977726,-2.5599814204216003,-9.161468182167413,-2.384194499274343,50,walking
1783066691508611000,2.0721602,2.955387390179932,-0.0870879163444042,-1.9429592368856072,0.0799349546432495,-0.0164135824888944,-0.0441599301993846,-2.560044256524741,-9.165004539600014,-2.3704943290933964,50,walking
1783066691528535800,2.092085,2.9186005050525066,-0.2455500470727682,-2.1750439454466104,0.2087398320436477,0.0922887995839119,-0.1053076237440109,-2.5448057708606124,-9.175634070163964,-2.345657409478724,50,walking
1783066691548460000,2.1120092,2.821966761727631,-0.3533388061404228,-2.106434519600868,0.2841998338699341,0.1464607566595077,-0.1618034690618515,-2.5138629355862734,-9.194138864147662,-2.306228631540388,50,walking
1783066691568384800,2.131934,2.4937115434393284,-0.7305424719929695,-2.209294590094685,0.3757911324501037,0.2437904477119445,-0.1879441738128662,-2.4726123490482568,-9.218113613975047,-2.2545449137933558,50,walking
1783066691588310000,2.1518592,1.920610919216275,-0.9835954420417546,-2.019448310065269,0.293669193983078,0.41314497590065,-0.2432642132043838,-2.4190539234705266,-9.244134774938225,-2.2055694320917127,50,walking
1783066691608234000,2.1717832,1.5834803205549717,-1.3888707716464996,-1.8749188430994748,0.0573351122438907,0.5868916511535645,-0.2383373230695724,-2.351869415861368,-9.263381327199935,-2.197468397092074,50,walking
1783066691628158700,2.1917079,0.994750311654061,-1.6358610806554554,-2.320254380413889,0.081300638616085,0.6874741911888123,-0.2183961719274521,-2.2823820381373165,-9.275264072695371,-2.2204985595457254,50,walking
1783066691648084000,2.2116332,0.2335505433298647,-1.7213251951903104,-2.59720728148818,0.3896446526050567,0.7839695811271667,-0.286441832780838,-2.205923652356863,-9.295593744018673,-2.212743853765726,50,walking
1783066691668008000,2.2315572,-0.028262217888236,-1.471036429157853,-2.253083755199611,0.6919551491737366,0.8914162516593933,-0.4450812339782715,-2.0998840750440952,-9.3357924834162,-2.145663537183404,50,walking
1783066691687933000,2.2514822,0.630966829997301,-1.9131728781700128,-1.8732783824160693,0.8278541564941406,0.9872138500213624,-0.3500925898551941,-1.9815962799243627,-9.385066509673,-2.040642927654833,50,walking
1783066691707857000,2.2714062,0.885697816260904,-2.436007250228524,-1.7384814971745013,0.9417330622673036,1.045310378074646,-0.060214776545763,-1.903083738093078,-9.427710888656971,-1.914920452489704,50,walking
1783066691727782000,2.2913312,-0.3428231112144887,-2.3002672389179466,-1.488248260721564,1.081606388092041,1.0038161277770996,0.0239794943481683,-1.8671746587134896,-9.464690081486106,-1.76173114759773,50,walking
1783066691747707000,2.3112562,-1.8269407018721104,-1.5102747990906238,-0.4954014446012675,1.014629602432251,1.1643574237823486,-0.1430670768022537,-1.8219722658097743,-9.502453118169306,-1.5981781234711407,50,walking
1783066691767630800,2.33118,-2.093887903369218,-0.485024573624134,0.0041219022355973,0.6715874671936035,1.32705819606781,-0.2948160767555237,-1.7405758391052484,-9.536954522708058,-1.4789505632832645,50,walking
1783066691787555800,2.351105,-1.8068476157836613,0.3671615797877312,0.1228793606936931,0.1499769538640976,1.5870305299758911,-0.2731846272945404,-1.6421495132751762,-9.559100303542614,-1.4482196171939372,50,walking
1783066691807479800,2.371029,-1.3882802584074436,1.2265057882606982,-0.5705545930020511,-0.2690671682357788,1.743168592453003,-0.110269047319889,-1.553594885379076,-9.562965746799112,-1.5186851923003792,50,walking
1783066691827405000,2.3909542,-1.501076908764988,0.8979004413604735,-1.9242150811880825,-0.2002992182970047,1.7968491315841677,0.1063310205936431,-1.5002046559751032,-9.554286181259156,-1.623393374878913,50,walking
1783066691847329800,2.410879,-2.348827563947439,1.7068226225852965,-2.102471461188793,0.1647329032421112,1.8930331468582156,0.0302752703428268,-1.456456553532928,-9.55067617406845,-1.683359621672332,50,walking
1783066691867253800,2.430803,-2.6471844875782726,2.253581475588679,-1.8928812007695437,0.6010510325431824,1.876503586769104,-0.2002264708280563,-1.3771693740673363,-9.565922258517146,-1.663406382445991,50,walking
1783066691887179000,2.4507282,-2.20552822329849,2.043200941574573,-1.5240765299499035,0.8612034320831299,1.840978980064392,-0.2291513234376907,-1.271750266740471,-9.596308628952505,-1.5696807816527782,50,walking
1783066691907104300,2.4706535,-1.4512800276778637,1.7543495129138231,-1.008893111035973,0.9177117347717284,1.8033764362335205,-0.0718440860509872,-1.186681508198753,-9.627233928570153,-1.4417222179986535,50,walking
1783066691927028200,2.4905774,-1.0829089259698987,1.3447165726214647,-0.5525229694880545,0.8459814190864563,1.6864525079727173,0.1497208476066589,-1.1475894879341124,-9.650502575954794,-1.31196186561957,50,walking
1783066691946953200,2.5105024,-1.3751821457728743,1.2303244697660207,-0.0301231894545257,0.7581442594528198,1.577610731124878,0.2233772277832031,-1.1454630703646689,-9.665993575075268,-1.1945105943892151,50,walking
1783066691966877200,2.5304264,-1.5529834754824638,0.8804384344279765,0.4150087881118059,0.6359492540359497,1.6442220211029053,0.2384987920522689,-1.1532125154476611,-9.67658569623828,-1.0973560420606283,50,walking
1783066691986802200,2.5503514,-1.2375881771586834,0.6218605634778738,0.768006671860069,0.5009745359420776,1.7434536218643188,0.2668275237083435,-1.1651431186728178,-9.6830171905905,-1.0256827716648578,50,walking
1783066692006727200,2.5702764,-0.6359490753892809,0.2487023736238479,0.6797703161329031,0.3268202245235443,1.6665118932724,0.3242110013961792,-1.1879837499037385,-9.684400753903388,-0.9856297974135726,50,walking
1783066692026651100,2.5902003,-0.5200377270773053,0.2593073542684316,0.787470812395215,0.1185635551810264,1.6352676153182983,0.3510487675666809,-1.22189354522489,-9.680640524587034,-0.9811016524646432,50,walking
1783066692046576400,2.6101256,-0.3418646414458751,0.8083394129008055,0.7575304321616888,-0.098423458635807,1.702481985092163,0.3795750141143799,-1.258210401687771,-9.671823596403,-1.021341673720628,50,walking
1783066692066500000,2.6300492,0.1141151856102049,1.288965459305048,0.517686487776041,-0.2941938042640686,1.7876282930374146,0.483884185552597,-1.3032852226890623,-9.6568498991549,-1.103218212092295,50,walking
1783066692086425300,2.6499745,0.3864826585903763,2.015807323214412,0.4065548480212688,-0.4732386469841003,1.83276629447937,0.5963321328163147,-1.3655616461209952,-9.63325918020904,-1.227167613170296,50,walking
1783066692106350000,2.6698992,0.5868140922769903,2.33992997174263,-0.1894562577985227,-0.4497430324554443,1.688429594039917,0.6608538031578064,-1.439748287577182,-9.603338673719763,-1.3687199640214442,50,walking
1783066692126274000,2.6898232,0.7011128177605569,1.849014001992345,-0.6704974608749151,-0.2473360151052475,1.6316100358963013,0.813669741153717,-1.5326491279840468,-9.571511456826329,-1.4857807015642523,50,walking
1783066692146199300,2.7097485,0.706802846095711,1.662788835069537,-0.8422432899378239,0.0314294509589672,1.5232057571411133,0.8940367102622986,-1.649070836970955,-9.540759175688027,-1.5571958324804902,50,walking
1783066692166124000,2.7296732,0.56628100733608,1.1933698268562554,-0.7290900812275707,0.2742973566055298,1.4443297386169434,0.944020926952362,-1.7764003089413043,-9.51456850337684,-1.5772745977826417,50,walking
1783066692186048300,2.7495975,0.1910448421642184,0.3972153572678565,-0.4097849159836769,0.3493031859397888,1.362056851387024,0.9352689385414124,-1.913074386231601,-9.489794712126256,-1.5666289928667247,50,walking
1783066692205973200,2.7695224,-0.3767936237469315,-0.0574602553218603,0.1744258619271218,0.2283048182725906,1.3808107376098633,0.7690299153327942,-2.03237208904624,-9.465627654597162,-1.5626142042674125,50,walking
1783066692225897000,2.7894462,-0.503517238778621,-0.491324550551176,0.5391138912081718,0.0399366095662117,1.410921335220337,0.5521044135093689,-2.1142431475251917,-9.442068499833344,-1.596153485775739,50,walking
1783066692245822200,2.8093714,-0.130903823325783,-0.407684728834033,0.6820603267662226,-0.1141285449266433,1.3069603443145752,0.3401594161987304,-2.152117389497906,-9.422309906396269,-1.6609893844321368,50,walking
1783066692265747000,2.8292962,0.2015487005218863,-0.3758914142102003,0.9799467102758586,-0.2933213710784912,1.255903959274292,0.2318594604730606,-2.1615023268282414,-9.403226435741782,-1.7543216019935906,50,walking
1783066692285671200,2.8492204,0.4192233370669186,-0.0883417157977819,1.0121139727786184,-0.3703891038894653,1.1670736074447632,0.161116823554039,-2.1539723697148263,-9.382373032805322,-1.8713333858281371,50,walking
1783066692305596200,2.8691454,0.5526075790315866,-0.0081423899233341,0.8578460788697004,-0.2982845306396484,1.0466086864471436,0.0945702642202377,-2.1354741516023874,-9.363810371154546,-1.9822228873901069,50,walking
1783066692325520400,2.8890696,0.4969714703969657,-0.0268652105718851,0.8056599645584821,-0.1863434165716171,0.9087768197059632,0.0157552137970924,-2.1060246236257254,-9.351821242675184,-2.0684518488176167,50,walking
1783066692345445000,2.9089942,0.4414638104476034,-0.4123088815033435,0.8257897293955088,-0.0985471755266189,0.8122841119766235,-0.0102584194391965,-2.070568402580172,-9.345708897274733,-2.130929055518657,50,walking
1783066692365370400,2.9289196,0.2237869819454848,-0.710388157236576,0.7848403177611529,0.0377443693578243,0.743679404258728,-0.017463531345129,-2.033952636235952,-9.344957786646484,-2.1691373517513277,50,walking
1783066692385294000,2.9488432,-0.1501055135324597,-1.2016992637842894,0.5966022035807371,0.2527674436569214,0.6902937889099121,-0.0122587196528911,-2.000934894383698,-9.35149274137318,-2.171687474625557,50,walking
1783066692405219000,2.9687682,-0.726334937300533,-1.506057473656535,0.5333522589415312,0.5679081082344055,0.6024175882339478,-0.0864962860941886,-1.96594482954517,-9.37005189589262,-2.123102015154809,50,walking
1783066692425143300,2.9886925,-1.068925993324816,-1.9601251834809776,0.6554223490789532,0.8179107904434204,0.5087857246398926,-0.2064466774463653,-1.914848264036328,-9.405300903928278,-2.010989693799615,50,walking
1783066692445068000,3.0086172,-1.0675827620223164,-2.754245516893268,0.8323769988313316,0.765084981918335,0.5190982222557068,-0.2239038497209549,-1.852744274561852,-9.445258235785364,-1.87744573122859,50,walking
1783066692464993300,3.0285425,-1.0195521599553523,-3.3868910937577485,0.470045761809498,0.4468635618686676,0.4841362535953522,-0.137215569615364,-1.7996201487481591,-9.474610002475975,-1.7786267528191209,50,walking
1783066692484917200,3.0484664,-1.251708034056425,-3.1255618782728907,0.0748316613614559,0.0271376427263021,0.4508009254932403,-0.0611508041620254,-1.7655844620250165,-9.486194641807677,-1.750772531209886,50,walking
1783066692504842200,3.0683914,-1.5336128584496675,-1.977866591876745,-0.7327053491152823,-0.1444346606731414,0.3988864123821258,-0.0689880326390266,-1.7398596536599098,-9.48497357558012,-1.7828526999510823,50,walking
1783066692524767200,3.0883164,-1.3885327718637883,-0.9793342774659396,-1.6698511746712028,0.1268170028924942,0.3668041825294494,-0.1226202324032783,-1.7080679464712738,-9.487069086554646,-1.8023397829703989,50,walking
1783066692544691200,3.1082404,-1.3363763220384717,-0.3744078976541757,-2.1344781263023616,0.5013580322265625,0.2889508605003357,-0.2429259121417999,-1.6634087205335495,-9.50451706496179,-1.7514609518654642,50,walking
1783066692564616200,3.1281654,-1.2801780494764443,0.5328092381060123,-1.616544385766983,0.6434441804885864,0.3255631327629089,-0.3773624300956726,-1.5930135803148149,-9.534857842689751,-1.6489970410823822,50,walking
1783066692584540200,3.1480894,-0.829774707378447,1.27456400898695,-1.0597457847863434,0.5647154450416565,0.4157117307186126,-0.4148415327072143,-1.5050206779547035,-9.566881458938122,-1.5427518581949171,50,walking
1783066692604465200,3.1680144,-0.2601270000882447,2.0611936943829057,-0.7158867546528578,0.3735426664352417,0.4285840392112732,-0.3837034404277801,-1.414018510776013,-9.593052842026948,-1.46433269373551,50,walking
1783066692624390100,3.1879393,0.2562400756523013,2.239506773006916,-0.7647323263645172,0.1525715738534927,0.4353277683258056,-0.2336812913417816,-1.3414119781181215,-9.609158758175372,-1.4265604508325456,50,walking
1783066692644314400,3.2078636,0.3769093590810894,2.404761048093438,-1.0400210936188696,0.0274892468005418,0.3677074313163757,-0.0970969796180725,-1.299125911052525,-9.615647535672784,-1.421966401040554,50,walking
1783066692664239000,3.2277882,0.1897362437836825,2.3101222779780626,-1.1482270551852882,-0.0027513946406543,0.3126414716243744,0.002753322944045,-1.2813425632111728,-9.616925885045529,-1.4294300149194896,50,walking
1783066692684163000,3.2477122,0.1800894406467676,2.232799968844652,-1.4866870027542114,0.0334430187940597,0.1418082118034362,0.0470996275544166,-1.278579089847207,-9.616667526370286,-1.4336406183518469,50,walking
1783066692704088300,3.2676375,0.0965239993400871,1.5307693055868148,-1.5738548524670302,0.0693080350756645,0.0887625738978385,0.1659858375787735,-1.2951209131948649,-9.615687867683173,-1.425331639689952,50,walking
1783066692724013000,3.2875622,-0.1746380433730781,1.0974503692805766,-1.5868458514653143,0.0662484318017959,0.0359867736697196,0.2319006770849228,-1.3328108846418558,-9.61227835150063,-1.4135377415217458,50,walking
1783066692743937300,3.3074865,-0.3828763046614825,0.6356044266700744,-1.3981671539105474,0.0300205145031213,0.0175195485353469,0.2918059229850769,-1.381800102607906,-9.60667921631932,-1.4045451645098626,50,walking
1783066692763862000,3.3274112,-0.4437000450670719,0.0567927313238382,-1.508580854654312,-0.001302491640672,-0.0416206717491149,0.347419798374176,-1.4439783263623711,-9.597985037732125,-1.4014217717923223,50,walking
1783066692783786200,3.3473354,-0.7319193133041262,-0.0911959361851215,-1.3461029124133288,-0.0537091940641403,-0.0328948907554149,0.2536690235137939,-1.504713803962618,-9.588261516097187,-1.404086460956931,50,walking
1783066692803711200,3.3672604,-0.6975749990232288,0.0488730442404747,-0.9538216505467892,-0.221218392252922,0.0249315220862627,0.0880511179566383,-1.5372626131288707,-9.579591302907469,-1.4278100125022233,50,walking
1783066692823636200,3.3871854,-0.0618112901382148,0.2511339846849441,-0.4695816514290869,-0.4718784987926483,0.1706113517284393,0.0223357900977134,-1.542753027238697,-9.56817091422677,-1.4968059534475209,50,walking
1783066692843560200,3.4071094,0.8555610366724431,0.54805064637959,-0.5985995148777962,-0.602830171585083,0.1914348155260086,0.1006772518157959,-1.5468867660425605,-9.549500700548291,-1.607657314956188,50,walking
1783066692863485200,3.4270344,1.0440765064895152,0.7635638671070337,-0.6513257274150848,-0.5660975575447083,0.2280757874250412,0.1792911291122436,-1.5682570324599745,-9.52514484244883,-1.7270146390035748,50,walking
1783066692883410200,3.4469594,0.958396703377366,1.00316815751791,-0.6139724405765533,-0.4374589920043945,0.2774126529693603,0.1614256799221038,-1.5922615929037331,-9.5018358630538,-1.830357816839218,50,walking
1783066692903334100,3.4668833,1.0644878647468985,0.9432873970508576,-0.4877389471493661,-0.2983145117759704,0.3399587571620941,0.1476790010929107,-1.6091685963019728,-9.48355377191007,-1.908707569324225,50,walking
1783066692923259000,3.4868082,1.2472495933428407,0.7350117263615131,-0.4799471242293715,-0.1349611282348632,0.3553752601146698,0.1584804505109787,-1.6250845428362488,-9.469956039190292,-1.9619884931348264,50,walking
1783066692943182800,3.506732,1.1662526873499155,0.6033838265448809,-0.3153125884763896,0.0484016984701156,0.3857957720756531,0.1092454567551612,-1.635964833290875,-9.464024311053752,-1.981475137762725,50,walking
1783066692963107800,3.526657,1.304389676799625,0.3607476210922002,-0.0710284696862101,0.1867989897727966,0.4443265199661255,0.0818704888224601,-1.6364356656730177,-9.465897703710198,-1.9721239565715192,50,walking
1783066692983032800,3.546582,1.4204378762990235,-0.0286649534702301,-0.0003100888624787,0.2602172493934631,0.4504810571670532,0.1047990694642067,-1.6374122556202113,-9.47152606498599,-1.9440807882614437,50,walking
1783066693002956800,3.566506,1.232156215237826,0.0009545242458581,0.1841796325698494,0.3285768330097198,0.4259973168373108,0.0522796176373958,-1.6366268043309449,-9.48004897865951,-1.90276765788123,50,walking
1783066693022882000,3.5864312,1.2341107103064657,0.0025566987454891,0.2549234400957822,0.3815321624279022,0.3850359320640564,-0.0371786691248416,-1.6224202920630573,-9.493321717208625,-1.847965661983192,50,walking
1783066693042806000,3.6063552,1.4622119021892546,-0.2065279502391815,0.3182330059677362,0.3650793135166168,0.3789708912372589,-0.0525313876569271,-1.5991303096294402,-9.508693473863602,-1.788272971434146,50,walking
1783066693062730800,3.62628,1.5973041171155868,-0.4117442333579063,0.1607061102628707,0.3400131165981293,0.3034787178039551,-0.0278528742492198,-1.5793477507948874,-9.522397005045413,-1.7320508796051144,50,walking
1783066693082656000,3.6462052,1.544070831838995,-0.6963450188368558,0.1684155155964195,0.288765400648117,0.2374876588582992,-0.0318907462060451,-1.565618500649929,-9.53407750596702,-1.6794560383625328,50,walking
1783066693102579700,3.6661289,1.4227207265391946,-0.967641501584649,0.3286341346032917,0.1368454992771148,0.2218734920024871,-0.0385650657117366,-1.5506607316233216,-9.54260392677188,-1.644547368197143,50,walking
1783066693122505000,3.6860542,1.417434018307924,-1.1370154869496822,0.3518798395037651,-0.0488452352583408,0.2496837973594665,-0.0156387574970722,-1.537593014127016,-9.544864857441189,-1.6437008343704045,50,walking
1783066693142429000,3.7059782,1.3787715485669672,-1.1488666682630777,0.2856177074365317,-0.214570939540863,0.2945237755775451,0.0179484076797962,-1.529007995002717,-9.54019745015204,-1.6784446693629025,50,walking
1783066693162354000,3.7259032,1.276586308594793,-1.112835569939017,-0.2292085686028003,-0.2202397137880325,0.2514855861663818,0.0201150402426719,-1.5240869052134454,-9.531635373511907,-1.7307449115730822,50,walking
1783066693182279000,3.7458282,0.9664519995391369,-1.1142062737703322,-0.5911743333131074,-0.099326342344284,0.2625805735588074,-0.0182547196745872,-1.516669468563795,-9.525476266360284,-1.7707057505615054,50,walking
1783066693202203000,3.7657522,0.7612048828907311,-1.1009937409758568,-0.8315593988381326,0.1072249189019203,0.3450233042240143,-0.0924578681588172,-1.4948779079943897,-9.527315756747123,-1.779316927040368,50,walking
1783066693222127900,3.7856771,0.9360044004358352,-1.2059177582621574,-1.1239221966207027,0.3117460012435913,0.3218592703342438,-0.1044172644615173,-1.4634769536890089,-9.537613278877734,-1.7500174750588833,50,walking
1783066693242051800,3.805601,0.8817920409940183,-1.2436474771976471,-1.1518623429477215,0.4835868775844574,0.2995556890964508,-0.1317994594573974,-1.430962046792358,-9.55480056052208,-1.6818248133204876,50,walking
1783066693261976800,3.825526,0.7110149108327924,-1.272795830270648,-0.9189087425976992,0.5374945998191833,0.3876654505729675,-0.1356279253959655,-1.393811296788603,-9.57563116710484,-1.5921601783558723,50,walking
1783066693281901800,3.845451,0.9142406046561896,-1.3800024055361746,-0.9105028794325888,0.502864420413971,0.4604374468326568,-0.0600514337420463,-1.360160956121236,-9.594719898456336,-1.5039004417531192,50,walking
1783066693301826000,3.8653752,1.0085988042645155,-1.5030968702852725,-1.0710415241740645,0.4373575448989868,0.4578024744987488,0.0894027128815651,-1.3491738442912695,-9.608093174770474,-1.4264102287068965,50,walking
1783066693321750800,3.8853,0.429393287295103,-1.50602941660583,-1.263711191061139,0.4082214534282684,0.4397642016410827,0.1445228308439254,-1.3625333843410017,-9.616084758046268,-1.358238609756529,50,walking
1783066693341674800,3.905224,-0.6040509121514857,-1.2168553318619728,-1.285336893544346,0.3382685780525207,0.4966678321361542,0.0188412647694349,-1.368023213928938,-9.623642041558028,-1.29785720629096,50,walking
1783066693361600000,3.9251492,-1.2590496289908886,-0.7539841378569603,-1.1180886681616309,0.1877607256174087,0.6364682912826538,-0.1833195239305496,-1.338359897071123,-9.632511576712131,-1.2624959700524807,50,walking
1783066693381524700,3.9450739,-1.421499221920222,-0.165409173387289,-1.215591011014581,0.0355972871184349,0.8210482597351074,-0.3660347163677215,-1.2668901133581996,-9.642437927442788,-1.260462418398261,50,walking
1783066693401449000,3.9649982,-1.1460007574379445,0.7861778499752282,-1.1652952404946089,-0.0873302295804023,0.9661186337471008,-0.465148776769638,-1.162308845094964,-9.651906597533822,-1.2884623320885005,50,walking
1783066693421374000,3.9849232,-0.7921792823471129,1.4376035306334494,-1.304816962300986,-0.0768918544054031,1.0144896507263184,-0.4502036273479461,-1.0471659238722175,-9.659590722295642,-1.328954209213704,50,walking
1783066693441298000,4.0048472,-0.8596302588727325,1.9775527036219835,-1.526617446604371,0.132941722869873,0.9683356881141664,-0.4275144636631012,-0.9370684494707732,-9.668476624062658,-1.3464243994526564,50,walking
1783066693461223000,4.0247722,-1.1569167037278414,2.481025957128405,-1.4337310731142758,0.4381702244281769,0.872696042060852,-0.4734290242195129,-0.8259311836928128,-9.683981651708484,-1.3071807688228785,50,walking
1783066693481148000,4.0446972,-0.9461223282158374,2.4498078120440243,-1.0907388889431953,0.6209498643875122,0.765143632888794,-0.4620696306228637,-0.7120118859808892,-9.70513666794002,-1.213979484164715,50,walking
1783066693501072000,4.0646212,-0.5953799683094024,2.1345260570973155,-0.7470533887457103,0.628887414932251,0.6462364196777344,-0.3386635482311249,-0.617133388825506,-9.725192198497057,-1.1000731920648366,50,walking
1783066693520996900,4.0845461,-0.3416893944768235,1.7433914810478686,-0.5123129780441522,0.4740724861621856,0.5548668503761292,-0.1618000864982605,-0.5558369894068688,-9.739875388365984,-0.9981292135026304,50,walking
1783066693540921000,4.1044702,-0.3407045846905559,1.4825240378558635,-0.1703096587799489,0.1787889748811721,0.484123557806015,-0.0101380664855241,-0.529288333970867,-9.74730699967146,-0.9382057098723948,50,walking
1783066693560845800,4.124395,-0.372201729379408,1.2026859367340803,0.0717230278216302,-0.2350847274065017,0.4261554181575775,0.1633046269416809,-0.535200809417665,-9.746096454837918,-0.9474025772847234,50,walking
1783066693580771000,4.1443202,-0.4266677713213488,0.8527285897254944,0.1020797337710857,-0.6266167163848877,0.44361412525177,0.30446657538414,-0.5741085226239636,-9.7347678360939,-1.036865698327869,50,walking
1783066693600694800,4.164244,-0.5474236005224287,0.99024379401505,0.0702140114981681,-0.9452478289604188,0.4867012202739715,0.3035203516483307,-0.6249869518700987,-9.713367320668697,-1.1959376315176486,50,walking
1783066693620620000,4.1841692,-0.4058188618969172,1.3265519703775643,-0.0165675423108041,-1.1201661825180054,0.5911559462547302,0.235778659582138,-0.6630423956286162,-9.682764092612263,-1.4052888224840163,50,walking
1783066693640544000,4.2040932,0.3077097122572362,1.418812320923805,-0.2389396890223026,-1.1433677673339844,0.6966049671173096,0.2902860939502716,-0.691530165901035,-9.6448403124094,-1.6337746297702191,50,walking
1783066693660468700,4.2240179,0.9369982337787748,1.3820318655371666,-0.3347489642217755,-1.0829756259918213,0.8249051570892334,0.4346451163291931,-0.734538628957048,-9.600878421086072,-1.858489394085109,50,walking
1783066693680394000,4.2439432,1.1917142416689543,1.2753145350933075,-0.2001122379779815,-1.0309762954711914,0.9829065799713136,0.559001088142395,-0.7941271284792571,-9.551920036649705,-2.0737809348858893,50,walking
1783066693700318000,4.2638672,1.3270178343236445,1.0568284360349178,-0.0462321743428707,-0.9425321817398072,1.1362793445587158,0.6455909013748169,-0.8622433639805763,-9.498933127349614,-2.2797348846293986,50,walking
1783066693720243000,4.2837922,1.3919763364464044,0.6553665272384882,-0.1966822635293006,-0.7542928457260132,1.155120015144348,0.7117854356765747,-0.9361801953941584,-9.446276472917198,-2.4620786800742147,50,walking
1783066693740167000,4.3037162,1.2704618343651295,0.184221425884962,-0.3758481595903635,-0.4343430399894714,1.1479767560958862,0.7468342781066895,-1.0150303716819733,-9.401897817486525,-2.5970018220439552,50,walking
1783066693760092000,4.3236412,1.125053100346774,-0.4810743746936321,-0.3767033151149749,-0.1291691362857818,1.2376810312271118,0.8148742318153381,-1.098118404735252,-9.371065456849337,-2.673510184445977,50,walking
1783066693780017000,4.3435662,0.7672628677554428,-0.753712335178256,-0.3270274300590157,0.1307602375745773,1.2849477529525757,0.8103187084197998,-1.1834049707461147,-9.352511563026903,-2.701936652985215,50,walking
1783066693799940900,4.3634901,0.2641169465072452,-0.8950427138417959,-0.1952744425579905,0.3308706879615783,1.3707555532455444,0.7040697932243347,-1.254717737266421,-9.346901906451585,-2.6891394229933616,50,walking
1783066693819865900,4.3834151,0.1065393435284495,-0.9600164135336876,0.118685123874247,0.4156992137432098,1.5105599164962769,0.5762578248977661,-1.2967566977031528,-9.350911726614832,-2.6550422153413296,50,walking
1783066693839789800,4.403339,0.3441689728654921,-1.1065391001433134,0.3203784935638308,0.3735928833484649,1.5954235792160034,0.5048072934150696,-1.31441904951334,-9.358366134274004,-2.619859258279204,50,walking
1783066693859715000,4.4232642,0.7137624559752642,-1.0527449661135673,0.3395063878819346,0.2492952793836593,1.6249816417694092,0.5270717144012451,-1.324583008392155,-9.36128289850354,-2.6042712285250422,50,walking
1783066693879639800,4.443189,0.9360765888892114,-1.2304483884066342,-0.0775458887562155,0.1747946143150329,1.5848604440689087,0.635159969329834,-1.3493755043432116,-9.356411493074894,-2.609047356885672,50,walking
1783066693899563800,4.463113,0.6233237678982317,-1.1959259410798548,-0.4571215444371104,0.1984811276197433,1.546096920967102,0.7121306657791138,-1.393957573391497,-9.34739115127325,-2.617931212826073,50,walking
1783066693919492900,4.4830421,-0.0816426565505564,-1.25167997700572,-0.5388479337483644,0.242336094379425,1.5822455883026123,0.6902652978897095,-1.4445114103257657,-9.338921429091693,-2.620750069639086,50,walking
1783066693939416800,4.502966,-0.4228970571435987,-1.2359604298263789,-0.6291586115315556,0.2960288524627685,1.5956721305847168,0.5930525660514832,-1.4809423216223716,-9.333992155995965,-2.6179776823163032,50,walking
1783066693959342000,4.5228912,-0.3827355810165405,-1.491284851938486,-0.8796686190992593,0.3755814135074615,1.539078950881958,0.5257754325866699,-1.502698080226034,-9.334995780080556,-2.601949799840152,50,walking
1783066693979266800,4.542816,-0.624243659222126,-1.6848644732773304,-0.7732569936037064,0.40308278799057,1.5765949487686155,0.4733407199382782,-1.515723712146282,-9.3404341717422,-2.5747347529172897,50,walking
1783066693999190800,4.56274,-0.7840379153370857,-1.7171452791571615,-0.6609121786668897,0.3648706078529358,1.5551503896713257,0.3647818863391876,-1.5128991562448442,-9.347507471129298,-2.5506100732252,50,walking
1783066694019116000,4.5826652,-0.7970594556041062,-1.92677470254302,-0.8170894133284687,0.3427838087081909,1.4909309148788452,0.3180089592933655,-1.498680661278218,-9.35515184840262,-2.530902625453472,50,walking
1783066694039039700,4.6025889,-1.013478977521509,-1.79894736405313,-0.9951134458780287,0.3661401867866516,1.3860608339309692,0.264117568731308,-1.4811296608880162,-9.364017876425384,-2.508351770949364,50,walking
1783066694058965000,4.6225142,-1.5607057402975857,-1.3370008836776015,-0.8887266625627874,0.4130418300628662,1.352876901626587,0.1342187672853469,-1.4526960319556297,-9.377499289289116,-2.474378189677,50,walking
1783066694078889700,4.6424389,-1.8925563527293503,-0.3898024506628513,-0.4934063252612948,0.4430166780948639,1.4112730026245115,-0.0584148988127708,-1.3918392660632728,-9.39709421659708,-2.434701866718381,50,walking
1783066694098814000,4.6623632,-1.354967917522788,0.3798790225416422,-0.6470490730091929,0.5310988426208496,1.2969961166381836,-0.1674923002719879,-1.3031944756656884,-9.423675349530576,-2.380418487866968,50,walking
1783066694118739000,4.6822882,-1.005873909345269,1.060563530910015,-0.6222532160572707,0.6442884802818298,1.172421097755432,-0.1831123232841491,-1.2120546535819767,-9.455531792518496,-2.3009173733897508,50,walking
1783066694138663000,4.7022122,-1.0082331858225166,1.6877853291600942,-0.4516264541521668,0.7438106536865234,1.0986210107803345,-0.2193572968244552,-1.123654047203809,-9.49138753427565,-2.195762323826551,50,walking
1783066694158588000,4.7221372,-0.7246954995304346,2.1183441531032323,-0.3395867596417665,0.7740575671195984,1.0312817096710205,-0.2037765383720398,-1.0365390967220067,-9.528697566494346,-2.0736191684529186,50,walking
1783066694178513000,4.7420622,-0.3121815239090472,2.1871885567486284,-0.3016530425667763,0.7396292090415955,0.937614679336548,-0.1075534895062446,-0.9663221626143902,-9.562526770859956,-1.94799869235754,50,walking
1783066694198436900,4.7619861,0.0093995503775775,2.060201176214218,-0.3600648995250463,0.6125587224960327,0.8198234438896179,0.0129439821466803,-0.9244335704337804,-9.589217209386826,-1.8337720091968772,50,walking
1783066694218361900,4.7819111,0.2243907199922949,1.799139671754837,-0.4242616234950721,0.3975951671600342,0.7388038039207458,0.1369601488113403,-0.9104789871003478,-9.606032150587438,-1.7508705847568808,50,walking
1783066694238285800,4.801835,0.3653745502404868,1.3988666804820298,-0.8332833000212907,0.2095957845449447,0.6448423862457275,0.2897748649120331,-0.9271140416894108,-9.612474750855563,-1.7062164733856915,50,walking
1783066694258210800,4.82176,0.2654654385067522,1.0111194087833166,-1.1493243489027023,0.0771147310733795,0.6071485877037048,0.4326975643634796,-0.9756456520810722,-9.610343584045768,-1.691096791795641,50,walking
1783066694278134800,4.841684,0.1058131481457501,0.790182409441471,-1.5521097613878547,0.0384520925581455,0.53434157371521,0.4908389449119568,-1.0464353445753454,-9.602491701501608,-1.6933802265577018,50,walking
1783066694298060000,4.8616092,-0.1000747506242245,0.6040180327951907,-1.9522440748423335,0.0715254992246627,0.4534491896629333,0.4729722142219543,-1.1233622977156192,-9.59379635387063,-1.6933770116873084,50,walking
1783066694317984800,4.881534,-0.435172016827017,0.5064057998269796,-1.8275285847626623,0.1475263088941574,0.5946551561355591,0.3882480561733246,-1.188994534381479,-9.587163199466469,-1.686111696859449,50,walking
1783066694337909000,4.9014582,-0.1480824832722544,0.6492436604440212,-2.026950502388924,0.2953721582889557,0.5615742206573486,0.2798525393009186,-1.232024843943119,-9.586498598077892,-1.6587733158178626,50,walking
1783066694357834000,4.9213832,0.3678929628022014,0.7738461916685104,-1.5579278000168502,0.3683321177959442,0.5354241132736206,0.2608777284622192,-1.264970251211524,-9.59109118656516,-1.6066078059032558,50,walking
1783066694377757700,4.9413069,0.6045911565080285,0.9923018955886364,-1.096748943012953,0.2913481891155243,0.5509073734283447,0.27337646484375,-1.2989097840838133,-9.59496832025945,-1.555577291367948,50,walking
1783066694397683000,4.9612322,0.6533038956202566,1.1620862153202294,-0.6324993002615868,0.138548269867897,0.6395469307899475,0.2416235357522964,-1.331760791067034,-9.594613515472412,-1.529763635675609,50,walking
1783066694417607700,4.9811569,1.072096440054476,1.444741711950302,-0.49338732829988,-0.0150999119505286,0.6222339868545532,0.173037052154541,-1.349973470236361,-9.59131213583946,-1.534501623982936,50,walking
1783066694437532000,5.0010812,1.6880898650646208,1.2212597043007611,-0.3491314175784588,-0.1591470688581466,0.6299700140953064,0.2540878653526306,-1.3701098109446466,-9.582859364792704,-1.5690731711484491,50,walking
1783066694457457000,5.0210062,2.01624834498018,1.074383381947875,-0.6085510000497102,-0.2228757590055465,0.5776895880699158,0.3604287207126617,-1.4097672830723225,-9.567963408955931,-1.623892410442233,50,walking
1783066694477380900,5.0409301,1.9381433610364796,0.8951216242969036,-0.6974550259053707,-0.186498761177063,0.5685009956359863,0.4392092227935791,-1.4681315014965832,-9.549562075346708,-1.679538602079451,50,walking
1783066694497305900,5.0608551,1.731285155929625,0.6467991899013519,-0.6821117646925151,-0.1236385703086853,0.593082070350647,0.4481385052204132,-1.533314606155455,-9.530932778200508,-1.7264549592941998,50,walking
1783066694517231000,5.0807802,1.6311556794434785,0.308501885548234,-0.739460960855335,-0.0461572483181953,0.5649790167808533,0.4463089406490326,-1.59823540661633,-9.513906824597717,-1.7611328894436358,50,walking
1783066694537154800,5.100704,1.3663316075801848,0.1182177986234426,-0.7632844656437635,0.0289701260626316,0.4992166757583618,0.3826864063739776,-1.6591725442685186,-9.500046641549469,-1.779507481176406,50,walking
1783066694557079800,5.120629,0.908870894316584,-0.1209276421040296,-0.5841266067586839,0.0851935669779777,0.5859800577163696,0.2591378390789032,-1.7018004105091094,-9.491341941568257,-1.7856842701151967,50,walking
1783066694577004000,5.1405532,0.9077643943794071,-0.173723412746191,-0.4796626081995666,0.1780198961496353,0.6872411370277405,0.0988526195287704,-1.7126650650031865,-9.489722815933822,-1.7839058622658253,50,walking
1783066694596928800,5.160478,1.4255476205281912,-0.5251356347382068,-0.7482792042136192,0.3211477696895599,0.6268326640129089,0.0240065585821867,-1.6993844354085623,-9.496693239468335,-1.7593479057230057,50,walking
1783066694616854000,5.1804032,1.7245514637604356,-0.7345739194661378,-0.7014421958453952,0.4497939050197601,0.6103761196136475,0.0333223640918731,-1.682503589364886,-9.509168690159916,-1.7074236572183668,50,walking
1783066694636778000,5.2003272,1.9990053876258431,-1.1184884811341762,-0.8248837204664945,0.5659422278404236,0.5203676223754883,0.1181742325425148,-1.6765363515235483,-9.523887535864114,-1.6294724025316536,50,walking
1783066694656703000,5.2202522,1.7615579829879104,-1.528493761870265,-0.8782422395579517,0.6292421817779541,0.4920880496501922,0.1859016269445419,-1.6918267135053873,-9.537356089246272,-1.531970205809176,50,walking
1783066694676627000,5.2401762,1.1300399488486348,-1.6834733111798763,-0.6861907045692205,0.5654239654541016,0.5790162086486816,0.1287433207035064,-1.708389287380129,-9.549671965461968,-1.433725227895379,50,walking
1783066694696551700,5.2601009,0.9985470735885202,-1.91204124379158,-0.4164646860085427,0.3209874331951141,0.7078378796577454,0.0692317858338356,-1.7078291692793368,-9.559176875910165,-1.3696096063375471,50,walking
1783066694716476000,5.2800252,1.1922330779112875,-2.112784180888533,-0.5374740150466562,0.0599558614194393,0.7733096480369568,0.0748152509331703,-1.7005517256222664,-9.56193991088271,-1.3593318118207156,50,walking
1783066694736401000,5.2999502,1.1887404134899378,-1.935552467760444,-0.8009300134271383,-0.0695978552103042,0.876563549041748,0.0892203152179718,-1.6936176885753869,-9.558710427442191,-1.3903627637699243,50,walking
1783066694756326000,5.3198752,1.2673289431668815,-1.7793430843949316,-1.173373917531967,-0.0653225183486938,1.0114799737930298,0.1320954114198684,-1.6863142336942254,-9.553161561143398,-1.4366051672458648,50,walking
1783066694776249900,5.3397991,1.4293665942944584,-1.8119278416574,-1.6516770739465951,0.0257380288094282,1.0644729137420654,0.215688481926918,-1.689586387232691,-9.546314471727609,-1.4776941334813831,50,walking
1783066694796175000,5.3597242,1.1495857763178643,-1.7888637769341469,-1.9621926374047995,0.1974202245473861,1.1463372707366943,0.2685827314853668,-1.7032447640985249,-9.541396304547789,-1.49368796755746,50,walking
1783066694816098800,5.379648,0.517381513480097,-1.968015644469857,-2.093036693367362,0.3281843960285187,1.3206459283828735,0.3133314549922943,-1.722712411765009,-9.53926572225988,-1.484947757871449,50,walking
1783066694836023800,5.399573,-0.5354065611228347,-1.6639888585090636,-2.018732855272293,0.4460122883319855,1.5017049312591553,0.192914992570877,-1.7329495820105074,-9.541323239311575,-1.459593390253931,50,walking
1783066694855948800,5.419498,-1.4420415130808948,-0.8384808686643839,-1.7242353835485875,0.487920731306076,1.7284139394760132,-0.0870986655354499,-1.6976546890065074,-9.552951717785,-1.4245887123681604,50,walking
1783066694875872800,5.439422,-1.542155645867437,0.3664765201330184,-1.368664434441924,0.4741847217082977,1.9585249423980715,-0.3419131934642792,-1.6024787432745098,-9.573977554678915,-1.393346601886302,50,walking
1783066694895798000,5.4593472,-1.168297929441929,1.3382675426125523,-1.379315592315793,0.4775799512863159,2.1496989727020264,-0.4623102843761444,-1.4674189693130553,-9.599610008585453,-1.3654871195800602,50,walking
1783066694915718100,5.4792673,-0.8229445690974593,2.335198267045617,-1.233625264877081,0.5024680495262146,2.312584400177002,-0.4832141101360321,-1.3150776595525442,-9.626140872636435,-1.3335570268340409,50,walking
1783066694935643000,5.4991922,-0.3877995864078402,2.637404267320037,-1.3718218755595386,0.5845988392829895,2.4466567039489746,-0.3781744539737701,-1.1682817820247262,-9.651067808622122,-1.2893331235736607,50,walking
1783066694955568000,5.5191172,-0.063870706886053,2.7059628397613764,-1.6729805587381124,0.7457011938095093,2.4126226902008057,-0.227485179901123,-1.0486850231982767,-9.67428677164614,-1.216072218660265,50,walking
1783066694975492000,5.5390412,-0.075882850914821,2.31637432411015,-1.8581693683505056,0.8722684383392334,2.330833911895752,-0.1228442713618278,-0.960656684198603,-9.69680021674931,-1.1043561300810425,50,walking
1783066694995417000,5.5589662,-0.0707789519045501,1.7084972777992486,-1.641030007725954,0.8046311736106873,2.3968851566314697,-0.0261546056717634,-0.897526274285838,-9.715904730191829,-0.9828653011363,50,walking
1783066695015341000,5.5788902,0.3513957823138683,0.6159148068159819,-1.6044821920514103,0.4890380203723907,2.412972927093506,0.1588418930768966,-0.8639044290605932,-9.72734966879189,-0.8959619475785643,50,walking
1783066695035266000,5.5988152,0.2088276054836809,0.0610258388489484,-1.9400474410921331,0.1354574859142303,2.315325736999512,0.2524285614490509,-0.863791397140175,-9.728961780163646,-0.8783769718535244,50,walking
1783066695055190000,5.6187392,-0.4735872338086366,-0.4857224927604198,-2.485519761416316,-0.0684931054711341,2.2696094512939453,0.2666913568973541,-0.8747969944749027,-9.724799399787187,-0.9128996383760124,50,walking
1783066695075115000,5.6386642,-0.9910535029627382,-0.5502689069509505,-2.5553736343652007,-0.1346575021743774,2.3096158504486084,0.1766633242368698,-0.8770222693089396,-9.718611066541076,-0.9745775113929064,50,walking
1783066695095040000,5.6585892,-1.225181407789141,0.0887678322553634,-2.1827017667233943,-0.1818230003118515,2.302745819091797,-0.0682894736528396,-0.841762959074974,-9.714655606913563,-1.042736563122645,50,walking
1783066695114964000,5.6785132,-1.1817975355494768,0.5493354254931211,-1.418131499052793,-0.2812384068965912,2.4150218963623047,-0.2104066312313079,-0.7606484911169856,-9.71194634795487,-1.1269050118237731,50,walking
1783066695134889200,5.6984384,-0.6250899007879197,0.5643424404889344,-1.3777888211399316,-0.2509897649288177,2.469153881072998,-0.2050203531980514,-0.6617937107417732,-9.708546768644451,-1.215131576809287,50,walking
1783066695154813000,5.7183622,-0.3040730362553149,0.8146446505248546,-1.4066373144835234,-0.1928561180830001,2.3522815704345703,-0.1642500758171081,-0.5653212589258327,-9.705362877911329,-1.2871389745302495,50,walking
1783066695174738000,5.7382872,-0.511449602680467,0.8332464751422405,-1.121904280927032,-0.1431755572557449,2.2657246589660645,-0.1158816963434219,-0.4779541968464851,-9.702415718543527,-1.3435247324883937,50,walking
1783066695194663200,5.7582124,-0.8766779128506779,0.6874906812518835,-1.1031097102165222,-0.0899063050746917,2.1556668281555176,-0.1224271282553672,-0.3953915393741801,-9.700313193306329,-1.3849147274971008,50,walking
1783066695214587000,5.7781362,-1.3384526899211109,0.2958779662966728,-1.002628497683257,-0.0474353395402431,2.153843879699707,-0.1084308847784996,-0.312947722508572,-9.699253455120324,-1.4131211235448715,50,walking
1783066695234512100,5.7980613,-1.488334477700293,-0.0058820437759161,-1.118496079918742,0.0082991160452365,2.1155388355255127,-0.0940765663981437,-0.2323484375311061,-9.699313660874962,-1.4281861523382364,50,walking
1783066695254436000,5.8179852,-1.58983860354051,-0.1093839193046092,-0.9124946377716958,0.0080810794606804,2.027019023895264,-0.0730699673295021,-0.1567315988750197,-9.700108610644936,-1.4330748011626302,50,walking
1783066695274361000,5.8379102,-1.884114541468024,-0.1062099654436111,-0.7655855821929871,-0.0170854404568672,1.8604661226272583,-0.0799644887447357,-0.0872111956642009,-9.699990537223218,-1.439773275887966,50,walking
1783066695294286000,5.8578352,-2.101607683966309,-0.0140115742176771,-0.3907731953911483,-0.0404174737632274,1.7924845218658447,-0.0913892984390258,-0.0178593299787899,-9.69941302959621,-1.446177882233262,50,walking
1783066695314210000,5.8777592,-2.1452378591172394,0.1265963353902101,0.0592882014013826,-0.1566779464483261,1.7683197259902954,-0.0712570175528526,0.0498625256352825,-9.69681833692789,-1.462739140933752,50,walking
1783066695334135000,5.8976842,-1.9002737952388824,0.3559235619366169,0.4969624103076756,-0.3637397885322571,1.715166091918945,-0.0326903127133846,0.1121043937770649,-9.689119599118827,-1.5095596365585922,50,walking
1783066695354059000,5.9176082,-1.5646489249654114,0.6080284374803304,0.4348543291799724,-0.5498055815696716,1.607935905456543,0.0489174276590347,0.1629936549444682,-9.675020346617698,-1.5930493822805585,50,walking
1783066695373984000,5.9375332,-1.6395001678101715,0.6757347770065069,0.6232511410534382,-0.6476291418075562,1.6298285722732544,0.1482895016670227,0.1959460582092404,-9.655337741026282,-1.7048315948985515,50,walking
1783066695393908000,5.9574572,-1.4689707287997007,0.7927122201800346,0.3964221610635519,-0.5880209803581238,1.5210516452789309,0.1986123323440551,0.2196462836778722,-9.634050038325784,-1.818578239457309,50,walking
1783066695413833000,5.9773822,-1.2138042737282813,0.6229793383747338,0.3050771717965602,-0.5207838416099548,1.4062926769256592,0.3009245097637176,0.2266449469261802,-9.61455389521718,-1.9181705403268337,50,walking
1783066695433758000,5.9973072,-1.0070426608636975,0.6179495275139808,0.1842524055451154,-0.4162477254867553,1.2969787120819092,0.4144784212112427,0.2106712971216067,-9.597552491533756,-2.003246970718354,50,walking
1783066695453682000,6.0172312,-1.016206210528314,0.3394575803041458,-0.052850423438847,-0.2766032516956329,1.150234937667847,0.5323550701141357,0.1703047451428137,-9.585713585180043,-2.062875363859534,50,walking
1783066695473607200,6.0371564,-1.4082673999033868,0.1871674162089824,0.2449099956035614,-0.2281856089830398,1.2095400094985962,0.6181849241256714,0.1070187793421559,-9.577226327341794,-2.106102511167526,50,walking
1783066695493531000,6.0570802,-1.663301022375375,0.1033914008915424,0.2597043907620012,-0.1952129453420639,1.2169700860977173,0.6063999533653259,0.0416784656944219,-9.569166939526797,-2.144688993062824,50,walking
1783066695513456000,6.0770052,-1.597298710288107,-0.0648000966906547,0.3726818045139312,-0.2232214510440826,1.1502217054367063,0.5680409073829651,-0.0199844883145531,-9.560638765156268,-2.182698551853001,50,walking
1783066695533380900,6.0969301,-1.4820257329449056,-0.0196779294162988,0.3132553636856376,-0.2292235046625137,1.0551806688308716,0.5318921208381653,-0.0755522626870078,-9.549796468624471,-2.228466908076405,50,walking
1783066695553304800,6.116854,-1.4847726935654877,-0.020220365729928,0.1347854870647191,-0.2035649716854095,1.033931016921997,0.4783383011817932,-0.1254774143628776,-9.53877881552577,-2.2729570610575376,50,walking
1783066695573230000,6.1367792,-1.2622877341292795,0.0711848292917013,0.1899374654442071,-0.1130617931485176,1.0785824060440063,0.4473647475242615,-0.1640579231751151,-9.530376313361526,-2.305513907399773,50,walking
1783066695593154000,6.1567032,-0.6589729542326181,0.019985387930274,0.1797352203816175,-0.1030663773417472,1.0203512907028198,0.5041965842247009,-0.2047353860002942,-9.523918515524269,-2.3288303394488987,50,walking
1783066695613079000,6.1766282,-0.3536250757358968,0.0668406626075506,0.1302618721604347,-0.12399423122406,0.8639516830444336,0.5463514924049377,-0.261086090911366,-9.51630570243299,-2.354175793107599,50,walking
1783066695633003000,6.1965522,-0.5958907673757523,0.3099374713093042,0.0565630142211914,-0.0954234600067138,0.819290280342102,0.5137720108032227,-0.3221360047556459,-9.507712061610816,-2.3811828963682053,50,walking
1783066695652928000,6.2164772,-0.4792902312232181,0.2107049436628818,-0.1654148724757135,-0.0366581827402114,0.8343575596809387,0.518493115901947,-0.3800785271691158,-9.50065571335852,-2.4007205405309797,50,walking
1783066695672853000,6.2364022,-0.1934119000891223,-0.0831388864576816,-0.1779826776258647,-0.0421922206878662,0.8110625743865967,0.5934121608734131,-0.4452415023554116,-9.494714632871746,-2.412992431474477,50,walking
1783066695692777000,6.2563262,-0.2629679956678301,0.0336532632768154,-0.4524801483720541,-0.0466766320168972,0.6502922773361206,0.58381587266922,-0.5211330115007237,-9.486859243196248,-2.428642566679418,50,walking
1783066695712702000,6.2762512,-0.4671696218512952,0.0861497587114572,-0.8051832869574427,0.0655619874596595,0.5618154406547546,0.5426133275032043,-0.597651566503197,-9.480698967000842,-2.4350695309869943,50,walking
1783066695732626000,6.2961752,-0.8193192182071507,-0.1337695880204439,-0.6950324749335646,0.2110584378242492,0.6971150636672974,0.5199567079544067,-0.6691258071955293,-9.480894197311995,-2.4156338858939708,50,walking
1783066695752551200,6.3161004,-0.7933979374218731,0.008375614157319,-0.6224623287633061,0.2384776324033737,0.7098273634910583,0.4378334581851959,-0.72557352447398,-9.485375142118334,-2.3815128589749337,50,walking
1783066695772475000,6.3360242,-0.6375271383609622,-0.0492582441657781,-0.5174518022373318,0.2112428098917007,0.6164892315864563,0.3444502353668213,-0.7693656121883541,-9.49013841099739,-2.3485570764429866,50,walking
1783066695792400100,6.3559493,-0.679641355990991,0.1691577122658491,-0.2846849566310644,0.1394143551588058,0.6509478092193604,0.24639493227005,-0.7950373021267354,-9.493824990555645,-2.3249949990697205,50,walking
1783066695812325000,6.3758742,-0.4356724406298249,0.1450987912863492,-0.1653586122438311,0.0598168149590492,0.6944411396980286,0.2173379063606262,-0.8072176423292606,-9.494756718447803,-2.3169797426573933,50,walking
1783066695832248800,6.395798,-0.3523110705278813,0.4457230753272772,-0.070072922527045,0.0103781316429376,0.6694515943527222,0.1637509614229202,-0.8129168768841772,-9.492962236246466,-2.322332794123142,50,walking
1783066695852174000,6.4157232,-0.2316545735154301,0.7303969260424376,-0.0547027733072638,0.0046341312117874,0.5829804539680481,0.0794284045696258,-0.8066808320388198,-9.491230882409214,-2.331568678371608,50,walking
1783066695872098000,6.4356472,-0.014819748795405,0.7290110246419906,-0.0246522106975317,0.0097037442028522,0.561216413974762,0.0691063478589057,-0.7924751965537666,-9.490591999983788,-2.339023378291726,50,walking
1783066695892023000,6.4555722,0.2459380965422838,0.6760299605607986,-0.1399199273437261,-0.0226294100284576,0.537460446357727,0.0907254442572593,-0.7826881812285631,-9.489235324677823,-2.3478052351623773,50,walking
1783066695911948300,6.4754975,0.2295538749091327,0.8374497720509767,-0.0545493363112211,-0.0262043513357639,0.510450541973114,0.0631997287273407,-0.7727383765570819,-9.486652906969187,-2.3614997062548992,50,walking
1783066695931872300,6.4954215,0.4227995881184935,0.6830401315838098,-0.2896528081715107,0.0017428611172363,0.4451620578765869,0.0661531686782836,-0.7615791960958391,-9.485023259940744,-2.371651974695921,50,walking
1783066695951797200,6.5153464,0.3463625373870134,0.566323969694972,-0.2778792221389711,0.0311423428356647,0.4210811853408813,0.0872536301612854,-0.7556212375395,-9.484874791380763,-2.374148029295355,50,walking
1783066695971721200,6.5352704,0.2575183519598096,0.5200532169073819,-0.1096352637171745,0.0092125423252582,0.4143359363079071,0.0813184678554534,-0.7516216465093195,-9.48484264267683,-2.375546205655485,50,walking
1783066695991646000,6.5551952,0.1961324476268142,0.3337105610847473,-0.0502991315208375,-0.0793720781803131,0.4115748405456543,0.0827451348304748,-0.7488936828501522,-9.481804882416128,-2.3884942422948776,50,walking
1783066696011570200,6.5751194,0.166273535131663,0.2258288630366325,-0.1377104346007108,-0.1227051243185997,0.35797119140625,0.0569377392530441,-0.7440242501828819,-9.475826977050303,-2.413610417242348,50,walking
1783066696031495200,6.5950444,0.1092488947480916,0.1707481963276863,-0.1071029687605798,-0.1396568864583969,0.3985864520072937,0.0424847342073917,-0.7351828451447189,-9.468629759022592,-2.4443675206862387,50,walking
1783066696051420200,6.6149694,0.2953038196705281,-0.0336164383977651,-0.1546113005191087,-0.1433117836713791,0.4348856210708618,0.0707136541604995,-0.7243148296497762,-9.460888935637474,-2.477364219750464,50,walking
1783066696071344000,6.6348932,0.4642939202845096,-0.1272515844285488,-0.3152846775561571,-0.137530580163002,0.3768618702888489,0.067198634147644,-0.7185282821375876,-9.452996721082926,-2.508975455805659,50,walking
1783066696091269400,6.6548186,0.382390932297334,-0.1466594647318124,-0.2847843253523111,-0.1334219127893448,0.4320496916770935,0.0951037108898162,-0.7127907613988965,-9.444961298665405,-2.5406729088395834,50,walking
1783066696111193000,6.6747422,0.4851930620588361,-0.2579687991410493,-0.5566518859863281,-0.0663078129291534,0.4464368224143982,0.153312399983406,-0.7142883064802735,-9.437799736472964,-2.56673381729126,50,walking
1783066696131118000,6.6946672,0.5393095599107444,-0.2706500015377998,-0.5643886177182197,0.0090527236461639,0.464535117149353,0.1838807016611099,-0.7227652621202171,-9.43424642790556,-2.5774025108218197,50,walking
1783066696151042300,6.7145915,0.5893203029442579,-0.3880062148958444,-0.4320204209282994,-0.0034216553904116,0.5222800374031067,0.2107843160629272,-0.7341696495141834,-9.431663425675032,-2.5836264999032017,50,walking
1783066696170967000,6.7345162,0.92372841783911,-0.5929775833427906,-0.5622714794337749,-0.0007650086190551,0.5149132609367371,0.3064380884170532,-0.7544882879868149,-9.427654190033676,-2.592388190768659,50,walking
1783066696190892300,6.7544415,0.7889350397288799,-0.7897825964689255,-0.7729699933558702,0.0684306845068931,0.4828818440437317,0.3535326719284057,-0.7935738054454327,-9.423582410550116,-2.5955221048802137,50,walking
1783066696210816300,6.7743655,0.3902205299444496,-0.7592781526118516,-0.6093348439037799,0.1849869191646576,0.5064759850502014,0.2725185453891754,-0.8282098692145198,-9.425057743799686,-2.579292854613066,50,walking
1783066696230741200,6.7942904,0.5500793026629835,-0.8080120806425809,-0.3390902082964778,0.2451573461294174,0.5574076175689697,0.2451001405715942,-0.8483069008257239,-9.43213747292757,-2.546670687949657,50,walking
1783066696250665200,6.8142144,0.7376408327560872,-0.9256704918175936,-0.3510810903415083,0.2509073615074157,0.602679431438446,0.2469532936811447,-0.8664786634627729,-9.44047392411828,-2.509391050869226,50,walking
1783066696270590000,6.8341392,0.5551517105564475,-0.6349760656386614,-0.0283522342592477,0.2018980085849762,0.6680605411529541,0.1340352594852447,-0.8716351694431156,-9.448503501316903,-2.477179803094268,50,walking
1783066696290514200,6.8540634,0.6731508249279111,-0.5764116484671831,0.0429220268815755,0.1206042617559433,0.6906624436378479,0.0608228296041488,-0.8555590639110654,-9.454843810254337,-2.4585221566364166,50,walking
1783066696310439200,6.8739884,0.9583695961747318,-0.3234171306073665,0.0493248796612024,0.0494028590619564,0.730017900466919,0.0877557247877121,-0.8338710367813706,-9.457644839149712,-2.455198272910714,50,walking
1783066696330364200,6.8939134,0.964401058358699,0.1044791961282491,-0.1946992730185389,0.0356538519263267,0.6726862192153931,0.0974551662802696,-0.8182049733549356,-9.45787630981803,-2.459572542472184,50,walking
1783066696350288100,6.9138373,0.5004770673651248,0.4258522536873817,-0.1269111004278063,0.0310860648751258,0.725782036781311,0.0419451333582401,-0.7990040868658572,-9.458426344916225,-2.463764733465016,50,walking
1783066696370213000,6.9337622,0.5129473304249346,0.6730301942229271,-0.1003229532316327,0.0242463070899248,0.7544757127761841,-0.0147938719019293,-0.7623931428272277,-9.459899340078234,-2.4697025990813968,50,walking
1783066696390137000,6.9536862,0.9540019024845212,0.5932388646274804,-0.24943507181257,0.0279961228370666,0.7374284863471985,0.0391997285187244,-0.7264030341006815,-9.460912316513062,-2.4766625012218952,50,walking
1783066696410062000,6.9736112,1.1055001855496316,0.6247872645795345,-0.4532216143891215,0.0729067921638488,0.6804237961769104,0.1142743900418281,-0.7067158253993838,-9.462084282901882,-2.4778794757962226,50,walking
1783066696429987000,6.9935362,0.7343894297447056,0.7095598897188902,-0.3455000753387808,0.096403382718563,0.7141614556312561,0.1260604858398437,-0.6957828549094498,-9.464855501180889,-2.470379767690599,50,walking
1783066696449911000,7.0134602,0.5370216681692749,0.6723124013423919,-0.2722016148939729,0.0797612592577934,0.732791006565094,0.1031574085354805,-0.681721157939732,-9.467561253008244,-2.4639216775923964,50,walking
1783066696469836300,7.0333855,0.5391329612348228,0.508988217535615,-0.3177057672232389,0.0513584278523922,0.6926177144050598,0.0557680316269397,-0.6615365941755473,-9.46973684348166,-2.4610648268565534,50,walking
1783066696489760300,7.0533095,0.6273482741739601,0.4315004887074232,-0.2570715580403804,0.0129455439746379,0.7429222464561462,0.063221238553524,-0.6376732688333839,-9.470509581419824,-2.4643875415384766,50,walking
1783066696509685000,7.0732342,0.524903835276328,0.4030377798110246,-0.3531348080009222,0.0078151719644665,0.7754805684089661,0.0696372911334037,-0.6124418334757908,-9.470029688948392,-2.472621701398492,50,walking
1783066696529609200,7.0931584,0.4661871136199683,0.1493997033506632,-0.5919798044770955,-0.0049078222364187,0.7456502914428711,0.0576144307851791,-0.5867949857177213,-9.469427631402016,-2.481127371676266,50,walking
1783066696549534200,7.1130834,0.4584258319687098,0.0379980144828557,-0.4835416415899992,-0.0774333253502845,0.7791178822517395,0.0924128293991088,-0.562424003114365,-9.466514374303816,-2.4978376834586262,50,walking
1783066696569459200,7.1330084,0.7199164485603571,-0.1422200209796428,-0.7280152916029096,-0.0956325307488441,0.6879051327705383,0.1787564158439636,-0.5503770069679245,-9.460622978177666,-2.522711427952349,50,walking
1783066696589383200,7.1529324,0.4507079876003786,-0.1348369249910116,-0.6474371955439447,-0.093813456594944,0.6956513524055481,0.2307217717170715,-0.5560528241146355,-9.4534912266016,-2.5480735404849053,50,walking
1783066696609308200,7.1728574,0.1839415860302746,-0.0186158531427383,-0.7171472761079668,-0.0918697640299797,0.7297216057777405,0.190125435590744,-0.5602802690839395,-9.446263028913735,-2.573832835641503,50,walking
1783066696629232000,7.1927812,0.3335413054650649,0.0099953243136405,-0.7480868965119123,-0.0749443098902702,0.7775251269340515,0.1907283216714859,-0.5554538718407973,-9.43985783804655,-2.5982585441067814,50,walking
1783066696649157000,7.2127062,0.742238755005598,0.0549304445832967,-0.92741178252697,-0.0199127178639173,0.730690598487854,0.2460849285125732,-0.5571370026221498,-9.434814583182334,-2.61615631210804,50,walking
1783066696669081000,7.2326302,0.7946717567499727,0.1995510969638824,-0.8846300408989191,0.0525371134281158,0.7365779280662537,0.310644656419754,-0.5720109658228233,-9.43263957723081,-2.620780757038295,50,walking
1783066696689006000,7.2525552,0.7014629463724792,0.3218488583773374,-0.7630436426252126,0.1082454845309257,0.8130788207054138,0.3624828159809112,-0.5953699583720415,-9.432833638498186,-2.6148753323867915,50,walking
1783066696708931300,7.2724805,0.46870384568125,0.3539028697639703,-0.8492726040527224,0.1202495917677879,0.8216930031776428,0.3321401178836822,-0.6198378985438495,-9.434662022969126,-2.602567639477551,50,walking
1783066696728855000,7.2924042,0.3142577456612139,0.4103209225565195,-0.5274783984720707,0.1073102056980133,0.950660228729248,0.2527516186237335,-0.6289456263680011,-9.43720936936438,-2.5911189014852045,50,walking
1783066696748780300,7.3123295,0.6134972973454743,0.4128682689517736,-0.6376151819705963,0.0861528143286705,0.9799557328224182,0.2412770539522171,-0.6224755535710602,-9.439158165344596,-2.5855790952757,50,walking
1783066696768704300,7.3322535,0.8425586394973099,0.3090671182155609,-0.8146595558330416,0.0864118188619613,0.9534046053886414,0.3078221678733825,-0.6249856366958468,-9.440103921762107,-2.581515791359544,50,walking
1783066696788629000,7.3521782,0.444012691212818,0.4487321940153836,-0.7215060558393597,0.1110865250229835,1.0175306797027588,0.2785814106464386,-0.6310596228472888,-9.441353045040367,-2.5754589755386115,50,walking
1783066696808553200,7.3721024,0.4982671362306922,0.4812403789103031,-0.6997080655291676,0.1231769099831581,1.032481670379639,0.2250220775604248,-0.624710838342458,-9.444232984390856,-2.5664313272133468,50,walking
1783066696828478200,7.3920274,0.7846859309170394,0.3247749749571085,-0.6491095126703381,0.1161414831876754,0.9904073476791382,0.2505876421928406,-0.6170918877713382,-9.44773193242252,-2.555380064105988,50,walking
1783066696848403200,7.4119524,0.8481626700494438,0.2359843463480472,-0.5532046681419015,0.0538136065006256,1.0168029069900513,0.311713844537735,-0.6189179341547191,-9.448424590861796,-2.552374452549219,50,walking
1783066696868327200,7.4318764,0.7027041786052286,0.1346557232052087,-0.6392471670866012,-0.0049956981092691,1.014114499092102,0.3592747151851654,-0.6314766792155802,-9.445406704345343,-2.560453714108467,50,walking
1783066696888252200,7.4518014,0.3040301469616592,0.1130576393812894,-0.6245081553772092,-0.0423432663083076,0.9802942872047424,0.3272902071475982,-0.6465505489025265,-9.43951998439431,-2.578334823235869,50,walking
1783066696908176100,7.4717253,-0.0035611996129155,0.0677197835296392,-0.6988762908801436,-0.0501861944794654,0.9618028402328492,0.2429637908935547,-0.6497564322717487,-9.43338659620583,-2.5998843917429446,50,walking
1783066696928101400,7.4916506,-0.0570692832428961,-0.1243488487243652,-0.7340341135010123,-0.0480830445885658,1.0160151720046997,0.2048313021659851,-0.6399427481353283,-9.428217669135332,-2.6209906003966927,50,walking
1783066696948025300,7.5115745,0.1173220918927341,0.0632224721103906,-0.4940358553364872,-0.047567069530487,1.0618776082992554,0.1999146491289138,-0.6218999456401914,-9.423203055843713,-2.643265560568869,50,walking
1783066696967950300,7.5314995,0.3872982127569616,0.0761363142192363,-0.5078776259452105,-0.0436911024153232,1.0137637853622437,0.2271510660648346,-0.6071159257452935,-9.418161554545163,-2.664588919104636,50,walking
1783066696987875300,7.5514245,0.2606816017637029,0.1980646577984094,-0.391226053725183,-0.0343589521944522,0.9765745401382446,0.2181232720613479,-0.596618131802231,-9.413497654387356,-2.683378082987666,50,walking
1783066697007799300,7.5713485,0.0777172998003661,0.0879775586605072,-0.2419774492830038,-0.0312569588422775,0.9772053360939026,0.2081494331359863,-0.5839413498522713,-9.409352809667586,-2.700646320913732,50,walking
1783066697027724300,7.5912735,0.0203093226550146,0.0066021747440099,-0.1784340746551752,-0.0780799984931945,0.9654107093811036,0.1948587447404861,-0.5693296177843585,-9.40444165675044,-2.7207944981902834,50,walking
1783066697047648300,7.6111975,0.0861662349222227,-0.0715893184393644,-0.0502034160614013,-0.1716752052307129,0.9851168394088744,0.2399252653121948,-0.556477187006548,-9.395233683422209,-2.7550527416229245,50,walking
1783066697067573200,7.6311224,-0.0336069764496758,-0.1057785882890224,-0.1812324732020497,-0.2492993026971817,0.993139922618866,0.2897222936153412,-0.5513263801146299,-9.38049671753943,-2.8058327885285017,50,walking
1783066697087497200,7.6510464,-0.3208722318975254,0.160077164709568,-0.3339376478388905,-0.240523561835289,0.9389783143997192,0.1906480640172958,-0.5423870676599443,-9.363387761828305,-2.864116927453876,50,walking
1783066697107422500,7.6709717,-0.4389154046064242,0.0903928031086921,-0.2909314498052001,-0.1832228451967239,0.9329389929771424,0.1281677186489105,-0.517567975962907,-9.34966786403358,-2.913108629637956,50,walking
1783066697127347200,7.6908964,-0.3106142380597069,0.1397463243424892,-0.0930745895385742,-0.2114153504371643,0.952884078025818,0.1161008477210998,-0.4845599883196875,-9.337371277040242,-2.957886221258342,50,walking
1783066697147271200,7.7108204,-0.3121863462146371,0.2929857519865035,-0.0147010177865624,-0.272236704826355,0.9574968814849854,0.1165343523025512,-0.4493194558514282,-9.32167101908326,-3.012467998534441,50,walking
1783066697167196200,7.7307454,-0.4710569481460377,0.4174170182973146,-0.1196805646523833,-0.2429531961679458,0.9891981482505798,0.0917300209403038,-0.4101587542647495,-9.304542774149777,-3.070443217641115,50,walking
1783066697187120000,7.7506692,-0.5070717894550413,0.5323731847763061,-0.2046221166178584,-0.1539627164602279,0.9467556476593018,0.056629754602909,-0.3641184492321684,-9.291409736332296,-3.115686088685691,50,walking
1783066697207045400,7.7705946,-0.4204266484420746,0.4841460372239351,-0.2121729703888297,-0.0213856752961874,0.8977333903312683,0.0671598762273788,-0.3163888759383931,-9.285978943455218,-3.1370158769622445,50,walking
1783066697226969300,7.7905185,-0.3503809427155182,0.3569984976917505,-0.0725093558937311,0.0265624020248651,0.844400942325592,0.1305920928716659,-0.2797429519179277,-9.285874314036963,-3.140808254982531,50,walking
1783066697246894300,7.8104435,-0.6458247919112443,0.1798930412918329,0.1005664065986871,0.0195955894887447,0.7939328551292419,0.1456672251224517,-0.2557418620728887,-9.286837606111169,-3.1400054141670464,50,walking
1783066697266819300,7.8303685,-1.0516536637455225,0.0169786073297262,0.2366740821778774,-0.0680904909968376,0.7788187861442566,0.1129228398203849,-0.2305909628719091,-9.28493264927268,-3.147574680377543,50,walking
1783066697286743000,7.8502922,-1.2519139318920671,-0.098977676102519,0.3091793464183807,-0.1732176095247268,0.7984775304794312,0.0879271104931831,-0.1991220030979253,-9.276716025069357,-3.173841632795334,50,walking
1783066697306668300,7.8702175,-1.1980635376304387,-0.0427414096176624,0.1352709324941039,-0.228327065706253,0.7412973046302795,0.0682676285505294,-0.1643868446022272,-9.2630715305984,-3.2154110760241745,50,walking
1783066697326592300,7.8901415,-1.1974652794763443,0.0881032308667898,0.165608787612617,-0.2022101730108261,0.6963532567024231,0.0688694715499877,-0.1302692152166739,-9.248767110913992,-3.257869577047229,50,walking
1783066697346517200,7.9100664,-1.2196528536260127,0.2017974145859479,0.1737982315480709,-0.1273209154605865,0.6700502634048462,0.0803802534937858,-0.0994026052500121,-9.237664117619394,-3.290300605052709,50,walking
1783066697366441200,7.9299904,-1.2012535658434034,0.1298076986521482,0.1898226068928837,-0.0465543903410434,0.6240502595901489,0.1070517227053642,-0.0741075620377203,-9.231963275629282,-3.3069235308125613,50,walking
1783066697386366500,7.9499157,-1.2446065314881505,-0.0044528877556324,0.3401651440516114,-0.0060605430044233,0.5745166540145874,0.1223960816860199,-0.0560436482558958,-9.230283359718324,-3.311968539242446,50,walking
1783066697406291200,7.9698404,-1.205465703645721,-0.1250274786382913,0.5407365239739418,-0.0493720769882202,0.5231728553771973,0.1246418729424476,-0.0422126045371638,-9.228669494780895,-3.3166640035822987,50,walking
1783066697426215200,7.9897644,-0.9733509652726352,-0.132335171303153,0.7552347224399447,-0.1409827321767807,0.4569592177867889,0.150997057557106,-0.0343087520604603,-9.222259627738596,-3.3345380984470245,50,walking
1783066697446140400,8.0096896,-0.7896715373098849,-0.0549824670314788,0.797224729168415,-0.2090107351541519,0.4223455190658569,0.2147302031517028,-0.0388719843057915,-9.21012904496193,-3.367848831896484,50,walking
1783066697466064100,8.0296133,-0.7429732067599892,0.0827957721084356,0.6714665981680155,-0.2022763937711715,0.4039573073387146,0.2758477628231048,-0.0560916566826635,-9.195576203474404,-3.4071409778431057,50,walking
1783066697485989400,8.0495386,-0.7954718210864812,0.0621954671502113,0.6066282152935862,-0.1448252499103546,0.4043553471565246,0.3060671091079712,-0.0823022803699132,-9.183355019804834,-3.439417399808764,50,walking
1783066697505913300,8.0694625,-0.7058469336103648,0.019858546680212,0.7598170817941426,-0.140720784664154,0.3958901464939117,0.2758432030677795,-0.1102764020317699,-9.173339821746945,-3.46526466550976,50,walking
1783066697525838300,8.0893875,-0.4614540206834673,0.0208931504249572,0.8930249442785978,-0.1775382459163665,0.4124438166618347,0.2356565445661544,-0.1291655374242458,-9.16120690088272,-3.49656961209476,50,walking
1783066697545763300,8.1093125,-0.0075007492852397,-0.1598585535228252,0.9513742573946714,-0.1261322349309921,0.447282612323761,0.2964146435260772,-0.14542879955885,-9.149545104661584,-3.526338142892718,50,walking
1783066697565687300,8.1292365,0.2695865918236784,-0.2179547686606645,0.8619768950641155,-0.0810761004686355,0.4251674711704254,0.3276844620704651,-0.174267529560253,-9.141429018223285,-3.5460265937030315,50,walking
1783066697585612300,8.1491615,0.1940993343640118,-0.0506108278185129,0.8488149234130978,-0.0071001751348376,0.3795839250087738,0.2765092849731445,-0.2006833341305144,-9.136987820905446,-3.5560581583738324,50,walking
1783066697605536300,8.1690855,0.3389379403442144,-0.2129606136351823,0.9352712638556956,0.0576075837016105,0.4027184247970581,0.269521564245224,-0.2225198663528077,-9.13789324531257,-3.5524326613530515,50,walking
1783066697625461200,8.1890104,0.6452905389040708,0.0287701674103736,0.9699015554711222,0.0847367420792579,0.355304092168808,0.2643921077251434,-0.2430646782641299,-9.1417002363801,-3.5412741384789346,50,walking
1783066697645385200,8.2089344,1.0363934046410024,0.0030862755775451,1.1293830923750996,0.0655846893787384,0.2952948212623596,0.3649004697799682,-0.2765335248847492,-9.145793643173574,-3.5282232259869573,50,walking
1783066697665310500,8.2288597,0.9614970074802636,0.177647308191657,1.2707333447828888,-0.0147509798407554,0.2674291729927063,0.4068618416786194,-0.3280810307651758,-9.14572759220004,-3.5239760899364945,50,walking
1783066697685235200,8.2487844,0.6927973362926393,0.1173299098730087,1.328700965104997,-0.1417216509580612,0.3637979328632355,0.4281346797943115,-0.3833468082500621,-9.13748466451168,-3.539746198259294,50,walking
1783066697705159200,8.2687084,0.5257185857253149,0.201983877068758,1.2252628024622798,-0.1855966299772262,0.5009409189224243,0.3770713210105896,-0.4272568963209167,-9.121731215062736,-3.575171731905639,50,walking
1783066697725084400,8.2886336,0.6487485704034567,0.344140185162425,0.7976677967607975,-0.1286419779062271,0.4197648465633392,0.2189745306968689,-0.4464386031854897,-9.107516811749338,-3.608909458595514,50,walking
1783066697745008000,8.3085572,0.896072056889534,-0.0848369225472211,0.5743795581176877,-0.0474866107106208,0.3312623500823974,0.225190058350563,-0.4595792763201519,-9.099022539648413,-3.6286329807192086,50,walking
1783066697764933400,8.3284826,0.8749626333653926,-0.0975450129508972,0.6046884794026612,-0.0255555938929319,0.3265759944915771,0.268028050661087,-0.4814156989445909,-9.094095020118354,-3.63814198282063,50,walking
1783066697784857300,8.3484065,0.7425408066920935,-0.1173848549306392,0.6122384563907981,0.0147499218583107,0.2920934855937958,0.2384158819913864,-0.5056644068751484,-9.091312695923447,-3.641800797589123,50,walking
1783066697804782000,8.3683312,0.5937855387248099,-0.213352827823162,0.6862035640507936,0.0311013292521238,0.2552498579025268,0.2000821828842163,-0.5252515527354553,-9.090963736355304,-3.639900224664807,50,walking
1783066697824707300,8.3882565,0.32046624491252,-0.5113263050943613,0.646450230333209,0.0196973420679569,0.2809447646141052,0.1679729372262954,-0.5399845000302419,-9.09061945296228,-3.6386034628525374,50,walking
1783066697844631300,8.4081805,0.3033132673965766,-0.6260094998508692,0.4096405390769243,0.0732304528355598,0.2762746810913086,0.1460098624229431,-0.5470729239212349,-9.092204676327109,-3.633582712081074,50,walking
1783066697864556300,8.4281055,0.3554807500725612,-0.9757610951542852,0.4407578541353344,0.1385847479104995,0.3596046566963196,0.2246615141630172,-0.5583894138360396,-9.097841805431246,-3.6177135272979735,50,walking
