time,seconds_elapsed,acc_x,acc_y,acc_z,gyr_x,gyr_y,gyr_z,grav_x,grav_y,grav_z,fs_hz,activity
1783066610442778400,0.0,-0.5893948294851928,0.3445867598861455,0.4439157336443662,0.1879810243844986,0.0158707126975059,0.0041307779029011,-0.5007151504373177,-9.40020562661588,-2.7487840366169807,50,walking
1783066610462703400,0.019925,-0.3949344432564452,0.5246978278428316,0.4162012127667665,0.2334392964839935,-0.0747366175055503,-0.0228082295507192,-0.5003473400382324,-9.411824752739072,-2.7087983554482458,50,walking
1783066610482628400,0.03985,-0.5467601316450164,0.5166460388123989,0.6437979622587561,0.2251706272363662,-0.0066154850646853,-0.0295475646853446,-0.49860809515547,-9.424721643713116,-2.663905320754647,50,walking
1783066610502552600,0.0597742,-0.4954556955391541,0.6195721602797508,0.5831695982947945,0.1744258105754852,0.0306058507412672,-0.0318819992244243,-0.4903568014975636,-9.435321363660693,-2.627668178464472,50,walking
1783066610522477300,0.0796989,-0.0595934314256534,0.1890963384449482,0.2116419322520494,0.2160987854003906,-0.1266932934522628,0.0852080062031745,-0.4958613537305966,-9.44507995660901,-2.591329037104547,50,walking
1783066610542401500,0.0996231,-0.1685227022979408,-0.2347778931677341,0.0978787749499082,0.2083540260791778,-0.2051855772733688,0.1547944545745849,-0.5298359579162671,-9.455005138295888,-2.548045191173255,50,walking
1783066610562326500,0.1195481,-0.6707157798007131,-0.1111029981821775,0.2914557659402489,0.1480666249990463,-0.1282018423080444,0.1040805578231811,-0.5633455018734559,-9.462411030638217,-2.5131249767005444,50,walking
1783066610582251500,0.1394731,-0.4322207658059895,-0.2453472179770469,0.1206821429103612,0.1185169145464897,-0.1308265775442123,0.0864185988903045,-0.5866616781942546,-9.468078554880618,-2.486303020748496,50,walking
1783066610602175500,0.1593971,-0.2405010931201279,-0.3455038747310638,0.1236623277649283,0.0764234364032745,-0.1128039136528968,0.0985369309782981,-0.6106375240001827,-9.471769810613988,-2.466388359966874,50,walking
1783066610622100500,0.1793221,-0.071828680153191,-0.267594705620408,0.1577963602960109,0.0486377626657485,-0.0589384771883487,0.1130161806941032,-0.6343111719891429,-9.473514023932816,-2.4536864070430395,50,walking
1783066610642024400,0.199246,0.0550339780230075,-0.484713023456931,0.1247913317948579,0.0360274650156497,-0.0150351962074637,0.1489919126033783,-0.661215910853818,-9.47366950675547,-2.445969402924925,50,walking
1783066610661949400,0.219171,-0.0211961519595235,-0.4302069417655467,-0.0526633764341473,0.0882488936185836,-0.045046366751194,0.1248817443847656,-0.6891334800228476,-9.47460415725708,-2.434612288738787,50,walking
1783066610681874400,0.239096,0.0188019502993673,-0.3486082704871893,0.0563749443031847,0.1559151858091354,-0.0377576202154159,0.0936077088117599,-0.7117736202456056,-9.479140047121048,-2.410324089048057,50,walking
1783066610701798400,0.25902,0.2168093249525874,-0.1864426090657711,0.2921455017700791,0.1428562253713607,0.0287503004074096,0.0967574492096901,-0.7297671037063003,-9.48508580378294,-2.3813857254639266,50,walking
1783066610721723600,0.2789452,0.3848586375851184,-0.023019641059637,0.3643316170588135,0.1197036281228065,0.037807896733284,0.0936038792133331,-0.746083959191665,-9.48974327419996,-2.3576545751340685,50,walking
1783066610741647400,0.298869,0.5344770251877605,-0.0959364087104797,0.1891455844141542,0.1447211652994156,-0.0474339574575424,0.1116250157356262,-0.7653677747238427,-9.494187394127248,-2.333451861769706,50,walking
1783066610761572400,0.318794,0.52222968416363,-0.1937690064311027,0.1028486723169684,0.1507249772548675,-0.0639273151755333,0.1275136172771453,-0.7914278794579207,-9.499456858962771,-2.303120582522452,50,walking
1783066610781496600,0.3387182,0.5737503203034401,-0.055220951962471,0.1044371105521917,0.0963225439190864,-0.0570351853966712,0.1415843516588211,-0.8191560635346918,-9.503180263400075,-2.277923159032315,50,walking
1783066610801421300,0.3586429,0.8015772252894937,-0.1036187799066305,0.0703035164125263,-0.0627143830060958,-0.0408461578190326,0.1762465089559555,-0.8515561118800192,-9.501768058514594,-2.271920996008068,50,walking
1783066610821347000,0.3785686,0.7690038662038743,-0.0281394682914018,0.0263194132573902,-0.2923042774200439,-0.025505356490612,0.1687087416648864,-0.8860203992787749,-9.49060719755292,-2.305150627045333,50,walking
1783066610841271000,0.3984926,0.6986713428925723,0.1113181022375822,-0.1395426184639334,-0.4179277122020721,-0.027854660525918,0.1478946208953857,-0.9172918089203536,-9.470700135555862,-2.373770428154617,50,walking
1783066610861195800,0.4184174,0.7252941230107098,0.0772200178027153,-0.348688934507966,-0.3420450091361999,-0.0109734795987606,0.0889641866087913,-0.9410715476322918,-9.449322416484357,-2.448486500312388,50,walking
1783066610881120000,0.4383416,0.8048081700347364,0.0195329679876565,-0.5765192004948854,-0.1796247065067291,0.0050301188603043,0.0214614961296319,-0.9511536003813148,-9.43547743100524,-2.4974858012810346,50,walking
1783066610901044700,0.4582663,0.9749949330873788,-0.0164881934642791,-0.5351686607137323,-0.0521013401448726,0.0472407564520835,0.0026557371020317,-0.951651393835619,-9.429684234556555,-2.5190841773658987,50,walking
1783066610920970000,0.4781916,1.0850400197144596,-0.0567833789736032,-0.5354448473066091,0.0098704770207405,0.0614440515637397,-0.002587457653135,-0.9487201626893133,-9.428893960961698,-2.523147773543,50,walking
1783066610940894000,0.4981156,1.1670979060024025,-0.0636567718744278,-0.4091778900012374,0.0536170341074466,0.0624729022383689,0.0354823358356952,-0.9480286002285778,-9.43025180531144,-2.518332482215762,50,walking
1783066610960818700,0.5180403,1.1329163810677825,-0.0780710816740989,-0.3228206260189414,0.0791535675525665,0.0369448363780975,0.0748170241713523,-0.9563438625007868,-9.432595153567194,-2.506377548266947,50,walking
1783066610980743000,0.5379646,0.9801982008188962,0.0868295576691627,-0.1538283334478735,0.0519019663333892,0.0580288134515285,0.094354510307312,-0.9704716104440392,-9.43439022029042,-2.494158994945884,50,walking
1783066611000668000,0.5578896,0.972752049531415,0.2000941177994012,-0.0063011459708213,-0.0081452336162328,0.1164817586541175,0.1249056160449981,-0.986817984284833,-9.433332820191978,-2.4917490111947056,50,walking
1783066611020593000,0.5778146,0.9837870190910994,0.1059235497176647,-0.1017617538630962,-0.0313363447785377,0.1142151355743408,0.1544929146766662,-1.007579398088902,-9.42939372717738,-2.4983412490665917,50,walking
1783066611040516900,0.5977385,0.6698370242048055,0.2369225039809942,0.0939516646340489,-0.04391860216856,0.2220593094825744,0.1398275047540664,-1.028069666801393,-9.424522906270624,-2.508354693558812,50,walking
1783066611060441900,0.6176635,0.6733645407438278,0.497428712645173,0.2834633058816194,-0.0510872825980186,0.3298261165618896,0.1260859370231628,-1.037881816567853,-9.419271561613678,-2.52398714697659,50,walking
1783066611080365800,0.6375874,0.960588441267982,0.5438724839121103,0.1924938719287514,0.0183700416237115,0.2789968252182007,0.1797143071889877,-1.049772380043566,-9.415137238287926,-2.534472008372843,50,walking
1783066611100290800,0.6575124,0.9174008222527802,0.5237754523009062,0.3579445463702082,0.066065102815628,0.285550981760025,0.2182690799236297,-1.0746698707390576,-9.413146356731652,-2.531430156458914,50,walking
1783066611120215800,0.6774374,0.5885075983218848,0.6405734472543001,0.6814002554222941,0.0429608263075351,0.4383300840854645,0.1698316186666488,-1.0939835699528455,-9.41158276067674,-2.528976041305065,50,walking
1783066611140139800,0.6973614,0.6757969555225223,0.5691536401629448,0.5327709519222379,0.0594116449356079,0.4676233828067779,0.1112745776772499,-1.096128984483704,-9.410939786598084,-2.530432669854164,50,walking
1783066611160065000,0.7172866,0.948845542634651,0.2945101850748062,0.4812076456844806,0.1046631783246994,0.4279541969299316,0.0952082574367523,-1.0921983670365063,-9.412827207779884,-2.5251073831781743,50,walking
1783066611179988700,0.7372103,1.071412257182598,0.1784405043959617,0.4812643443077802,0.1705653667449951,0.3904867768287658,0.1204996705055236,-1.091912608897686,-9.41736543573141,-2.50825561709851,50,walking
1783066611199914000,0.7571356,1.080045280167088,0.0987877064883708,0.5711231866702438,0.2508184015750885,0.3800618350505829,0.1442305594682693,-1.0980017926182597,-9.424950776293873,-2.476907415893674,50,walking
1783066611219838000,0.7770596,1.04673914982751,-0.0163683664768934,0.6046027008153498,0.3246954977512359,0.3026145398616791,0.1301027834415435,-1.1070430310774595,-9.436088840901853,-2.430031682950258,50,walking
1783066611239762700,0.7969843,0.9347422715455294,-0.2765332143574953,0.7030044767260551,0.3535516262054443,0.2490277290344238,0.095865823328495,-1.1158037720948455,-9.44991103002727,-2.371612957859784,50,walking
1783066611259688000,0.8169096,0.9396974828001112,-0.5513771604537964,0.6966194518640637,0.3285766839981079,0.2435303777456283,0.0721651837229728,-1.1198613769225776,-9.464168103438617,-2.3121074604459104,50,walking
1783066611279612000,0.8368336,1.0013939874522388,-0.8452607380628585,0.6404432450033724,0.2534109354019165,0.1951065212488174,0.0712961331009864,-1.1231989238474518,-9.476142034348843,-2.260869002248347,50,walking
1783066611299537000,0.8567586,0.8119274274554104,-1.062932013607025,0.6853554227888584,0.1161741986870765,0.1916063278913498,0.0527798049151897,-1.127513133784756,-9.482927748966215,-2.2300642602704466,50,walking
1783066611319460900,0.8766825,0.805511934389919,-1.030380574092269,0.4694254379540681,0.0538343898952007,0.1196371242403984,0.0080844387412071,-1.126035681643337,-9.48570130533278,-2.21898844724372,50,walking
1783066611339386000,0.8966076,0.9174463418949396,-1.2309721200197934,0.20485212598145,0.0300789047032594,0.1334587335586547,0.0327465049922466,-1.123946235083416,-9.48741979968846,-2.2126899316214024,50,walking
1783066611359310800,0.9165324,0.8829852693665772,-1.3201532092511654,0.0031523265510797,-0.0541887246072292,0.2565351128578186,0.0716995149850845,-1.1256975357301533,-9.485776708656548,-2.218836617682874,50,walking
1783066611379234800,0.9364564,0.6547962530698627,-1.303924543505907,-0.1772387273907661,-0.0168770868331193,0.3651362061500549,0.086720310151577,-1.127351878808439,-9.48180429789424,-2.234919299086183,50,walking
1783066611399159800,0.9563814,0.4415093300897628,-1.2398778955310583,-0.4869673782549798,0.0883435308933258,0.4568632245063782,0.0896384790539741,-1.1253531062066555,-9.4815061917305,-2.237185052061081,50,walking
1783066611419083800,0.9763054,0.555071484927088,-1.308074064400792,-0.6659602558366954,0.2143310755491256,0.5261634588241577,0.1378866732120514,-1.1241432189602405,-9.485734623080493,-2.2198009326703847,50,walking
1783066611439009000,0.9962306,0.4509363529961556,-1.4198556924968957,-0.8330699495315551,0.3580026626586914,0.5581052899360657,0.1595147848129272,-1.1298421612542122,-9.494860763344168,-2.1774888543806967,50,walking
1783066611458933000,1.0161546,0.1661102343287319,-1.140126896968484,-0.6703516226634383,0.4362096786499023,0.6404224634170532,0.0965204089879989,-1.1297763294763865,-9.508981643155217,-2.115002441459894,50,walking
1783066611478858000,1.0360796,-0.0537037523325532,-0.7185422375977039,-0.7033750636041164,0.4984502792358398,0.6684784889221191,-0.0361724980175495,-1.107932892589271,-9.527743042248488,-2.0408288056157526,50,walking
1783066611498783000,1.0560046,0.0141108698736876,-0.3631353930115699,-0.6528665271162987,0.5206759572029114,0.6423696875572205,-0.0766309425234794,-1.0687567011725156,-9.549757305657865,-1.9571124115310607,50,walking
1783066611518706700,1.0759283,0.1887239249359816,-0.6160603527665138,-0.7446035844407976,0.4448567032814026,0.5996752977371216,0.0150540452450513,-1.038815078829974,-9.569172200223804,-1.876747812092304,50,walking
1783066611538632000,1.0958536,-0.3814249368093907,-0.5120774157226086,-0.6957564052939414,0.3468890786170959,0.6123799085617065,0.0110820392146706,-1.0218765112496913,-9.58292424672246,-1.814863310587406,50,walking
1783066611558556000,1.1157776,-1.0218075376667082,0.0021808511704206,-0.7940146810807287,0.3533278703689575,0.6351816654205322,-0.1176909059286117,-0.9902198286175729,-9.596196985271572,-1.761496462059021,50,walking
1783066611578481000,1.1357026,-1.138557382629439,0.3437327734053135,-0.8438859425783157,0.4177688956260681,0.6156736016273499,-0.238333374261856,-0.9340731401123106,-9.612884500700234,-1.7001032512024044,50,walking
1783066611598406000,1.1556276,-1.2806243319392203,0.665008800330758,-0.7041619761981069,0.4535125195980072,0.5866791009902954,-0.3564273715019226,-0.8575474612493067,-9.63279156269729,-1.6261448655441402,50,walking
1783066611618329900,1.1755515,-1.307925011318922,1.0125362898439167,-0.3372328899919986,0.3750991821289062,0.6008920073509216,-0.4814918935298919,-0.7587200803376734,-9.653060443744064,-1.5534383796431124,50,walking
1783066611638254800,1.1954764,-1.036728408749029,1.228060031965375,-0.2043061825364828,0.2211123704910278,0.5716516971588135,-0.5364108681678772,-0.6399609413791447,-9.669416535261274,-1.5044056147962808,50,walking
1783066611658178800,1.2154004,-0.528798979551345,0.912918562272191,-0.5903996956788004,0.1624325662851333,0.4008393883705139,-0.3938919901847839,-0.533478333006613,-9.680484457242487,-1.474449744732678,50,walking
1783066611678103800,1.2353254,-0.5770602485690266,0.5279945313006639,-0.9700263508945705,0.1448188573122024,0.2112881541252136,-0.2564046382904053,-0.4639685973202809,-9.688060445454717,-1.4479673959985375,50,walking
1783066611698028800,1.2552504,-1.1135527782976626,0.5858078378438949,-0.9075146574020384,0.0932035967707634,0.1298559308052063,-0.2346120029687881,-0.4136486787397414,-9.693650228285788,-1.4256344220288095,50,walking
1783066611717953000,1.2751746,-1.471133752052486,0.4949503398329019,-0.862072756654024,0.0127851739525794,0.1310483068227768,-0.2819383144378662,-0.3607296835767105,-9.697064420643448,-1.4167583110034463,50,walking
1783066611737877800,1.2950994,-1.2832850755810736,0.5997083529025315,-0.883589591935277,-0.0410765074193477,0.1284187734127044,-0.3047128319740295,-0.2995815335223451,-9.69857248711884,-1.420679576100409,50,walking
1783066611757801700,1.3150233,-0.9553880230806768,0.5854612163633108,-0.747188486367464,-0.0885335355997085,0.136422574520111,-0.2734828889369964,-0.2397675912138074,-9.698241647729278,-1.4342286473728716,50,walking
1783066611777727000,1.3349486,-0.8145104296859353,0.8446352996408939,-0.6828665285825729,-0.1038664951920509,0.1344547569751739,-0.2511907517910003,-0.1855176579742692,-9.69644775004983,-1.454257874444872,50,walking
1783066611797651700,1.3548733,-0.6274931625373661,1.2224269945144652,-0.5480645287744701,-0.0607360824942588,0.1220594719052314,-0.1872209012508392,-0.1382025198334362,-9.694757312744857,-1.4706963835485278,50,walking
1783066611817576000,1.3747976,-0.4883902506649494,1.2083031920939684,-0.3683182024769484,-0.02512127161026,0.1469708085060119,-0.1021596044301986,-0.1071673574999906,-9.693802203977109,-1.4795562740914523,50,walking
1783066611837500200,1.3947218,-0.3873820551155135,1.4272434646606444,-0.1386414318405091,0.0448875054717063,0.1641416698694229,-0.0537319891154766,-0.0880165754966437,-9.694271575054524,-1.4777438178420066,50,walking
1783066611857424100,1.4146457,-0.1434711535518988,1.2902742038160562,-0.0816828424304723,0.0311578270047903,0.1532697081565857,-0.0159474108368158,-0.0767954539814032,-9.69571768220961,-1.4688621538586917,50,walking
1783066611877349000,1.4345706,-0.057560943783936,1.1907412319183348,0.1747515867501497,-0.0438635721802711,0.202364295721054,0.0080889733508229,-0.0706785328705329,-9.695544079208371,-1.4703141062326728,50,walking
1783066611897273000,1.4544946,0.1678335692563094,0.9455997656464576,0.2851139956980943,-0.0922089666128158,0.2754880487918854,0.068515732884407,-0.0702698972707148,-9.693414081442356,-1.4843098983593284,50,walking
1783066611917198000,1.4744196,0.5608742529217153,0.635933512493968,0.5001474700845777,-0.1133100315928459,0.4294899106025696,0.1781072467565536,-0.0832309669216163,-9.690054834142328,-1.5054127460122109,50,walking
1783066611937123000,1.4943446,0.789825778023526,0.2087216608911752,0.4610439785778522,-0.0941755846142768,0.5516774654388428,0.2979585826396942,-0.1151097678718157,-9.68631857022345,-1.5272119053661823,50,walking
1783066611957047300,1.5142689,0.7185170300912112,0.2216828492730855,0.2593558695852756,-0.0621758289635181,0.5789870619773865,0.3371294438838959,-0.1597702724511735,-9.683118897399304,-1.5433962935782968,50,walking
1783066611976972000,1.5341936,0.5922373959673568,0.0982289035618305,0.3206098181016743,-0.0734423324465751,0.704396665096283,0.384358286857605,-0.2090154196733608,-9.679823362985251,-1.558112801194936,50,walking
1783066611996896000,1.5541176,0.4452927210859954,0.1294482176899909,0.1923604548074305,-0.126424640417099,0.843388020992279,0.3960431218147278,-0.2607895556502044,-9.67482979248166,-1.5811470553018152,50,walking
1783066612016821200,1.5740428,0.4053825893715024,0.2582902861803769,-0.1283013857424259,-0.091361254453659,0.819484293460846,0.3634122908115387,-0.3064721698189154,-9.668999186632036,-1.6083922051019963,50,walking
1783066612036746000,1.5939676,0.5680593421202152,0.1238999359130859,-0.3793348326623439,-0.0004426147788763,0.7616280317306519,0.3575635254383087,-0.350486266253516,-9.665092826843262,-1.6228164517737924,50,walking
1783066612056670200,1.6138918,0.415133583535254,0.0035720132678747,-0.3568243101686239,0.0398150309920311,0.7986261248588562,0.3437181413173675,-0.3934360213922336,-9.663277886375784,-1.6237790131956338,50,walking
1783066612076595000,1.6338166,0.2844840272314846,-0.0509504350364208,-0.2046767694145441,0.0339606069028377,0.9257676005363464,0.3279846608638763,-0.4305303285010158,-9.661727149802443,-1.6235959117136896,50,walking
1783066612096519200,1.6537408,0.3795982693715021,-0.2596487150520086,-0.2418938626527786,0.0213168337941169,0.919381618499756,0.2948171496391296,-0.4601034463247284,-9.659828038182852,-1.6267808253601193,50,walking
1783066612116444200,1.6736658,0.4252303954619914,-0.3738748136907815,-0.1854069824077188,0.0374152772128582,0.8846660852432251,0.2777961492538452,-0.486282610861212,-9.658130586615204,-1.6292485306479036,50,walking
1783066612136369200,1.6935908,0.3888092383744195,-0.4214765228211879,-0.0702501787900924,0.0206964928656816,0.8848543167114258,0.2515782415866852,-0.5089683803239837,-9.656466452795266,-1.6321768391847609,50,walking
1783066612156293000,1.7135146,0.400435159564577,-0.516005987343192,0.0936819077819585,-0.0317788384854793,0.9248948693275452,0.2374280989170074,-0.5255320867098867,-9.653814476981758,-1.6425807442992926,50,walking
1783066612176218000,1.7334396,0.6397909916397184,-0.6675497169852256,0.0941799204319715,-0.0461147800087928,0.886608898639679,0.2488279193639755,-0.5420776363845914,-9.649663787043094,-1.6614841822117563,50,walking
1783066612196142000,1.7533636,0.5520859663102775,-0.8563742527514696,0.0073180679284036,-0.0269854180514812,0.828525722026825,0.2435573637485504,-0.5616628825487568,-9.64594213617146,-1.6765258301295338,50,walking
1783066612216067000,1.7732886,0.3951314636658877,-0.8453928400099276,0.1453099498189985,-0.0802180618047714,0.8925204873085022,0.2181306630373001,-0.5769410061035305,-9.641658759763835,-1.6958546538472177,50,walking
1783066612235992300,1.7932139,0.5142210036225616,-0.9456646475762128,-0.1126882215470075,-0.1096056252717971,0.8918488621711731,0.2653978765010834,-0.5912842964936047,-9.635509589484334,-1.725609740641713,50,walking
1783066612255916000,1.8131376,0.2284496399942785,-1.1459575028181077,-0.5195107805937529,-0.13806714117527,0.8062520623207092,0.2820285558700561,-0.615711758524552,-9.628099605488776,-1.758123332364112,50,walking
1783066612275841300,1.8330629,-0.3404456414934247,-0.8473749537378549,-0.512365585014224,-0.2243229746818542,0.9089899063110352,0.2276423871517181,-0.6359398691695183,-9.618428690823912,-1.8032761870376768,50,walking
1783066612295765200,1.8529868,-0.4903524906486272,-0.3455915530145168,-0.7974614605337381,-0.2030243873596191,0.9896916151046752,0.1136868968605995,-0.6338749725289643,-9.607852936273812,-1.85950383182466,50,walking
1783066612315690000,1.8729116,-0.1467540111474692,0.0597732084393501,-1.2482733834326267,-0.0298773553222417,0.913914442062378,0.0683698281645774,-0.6137042911596596,-9.602163200199604,-1.895313250222057,50,walking
1783066612335614200,1.8928358,0.2278303025195375,0.1433054781287908,-1.502365048879385,0.1637243330478668,0.8965646624565125,0.1904752403497696,-0.6026724999377504,-9.603395372343062,-1.8926129052221772,50,walking
1783066612355539200,1.9127608,0.2857991284180432,0.1716524516910314,-1.6702178160265089,0.3248176574707031,0.982928454875946,0.3667042255401611,-0.62143641978167,-9.60899801465571,-1.8577881139479575,50,walking
1783066612375464200,1.9326858,-0.0953345703598111,0.2864069581180811,-1.881681176841259,0.5101244449615479,0.9859438538551332,0.3874044120311737,-0.6609338059768081,-9.619005029407145,-1.7911739535726603,50,walking
1783066612395388200,1.9526098,-0.5221536963179707,0.5182184026956558,-1.8663133657090365,0.6841115355491638,0.991062343120575,0.2599882781505584,-0.6905092253554612,-9.635486793130635,-1.6884774030774832,50,walking
1783066612415313200,1.9725348,-0.4558113386213779,0.7814689416319132,-1.612896823044866,0.7133280038833618,1.0656781196594238,0.1185495927929878,-0.692507486500591,-9.656174776372312,-1.5649565296098589,50,walking
1783066612435237000,1.9924586,-0.1290177173182368,0.771985658493638,-1.393339587623626,0.5353434681892395,1.1846017837524414,0.0674850940704345,-0.6755836780980229,-9.674078097331524,-1.45815473575294,50,walking
1783066612455162000,2.0123836,0.1679303624279797,0.8336988950848578,-1.3235352529048918,0.2671323120594024,1.332944631576538,0.1011218652129173,-0.6550009087964892,-9.684463882267474,-1.3973252962589262,50,walking
1783066612475087000,2.0323086,0.5517623603790998,0.918717019417882,-1.504004048258066,0.096526451408863,1.360489010810852,0.1497329175472259,-0.6413952119659632,-9.687480599740146,-1.382655112002045,50,walking
1783066612495011000,2.0522326,0.8263139724653213,1.0850573361754416,-1.8015110770612957,0.0784539580345153,1.2837435007095337,0.2158820182085037,-0.639716026707366,-9.687423901116848,-1.3838247403033077,50,walking
1783066612514936300,2.0721579,0.9853242385957388,1.1431424453973769,-1.7953310732521115,0.0711763128638267,1.3213434219360352,0.3208625912666321,-0.6552239038974046,-9.686104050689934,-1.3858144528158007,50,walking
1783066612534860000,2.0920816,1.0547061831839382,0.8894786499738693,-1.971656631320715,0.1120798140764236,1.3677557706832886,0.4536175429821014,-0.692583035954833,-9.683082072520255,-1.3887548901818692,50,walking
1783066612554785000,2.1120066,0.9249008956845848,0.6898533187299967,-2.2763825054615734,0.2907093167304992,1.2727627754211426,0.5372708439826965,-0.7534160556454211,-9.681128015843033,-1.3705856117628514,50,walking
1783066612574710000,2.1319316,0.6937362245779484,0.5152765040248632,-1.9883201813519,0.3848200738430023,1.2609822750091553,0.5746539831161499,-0.8270634025931358,-9.681776835140584,-1.3227110770404338,50,walking
1783066612594634000,2.1518556,0.5459353347260505,0.5427636458873748,-1.727199055659771,0.3412308990955353,1.2539448738098145,0.5483040809631348,-0.9041679042574018,-9.68158102030754,-1.2727356245160102,50,walking
1783066612614559200,2.1717808,0.4191089169070124,0.7011164710223674,-1.4418670332968233,0.1819039732217788,1.291716456413269,0.4734337031841278,-0.9717206606570632,-9.678774146193266,-1.243978462717682,50,walking
1783066612634483200,2.1917048,0.3180460320282727,0.8681944544047117,-1.2401438529908655,-0.0456086359918117,1.3662203550338743,0.3747442066669464,-1.0202953064728528,-9.671973234006762,-1.2579060119137166,50,walking
1783066612654408200,2.2116298,0.5602163004696369,1.029759227323532,-1.254002720864862,-0.1382521837949752,1.4013168811798096,0.3113020658493042,-1.0498302477106451,-9.66235200370252,-1.3065955162808298,50,walking
1783066612674333200,2.2315548,0.9320301630426198,1.0645534773290155,-1.30441773385033,-0.1643311977386474,1.4532759189605713,0.3492236137390136,-1.0738866844721138,-9.651357731479406,-1.3669127684690057,50,walking
1783066612694257000,2.2514786,1.1722251858882606,1.1472311760157343,-1.3103956392161549,-0.0797893553972244,1.4851553440093994,0.4474869668483734,-1.109078263232112,-9.639014967256784,-1.424680043913424,50,walking
1783066612714182100,2.2714037,1.228455168762803,0.9544067569583654,-1.4415138359449804,0.0953706726431846,1.4553624391555786,0.5352799296379089,-1.161866654285416,-9.62785059916377,-1.457714883030951,50,walking
1783066612734106000,2.2913276,1.0113657847598194,0.7626409070432185,-1.6056448060899973,0.2862046360969543,1.3878824710845947,0.5273584127426147,-1.2235517607606947,-9.620588499206304,-1.455192524946481,50,walking
1783066612754031000,2.3112526,0.8487425888292491,0.4880418756186961,-1.6525883435726163,0.4260278046131134,1.3579968214035034,0.5055071711540222,-1.2828412773363291,-9.618180269020796,-1.4196211530886589,50,walking
1783066612773955000,2.3311766,0.7868762075029313,0.2221814464449882,-1.5089635703615842,0.4680734574794769,1.4107073545455933,0.4997531473636627,-1.3408343243606389,-9.61762672679126,-1.3688666790157555,50,walking
1783066612793880300,2.3511019,0.6154704240493476,0.1069534772872924,-1.4074191125109792,0.474458247423172,1.4257850646972656,0.458942711353302,-1.3956807439222931,-9.617019993069768,-1.3173318682201205,50,walking
1783066612813805000,2.3710266,0.479146036979556,0.0606359627485275,-1.4199112220764158,0.4867443740367889,1.354143142700195,0.3502564132213592,-1.4375747429303825,-9.617990299406648,-1.2641384765625,50,walking
1783066612833728800,2.3909504,0.5140807183690369,0.0247714531630277,-1.358946319634467,0.4784585833549499,1.2939010858535769,0.2606083154678345,-1.462933202201128,-9.621181788924336,-1.2095827835757285,50,walking
1783066612853653800,2.4108754,0.563287670738995,-0.0987719243973493,-1.2800520850092172,0.4124597311019897,1.2638670206069946,0.195322036743164,-1.475927269939333,-9.62512789620161,-1.1614350579351187,50,walking
1783066612873577500,2.4307991,0.5888914830729365,-0.0911655410468578,-1.162972935026884,0.3410448133945465,1.2351175546646118,0.139091819524765,-1.4792355177044867,-9.628844286376236,-1.1258834136910736,50,walking
1783066612893502700,2.4507243,0.6136037533946335,-0.2230208198785781,-1.237426410725713,0.2846123874187469,1.1546858549118042,0.086958959698677,-1.474319104090333,-9.632410454425216,-1.101558754447475,50,walking
1783066612913427700,2.4706493,0.6277905380487442,-0.3865349732995033,-1.318136024209857,0.2477855682373047,1.0367172956466677,0.0347367450594902,-1.4617210499323905,-9.636490417215228,-1.0825001259732991,50,walking
1783066612933351700,2.4905733,0.6594228168919682,-0.5986825169861316,-1.35718384000659,0.1743510514497757,0.9588857889175416,0.0324379876255989,-1.4465163204073903,-9.640119713628293,-1.0705366433918475,50,walking
1783066612953276700,2.5104983,0.5256820165745913,-0.8449661390304565,-1.3178671441406011,0.0809317603707313,0.9424363374710084,0.0370302535593509,-1.4333835748508572,-9.641786185535787,-1.0731919802062213,50,walking
1783066612973201000,2.5304226,0.1718340918682515,-0.8785960214316845,-1.115757448735088,0.0194876845926046,0.94706791639328,-0.0193352773785591,-1.4154717783242463,-9.642422729873656,-1.091097858448699,50,walking
1783066612993125600,2.5503472,-0.0404945074737072,-0.7813187195062636,-0.8395482056349516,-0.0160269290208816,0.9701291918754578,-0.1254868954420089,-1.3810627282440662,-9.644382047247886,-1.1175617947433143,50,walking
1783066613013049600,2.5702712,-0.0529126750200986,-0.5467337185621262,-0.626844343239814,-0.0381381772458553,0.9448050260543824,-0.2527832686901092,-1.322705962473899,-9.648825582653284,-1.1493542325843125,50,walking
1783066613032974800,2.5901964,0.285485751619935,-0.5328688593387604,-0.5052981308460235,-0.03009052015841,0.8012193441390991,-0.2704271376132965,-1.2504985121361911,-9.654908117437362,-1.1787233157359065,50,walking
1783066613052899600,2.6101212,0.6835358061462641,-0.5995002631098032,-0.4030301810264587,-0.0277532171458005,0.5976885557174683,-0.1989241987466812,-1.1875151094786822,-9.660102763471007,-1.2010849312782288,50,walking
1783066613072823800,2.6300454,0.637174233270064,-0.8731739963829517,-0.4271188395570963,-0.0669656917452812,0.4596464037895202,-0.0774866417050361,-1.1480367933101951,-9.662360187008977,-1.2211395850524305,50,walking
1783066613092748500,2.6499701,0.2485894878339022,-0.9512345566630362,-0.2635667652785778,-0.1373192518949508,0.437283456325531,-0.0158009976148605,-1.1302543222516774,-9.660765026772022,-1.250017742881924,50,walking
1783066613112672800,2.6698944,-0.2028574450328946,-0.7872025168478488,-0.3453909158758819,-0.2336217314004898,0.3754123747348785,-0.0974272936582565,-1.1108112975697964,-9.65720236585438,-1.2941881623893976,50,walking
1783066613132597800,2.6898194,-0.6120861153732985,-0.5928478194832801,-0.3352688964426517,-0.3545637726783752,0.4162284433841705,-0.2384316772222519,-1.068194610310346,-9.653138185155392,-1.3587785618521273,50,walking
1783066613152522800,2.7097444,-0.7399312087155878,0.0363788888484239,-0.2516540630362928,-0.476986289024353,0.6162653565406799,-0.3359391987323761,-0.9978104298770428,-9.64730231860876,-1.4506233173348009,50,walking
1783066613172446700,2.7296683,-0.6450612601928413,0.5367249502450228,-0.4771136543691158,-0.4503065049648285,0.7758382558822632,-0.3984650671482086,-0.9057830843690782,-9.640078212574124,-1.5552645721569656,50,walking
1783066613192371700,2.7495933,-0.5695641206599772,0.899915872836113,-0.5731519160188734,-0.3076858222484588,0.914831817150116,-0.4254837334156036,-0.7981235777042806,-9.63486193923056,-1.644028605020046,50,walking
1783066613212295700,2.7695173,-0.4529038536768406,1.1444728172183036,-0.7354062786370515,-0.0659899115562439,1.03385591506958,-0.3713648617267608,-0.688232512595132,-9.634162266528604,-1.696952824347466,50,walking
1783066613232220700,2.7894423,-0.5179210271842778,1.179042026296258,-0.8836234942048787,0.2305803894996643,1.081418514251709,-0.3151751160621643,-0.5864043058997019,-9.641197571992874,-1.6952308228604491,50,walking
1783066613252145700,2.8093673,-0.446070646655932,1.179407352477312,-0.8144114262908697,0.4796481728553772,1.0944457054138184,-0.2143264859914779,-0.4975443383814766,-9.656227383342385,-1.6371014361053704,50,walking
1783066613272069600,2.8292912,-0.0161304660677909,0.7946732911199331,-0.8582768715023994,0.6223121881484985,1.0232974290847778,-0.0260903090238571,-0.4390672341672703,-9.675216745972632,-1.538767903125286,50,walking
1783066613291995000,2.8492166,-0.084116024394147,0.2470212886691093,-0.911048092225194,0.6232520341873169,0.9357612729072572,0.1716051995754242,-0.4251008507981896,-9.693343354293704,-1.4243461357839404,50,walking
1783066613311918800,2.8691404,-0.5342036881390959,-0.1546785205364227,-0.7415490191757679,0.4252408444881439,0.911230742931366,0.3066521286964416,-0.4471196442522108,-9.705990654420852,-1.3282384621597825,50,walking
1783066613331843600,2.8890652,-0.8649646056380123,-0.6005044717162847,-0.7165268061220645,0.1529582887887954,0.9319781064987184,0.341589093208313,-0.4883579923631623,-9.710274030828476,-1.2815839707516132,50,walking
1783066613351768800,2.9089904,-1.229414807575196,-0.2032096194714307,-0.7838175505846738,-0.0635751411318779,0.95267254114151,0.1889478415250778,-0.5176042163200676,-9.708635031449797,-1.282528265864402,50,walking
1783066613371692500,2.9289141,-1.2201431213609877,0.5194920758932828,-0.5643080998279154,-0.1880046427249908,1.0680454969406128,0.0206338837742805,-0.5101166005110368,-9.704100310629606,-1.319330348560959,50,walking
1783066613391617800,2.9488394,-0.5808556587966158,0.906903832027316,-0.5659112972408533,-0.1474599391222,1.1225067377090454,0.0114779453724622,-0.4809727409500628,-9.699310153743625,-1.3647133587285876,50,walking
1783066613411541800,2.9687634,-0.0241661807462573,0.9583709844142198,-0.5221989967644214,-0.0036006765440106,1.1094964742660522,0.1122084483504295,-0.4617071917269378,-9.696458855965734,-1.3913669723764062,50,walking
1783066613431466800,2.9886884,0.3020708661200478,1.1477543231070042,-0.3719084820538759,0.187291532754898,1.065427541732788,0.2321842014789581,-0.4645773403357714,-9.697448451524972,-1.3834905399128794,50,walking
1783066613451390700,3.0086123,0.4006295130928978,0.9634224225848912,-0.0711589641980826,0.3064935207366943,1.0342350006103516,0.3563571870326996,-0.4931054060859605,-9.701659347218277,-1.3435146494857966,50,walking
1783066613471315700,3.0285373,0.3495936647953465,0.6844809780418872,0.2537625796228647,0.3072333931922912,1.0456093549728394,0.4556691944599151,-0.544721136630699,-9.705683195906875,-1.2935939958885312,50,walking
1783066613491240700,3.0484623,0.2840780402464792,0.311388839161396,0.219672532363981,0.280021458864212,1.0360761880874634,0.4765179455280304,-0.609390300418064,-9.707733114174008,-1.2485806958161294,50,walking
1783066613511164700,3.0683863,0.276740354302153,0.0189443544447422,0.1760586507607251,0.17183318734169,1.0461232662200928,0.4711162745952606,-0.675973261937499,-9.707380062952636,-1.2166385473061352,50,walking
1783066613531089700,3.0883113,0.3272312820680439,0.0498573791027069,0.2978840454220771,0.0546771697700023,1.0468450784683228,0.4566665291786194,-0.739632518029958,-9.703577748060226,-1.209925386468321,50,walking
1783066613551013600,3.1082352,0.3369016122110188,-0.1725333261787891,0.030994930787757,-0.0193553380668163,1.0041216611862185,0.4388189017772674,-0.8015262257546186,-9.697113520482182,-1.22225952899307,50,walking
1783066613570939000,3.1281606,0.151591368176043,-0.2709253113478422,-0.0676648384720087,-0.0693032816052436,1.0757956504821775,0.3961559236049652,-0.857731220318377,-9.688953010380269,-1.248547378068417,50,walking
1783066613590862800,3.1480844,0.0690431410878896,-0.2319558214843273,-0.2430949090056121,-0.0555465742945671,1.1554282903671265,0.3184362947940826,-0.8984843787282705,-9.680786070537566,-1.282759736532718,50,walking
1783066613610787600,3.1680092,0.227352930798754,-0.3010229279696941,-0.5524439129024744,0.0419870875775814,1.145404815673828,0.2859010994434356,-0.9257116275455802,-9.67516647709012,-1.3056063591130076,50,walking
1783066613630712800,3.1879344,0.2679791018281132,-0.6198392867833376,-0.5961088671058417,0.1295213848352432,1.1393150091171265,0.2813668549060821,-0.9513741112641988,-9.672085462209582,-1.3099749295860528,50,walking
1783066613650636800,3.2078584,-0.0203574361130595,-0.5459118807852268,-0.5249744528271257,0.1708585023880005,1.1456164121627808,0.2047278136014938,-0.969345894349739,-9.671344872975348,-1.3022501805528996,50,walking
1783066613670561800,3.2277834,-0.1489976984210312,-0.4966670806229114,-0.4127870204091072,0.1667983382940292,1.2486666440963743,0.1220371797680854,-0.9695433896832168,-9.672554833287,-1.2930818085826932,50,walking
1783066613690485800,3.2477074,0.1236832974877208,-0.4475374312728643,-0.3749380590081215,0.21017986536026,1.3035385608673096,0.1062479466199874,-0.9570151858910918,-9.67529682547152,-1.281849197559059,50,walking
1783066613710410500,3.2676321,0.4019623325992375,-0.7211965514987707,-0.4974332426898181,0.2744372189044952,1.231698989868164,0.1560176014900207,-0.949186903418228,-9.679065822616218,-1.2590129502423106,50,walking
1783066613730335700,3.2875573,0.4287017248343676,-1.1794377476155755,-0.7658569464802741,0.2548828423023224,1.0419515371322632,0.244934931397438,-0.9593165947012604,-9.68215794341266,-1.2271664441265164,50,walking
1783066613750259700,3.3074813,-0.2409830314181744,-1.190625496584177,-0.6705997522056102,0.1255127787590026,0.9950936436653136,0.2575941681861877,-0.9854468420621008,-9.681893154996631,-1.2083998574014752,50,walking
1783066613770184700,3.3274063,-0.9514802750524132,-0.5000251588791609,-0.5646738644003868,-0.0207867007702589,1.0405139923095703,0.1241058260202407,-0.9988962523523718,-9.679222474482655,-1.218707170273736,50,walking
1783066613790108700,3.3473303,-1.074466530186683,0.2384030979275703,-0.5663280613481998,-0.0750585198402404,1.0921339988708496,-0.00096765847411,-0.983050375379622,-9.676645317471026,-1.2516190405987202,50,walking
1783066613810034000,3.3672556,-0.7589579076815396,0.4719605093896388,-0.8787082496345042,-0.0199740566313266,1.059063196182251,-0.0244138501584529,-0.9521481643766164,-9.675570381715891,-1.283405340959877,50,walking
1783066613829962000,3.3871836,-0.6619229631446302,0.7452467046499252,-1.093664567131549,0.1468742489814758,0.9699295163154602,-0.0516252815723419,-0.9195970171228052,-9.677714408007263,-1.290960578645021,50,walking
1783066613849887000,3.4071086,-0.8008964764837175,1.1072884572058916,-0.8817004171878099,0.2867631018161773,0.9325599670410156,-0.1260090321302414,-0.8786359150506555,-9.684964817526936,-1.2648511548765002,50,walking
1783066613869812000,3.4270336,-0.6286901903022081,1.1831938852787016,-0.6157318514645099,0.3023437857627868,0.9061182737350464,-0.1778956353664398,-0.8250390571586788,-9.69517933754921,-1.221967706439644,50,walking
1783066613889736000,3.4469576,-0.2447089931387454,1.1819447620004415,-0.3766062844812869,0.2446973323822021,0.8487974405288696,-0.1317120492458343,-0.7726770017586648,-9.704404846534132,-1.1823184176184236,50,walking
1783066613909661000,3.4668826,-0.0603823533136397,1.053248823982477,-0.3756616971075535,0.1654743552207946,0.7488214373588562,-0.0469425469636917,-0.7368867264531552,-9.710532389503715,-1.1545323658745734,50,walking
1783066613929585000,3.4868066,-0.0685408175889402,0.8488006026268005,-0.3176729609321803,0.0225619710981845,0.6900511980056763,0.0144133083522319,-0.7178045709729194,-9.713032389625909,-1.1454833094350994,50,walking
1783066613949510100,3.5067317,0.0402557302817702,0.7293985626548528,-0.2472271865047514,-0.136477380990982,0.6282930970191956,0.0876534357666969,-0.7118292959555983,-9.710947984567284,-1.166698896747455,50,walking
1783066613969435000,3.5266566,0.1272154171366244,0.5037719441920518,-0.5136106166392564,-0.2199158817529678,0.4799901247024536,0.1759824007749557,-0.7244190206766128,-9.70468892417252,-1.210214286412299,50,walking
1783066613989358800,3.5465804,-0.0554282380376011,0.412703433778882,-0.5877728543065488,-0.2483952641487121,0.3994140326976776,0.2107871323823928,-0.7523154739923775,-9.695920511305332,-1.262346040187776,50,walking
1783066614009284000,3.5665056,-0.144859575702995,0.489827005469799,-0.6207349204488098,-0.2009277194738388,0.4090064167976379,0.2215074598789215,-0.7836419748220592,-9.686705523714425,-1.3130318329386412,50,walking
1783066614029208000,3.5864296,-0.0366434580687433,0.3803618376225233,-0.7693706536896526,-0.1176582872867584,0.399937093257904,0.2309329211711883,-0.8165902316346764,-9.67884370429814,-1.350395641171187,50,walking
1783066614049133000,3.6063546,0.0377178093019872,0.2786737335175275,-0.7071843927592039,-0.006868147291243,0.3413777649402618,0.2136334329843521,-0.8499505763795226,-9.673371410366892,-1.368887575673312,50,walking
1783066614069057000,3.6262786,0.104294779472053,0.292009600430727,-0.5169486750207841,0.0777676627039909,0.2468820214271545,0.1702373027801513,-0.8788188704021275,-9.671143797445296,-1.366389913638681,50,walking
1783066614088982000,3.6462036,0.1983814686626195,0.4313058429181575,-0.1332562316708266,0.0732334703207016,0.2043423503637313,0.135644182562828,-0.9021271922100336,-9.670678518021106,-1.3544408249087632,50,walking
1783066614108907000,3.6661286,0.4534207902230322,0.4698796114623546,0.1631092258818447,-0.0106764864176511,0.151841789484024,0.1623033285140991,-0.9255273570198566,-9.668999771153926,-1.3506331031888723,50,walking
1783066614128831000,3.6860526,0.57287141857706,0.3964601549863815,0.2611957983635365,-0.1446177661418914,0.0944641232490539,0.2029256522655487,-0.9577394815776497,-9.663517540350556,-1.367316965355724,50,walking
1783066614148756000,3.7059776,0.4328039725214243,0.2496113051623106,0.3204582808017731,-0.2724745869636535,0.0670129880309104,0.2041892856359481,-0.9957405648004264,-9.65358592892289,-1.4096702524386346,50,walking
1783066614168680000,3.7259016,0.3190266405634582,0.2794447178900242,0.2308551667660474,-0.3020462095737457,0.0028936606831848,0.1559448093175888,-1.0293563456110657,-9.641371759516,-1.4679095293089746,50,walking
1783066614188605200,3.7458268,0.4062498006600886,0.3257055338054895,0.1470867502331733,-0.2114786952733993,-0.0396498069167137,0.1421196460723877,-1.0571732308845967,-9.630470426273346,-1.5188145177684724,50,walking
1783066614208529000,3.7657506,0.6045956865526736,0.396259663978219,0.2200387353278696,-0.0718155205249786,-0.0823543891310691,0.1943259984254837,-1.090768261168152,-9.622614452075958,-1.54463051154837,50,walking
1783066614228454100,3.7856757,0.6251569746747613,0.3027145343184471,0.294516030293703,0.0585282258689403,-0.1995415389537811,0.221101239323616,-1.1357204056378454,-9.617805005967616,-1.5421942243121562,50,walking
1783066614248379000,3.8056006,0.4773673368692397,0.2672685424059629,0.356320452299714,0.1289989948272705,-0.3392730057239532,0.1888876855373382,-1.183806391153857,-9.61602747490108,-1.516909999321401,50,walking
1783066614268302800,3.8255244,0.3136702280968427,0.2058727012008428,0.3352214040391147,0.0741060823202133,-0.4411909282207489,0.1367560476064682,-1.2266093947656451,-9.615684360551834,-1.4847379145130517,50,walking
1783066614288228000,3.8454496,0.0937010508738458,-0.0942220060080289,0.5597521900892257,-0.0660292953252792,-0.4619487226009369,0.1150494590401649,-1.263867112275213,-9.612619712284207,-1.4732900533035396,50,walking
1783066614308152000,3.8653736,0.1865557140514254,-0.0532557893693447,0.4922334820896387,-0.085381232202053,-0.692337691783905,0.060664065182209,-1.2965674587413667,-9.607946459776162,-1.475352538791299,50,walking
1783066614328077000,3.8852986,0.5972916471496224,-0.2992366290748119,0.2090070537038147,-0.0250076502561569,-0.8703656792640686,0.1082049310207367,-1.3339575704589486,-9.604377953639624,-1.4652142988756298,50,walking
1783066614348001000,3.9052226,0.7064993331044912,-0.2935685203105211,0.0126603057391941,0.0455547533929348,-0.8111220598220825,0.1748125851154327,-1.3873502840809524,-9.60061947788894,-1.4400531157426537,50,walking
1783066614367926000,3.9251476,0.676020023688674,-0.2450911973893642,-0.1189325227640569,0.1607676744461059,-0.832664430141449,0.1209160163998603,-1.4400693362250925,-9.598817981424927,-1.3997395177938043,50,walking
1783066614387851000,3.9450726,0.8231234327957033,-0.4439671715706587,-0.3125822867296636,0.4200397729873657,-0.9613919258117676,0.0118471160531044,-1.4768899774916469,-9.604646833708882,-1.3190657062754034,50,walking
1783066614407775000,3.9649966,1.3241118837490675,-0.6590121902644633,-0.1452612153064459,0.596904456615448,-0.9916393756866456,-0.0183933489024639,-1.4999357759058474,-9.617948213830587,-1.1898057046338917,50,walking
1783066614427700000,3.9849216,1.7175376394756137,-0.6517372308254241,-0.0283591754566878,0.5633341670036316,-0.9188956022262572,-0.0430107489228248,-1.5155268743999302,-9.63210650304258,-1.0469364990305154,50,walking
1783066614447624000,4.0048456,2.31018306825459,-0.7913111212104559,-0.0155726860545575,0.4458365142345428,-0.8455866575241089,-0.0329309217631816,-1.524286373308301,-9.6433667327255,-0.923253639934212,50,walking
1783066614467549200,4.0247708,2.811930813142657,-1.3337035956978798,-0.4556739029120654,0.307509571313858,-0.8056128025054932,0.0408451817929744,-1.5391135016925632,-9.649844988828898,-0.8258224626213312,50,walking
1783066614487473000,4.0446946,2.637987620165944,-1.3394313256949186,-0.681771061496064,0.1851179003715515,-0.6464298963546753,0.0662415847182273,-1.5623922320798038,-9.651748776623606,-0.7569947909150272,50,walking
1783066614507398000,4.0646196,2.267196451704204,-1.059604915010929,-0.8935352318882942,0.1534420549869537,-0.5028059482574463,-0.0327212400734424,-1.5755715932570398,-9.65340063548386,-0.7069887240566313,50,walking
1783066614527323000,4.0845446,2.1276313291475177,-1.0521084217756986,-1.081826683691144,0.0547783598303794,-0.3816470205783844,-0.1869998574256897,-1.560205389560014,-9.658502927058937,-0.6704299485966563,50,walking
1783066614547246800,4.1044684,2.237603277473152,-0.9280845672219992,-1.1219120989073068,-0.1312480866909027,-0.2018551528453827,-0.2960065305233001,-1.5166495948195458,-9.665510175472498,-0.6693998748965561,50,walking
1783066614567172000,4.1243936,2.543816467562318,-0.7368085466504096,-1.4265835394471882,-0.2719268798828125,-0.0645403116941452,-0.3134056627750397,-1.4578966693386437,-9.671984339922666,-0.7054528197262435,50,walking
1783066614587096000,4.1443176,2.7333479825541374,-0.9154963038057088,-1.4885685787171123,-0.3827017247676849,0.0970041155815124,-0.172140970826149,-1.4084564927347003,-9.674355745229123,-0.7703609068360179,50,walking
1783066614607021000,4.1642426,2.4878952583760023,-1.243332419899106,-1.788341214364767,-0.3918017148971557,0.2268122434616089,-0.0417631119489669,-1.3874601741962134,-9.67063526340127,-0.8509671330109239,50,walking
1783066614626945000,4.1841666,1.194060731729865,-0.8904857811897993,-1.640005925375223,-0.4196320474147796,0.450560450553894,-0.1540296971797943,-1.367490714487433,-9.665549338439106,-0.9367537574984132,50,walking
1783066614646870000,4.2040916,-0.1475667888350784,-0.138694769462943,-1.4690152985937892,-0.4712730050086975,0.7500220537185669,-0.4675285816192627,-1.2968851463884117,-9.66466437229812,-1.0405571001917122,50,walking
1783066614666795000,4.2240166,-0.2889763702146709,0.2053606600254774,-1.9059639697045088,-0.4171082973480224,0.9083487391471864,-0.6075157523155212,-1.1686434549439697,-9.668891050082443,-1.147690464090556,50,walking
1783066614686719000,4.2439406,-0.0384738153010606,-0.0732645581752061,-2.167195423903316,-0.2833070755004883,1.1212886571884155,-0.39696004986763,-1.045052073523402,-9.67188380215764,-1.2381076709881425,50,walking
1783066614706644000,4.2638656,-0.5960332445863634,0.1794692629218101,-2.31659936503768,-0.1119623705744743,1.2229740619659424,-0.2722628116607666,-0.9543621140990406,-9.67307681133449,-1.3004406469129026,50,walking
1783066614726568000,4.2837896,-1.6927753925323483,0.718868400812149,-1.786098842265457,0.0939848721027374,1.24653160572052,-0.3812702894210815,-0.8616880681853741,-9.678419341406226,-1.3251663612380622,50,walking
1783066614746493200,4.3037148,-2.143064752861857,1.4659738850712776,-1.1685649098150432,0.2735402584075928,1.1275620460510254,-0.5282074809074402,-0.7400028126470745,-9.690803606683016,-1.3080867777518927,50,walking
1783066614766417200,4.3236388,-1.780827185472846,1.6863462362676858,-0.5675123026967048,0.3178786337375641,0.990432858467102,-0.4930950403213501,-0.611129727963917,-9.705874334564804,-1.2621069707348942,50,walking
1783066614786342000,4.3435636,-1.4657947291120883,1.623347636041045,0.0124690940160304,0.1573550254106521,0.9014906883239746,-0.2914071381092071,-0.5104690672105178,-9.71649685086608,-1.2245336114048957,50,walking
1783066614806267100,4.3634887,-1.3047827677704391,1.4852408955991268,0.4564621306803077,-0.0643161460757255,0.8493903279304504,-0.0181251596659421,-0.4580977690581232,-9.71919792651832,-1.2238035435646772,50,walking
1783066614826187000,4.3834086,-1.4878396799206732,1.0958815125286578,0.6290585121579468,-0.2024544477462768,0.8067908883094788,0.2628386616706848,-0.4629855776323005,-9.714408354154228,-1.2594818829283116,50,walking
1783066614846112000,4.4033336,-1.8368391416825356,0.6652519614368677,0.5433569356054068,-0.2269196659326553,0.7297992706298828,0.384541779756546,-0.5082815305709839,-9.705608377104998,-1.3089027703098952,50,walking
1783066614866036000,4.4232576,-1.940037942611426,0.282550282689929,0.8361877892911433,-0.240448996424675,0.8105902671813965,0.3691429793834686,-0.5623517781283706,-9.695354109594224,-1.3617151998259127,50,walking
1783066614885961000,4.4431826,-1.5280403190143406,0.4695481875509023,1.029673302605748,-0.2125033140182495,0.914730668067932,0.2952789068222046,-0.6022007907727733,-9.685129652699828,-1.4163365784600377,50,walking
1783066614905885000,4.4631066,-0.5994973405003547,1.0157067365735768,1.0487639336533845,-0.0962408930063247,0.9086475372314452,0.2738086879253387,-0.6302243410669267,-9.67718015500009,-1.4578728500716387,50,walking
1783066614925810200,4.4830318,0.1929877198603004,1.1393611732929945,1.0783268588766457,-0.0003261109814047,0.8263019323348999,0.3234836757183075,-0.6609042145561427,-9.672145083442327,-1.4775596934467554,50,walking
1783066614945735000,4.5029566,0.4658787052579224,1.0232757105231285,1.1721892377920449,0.0139337759464979,0.8044180274009705,0.3568809926509857,-0.7036527845669537,-9.667839495202898,-1.4859791467458008,50,walking
1783066614965659000,4.5228806,0.7599196653857827,0.8692144451022148,1.2931542892970145,0.0043767457827925,0.8343637585639954,0.3796326220035553,-0.7501930750109255,-9.662667645522951,-1.496810921883583,50,walking
1783066614985584000,4.5428056,1.1913998419575391,0.7125058800429105,0.9260667976588012,0.0374148003757,0.6220479011535645,0.3895539343357086,-0.8017435217671096,-9.65739291999042,-1.5041165687218307,50,walking
1783066615005507800,4.5627294,1.404351249372959,0.3115975134760141,0.9580812076874076,-0.0180558301508426,0.4882239997386932,0.4273494184017181,-0.8631120365738868,-9.651377020701766,-1.5087477356538177,50,walking
1783066615025433000,4.5826546,1.4023217893719673,0.1119043776929378,1.2374233419857918,-0.1766853332519531,0.6019017696380615,0.4931911826133728,-0.9354526117719708,-9.640079966139792,-1.5375966673888266,50,walking
1783066615045357000,4.6025786,1.3803463966682552,-0.2534954531192779,0.9671727150291204,-0.2756389081478119,0.6247703433036804,0.5013900995254517,-1.013285281580314,-9.622885670232773,-1.594902316670865,50,walking
1783066615065282000,4.6225036,1.097129978219792,-0.548822799795866,0.8479298111416399,-0.3292300701141357,0.5740039944648743,0.3762821555137634,-1.0800712183259429,-9.603788755574822,-1.6646518524624407,50,walking
1783066615085207000,4.6424286,0.8149119231589138,-0.6410644456416368,1.0393480166628957,-0.4171191751956939,0.6445664167404175,0.1921880394220352,-1.113588361067697,-9.585018588653206,-1.7486302584841846,50,walking
1783066615105131000,4.6623526,1.0903270202066748,-0.8946119212090968,1.0165934562802317,-0.5036212205886841,0.7165807485580444,0.1035521775484085,-1.1150172248270362,-9.565356441327928,-1.85231932714805,50,walking
1783066615125056000,4.6822776,1.4201818557113408,-1.0362614488244055,0.8534837920069694,-0.4641267359256744,0.7586837410926819,0.1223960816860199,-1.1071399886459112,-9.544164015695452,-1.9630466238856317,50,walking
1783066615144980000,4.7022016,1.4449609076589345,-0.9171697899758816,0.585449525925517,-0.2241494208574295,0.7828987836837769,0.1615091115236282,-1.1036375334829092,-9.5266371268332,-2.048306448020041,50,walking
1783066615164905000,4.7221266,0.963926938040927,-1.272208385771513,0.2518926940977573,0.1404138356447219,0.7926447987556458,0.1180417537689209,-1.0994985339820385,-9.5214512486279,-2.074478854022175,50,walking
1783066615184829000,4.7420506,0.4820590018168091,-1.4451514617949723,0.2921303042009472,0.4480194747447967,0.8255177736282349,0.0151433106511831,-1.0788136925455185,-9.532561256185174,-2.0339118658341464,50,walking
1783066615204754200,4.7619758,0.3745505209952592,-1.8659201286077496,0.463647000683099,0.6150588393211365,0.8562667369842529,-0.0406309701502323,-1.041634812425822,-9.554421205815672,-1.9489494172111157,50,walking
1783066615224679000,4.7819006,0.4624541376367211,-2.074509687551856,0.4939864632368087,0.7896934747695923,0.8463243246078491,0.0035198279656469,-1.0050400888696311,-9.581062544503808,-1.8339910587750372,50,walking
1783066615244603000,4.8018246,0.2971449174925685,-2.1591467036128043,0.3048310880810022,0.958950400352478,0.7363528609275818,0.038906954228878,-0.981886665362492,-9.611496845734118,-1.6808983461253344,50,walking
1783066615264528100,4.8217497,-0.1551892465375363,-2.2555320251345634,0.4276442516706883,0.9326894283294678,0.6467491984367371,-0.0099931415170431,-0.9636513359699398,-9.641855743640662,-1.5087760849654674,50,walking
1783066615284451800,4.8416734,-0.5380198123611509,-2.277118418520689,0.4419581698358059,0.6520125269889832,0.5506709218025208,-0.1035980731248855,-0.9354616718612612,-9.666206925565003,-1.3637255167350173,50,walking
1783066615304377000,4.8615986,-0.8090476342353969,-1.7682722398042678,0.5729086087822913,0.2472315728664398,0.665891170501709,-0.1626255810260772,-0.8933794568046927,-9.6805008238554,-1.2884759222224351,50,walking
1783066615324301000,4.8815226,-0.6862883197247982,-0.9194745597869156,0.0201106217451393,0.0187094882130622,0.7209701538085938,-0.1589840650558471,-0.8430079176347702,-9.686389297372102,-1.278113956553489,50,walking
1783066615344226000,4.9014476,-0.3392481753371655,-0.5375462035000323,-0.6692837011709809,-0.004823581315577,0.6616565585136414,-0.0745975226163864,-0.8011398567855358,-9.68823755558729,-1.2909687619514765,50,walking
1783066615364150000,4.9213716,-0.2474546385850757,0.0775479345828294,-1.3122298689059912,0.1708260178565979,0.5704666972160339,0.0253208354115486,-0.7814534518018365,-9.690417237713932,-1.2866757409326732,50,walking
1783066615384075000,4.9412966,-0.52762167940028,0.8553712131887674,-1.490630771943927,0.4042682349681854,0.5490607619285583,0.0325011126697063,-0.7745247485172003,-9.697157359623908,-1.2392083257064224,50,walking
1783066615404000000,4.9612216,-0.7543922072011977,1.4810995580106974,-1.307746147620678,0.5508065223693848,0.5983357429504395,-0.0320502966642379,-0.7608381684701889,-9.70877356313765,-1.153792653423175,50,walking
1783066615423924000,4.9811456,-0.7183972761690616,1.6966618785768746,-1.125641202433035,0.5941735506057739,0.641484797000885,-0.0970997586846351,-0.7345837832730263,-9.722474171710012,-1.0508375981222835,50,walking
1783066615443849000,5.0010706,-0.4713368975985795,1.6213824734479187,-1.1330131925057618,0.5163901448249817,0.6420873999595642,-0.1101465597748756,-0.7003254667751491,-9.73533131519556,-0.950391237706691,50,walking
1783066615463773000,5.0209946,-0.248801888475567,1.4114561129420995,-1.0563777696579697,0.3200956583023071,0.6740942001342773,-0.0601955018937587,-0.6710204618357122,-9.744325353512169,-0.8764909389112144,50,walking
1783066615483698000,5.0409196,-0.1484851457890123,1.298929803958535,-0.8709447029609233,0.0573114268481731,0.6961429119110107,0.0348165817558765,-0.6564155979000031,-9.747768771964312,-0.8488403501152991,50,walking
1783066615503622100,5.0608437,-0.0048228170465677,1.186626782336831,-1.1132335562806577,-0.1004264429211616,0.5714882016181946,0.1367463618516922,-0.6616629970341921,-9.746046185955406,-0.8643769419431686,50,walking
1783066615523547000,5.0807686,0.0797986361190676,1.0827467211455106,-1.4347867196470498,-0.1208913102746009,0.410814881324768,0.2503814697265625,-0.6906192616011947,-9.741376440578698,-0.8938737431276589,50,walking
1783066615543472000,5.1006936,0.0615827420793473,0.9125766169667244,-1.5855546426109968,-0.1097250804305076,0.3039900362491607,0.3418654501438141,-0.742284128517285,-9.735059512516855,-0.9208753664955496,50,walking
1783066615563396000,5.1206176,-0.0517792870759964,0.7269803955972194,-1.5873282281547785,-0.1311243623495102,0.2906398773193359,0.3582396209239959,-0.8062426598172634,-9.727382402017712,-0.9478319816779344,50,walking
1783066615583321000,5.1405426,-0.1913976741898805,0.7805489041775464,-1.5418074169516562,-0.1720529496669769,0.3319746255874634,0.2894145250320434,-0.8638466344587504,-9.719000942641497,-0.9824296131327748,50,walking
1783066615603245000,5.1604666,-0.0866139421571046,0.9420622391700744,-1.268819912377,-0.2187851667404174,0.409186989068985,0.2070691734552383,-0.903837357128784,-9.71082581949234,-1.0263216540902853,50,walking
1783066615623169800,5.1803914,0.4568983301404863,1.1361007101923226,-0.9660071053158492,-0.2760765254497528,0.4657872021198272,0.1746767312288284,-0.9297530849561094,-9.702254975023864,-1.0826815469548106,50,walking
1783066615643094000,5.2003156,0.9477445956554263,1.166876372206211,-0.8058480344764888,-0.283477634191513,0.4922048151493072,0.2189054787158966,-0.9564234305430204,-9.69232803977132,-1.1464739279076457,50,walking
1783066615663019000,5.2202406,1.1863558564409613,1.2915402782291172,-0.4951788148265331,-0.2610426545143127,0.5338881015777588,0.2600374221801758,-0.9909290728654712,-9.681271808227896,-1.2088944359853864,50,walking
1783066615682944000,5.2401656,1.4181087026990948,1.2024497898906468,-0.2089974090926349,-0.2359872162342071,0.5077204704284668,0.3008236587047577,-1.031594626057148,-9.669543961033224,-1.2673268973402678,50,walking
1783066615702868000,5.2600896,1.742024430478364,0.9268915580451488,0.0008617313958704,-0.21371391415596,0.4813467264175415,0.3817605972290039,-1.0842174512851983,-9.656599139264223,-1.3209645256340503,50,walking
1783066615722793200,5.2800148,1.8296522989183663,0.5991711772859096,0.1317975572951138,-0.174272671341896,0.5026005506515503,0.4500570297241211,-1.151644243217632,-9.642070263174176,-1.3691509027846156,50,walking
1783066615742717000,5.2999386,1.745572916740179,0.2950572975635528,0.2436390988849103,-0.1700124591588974,0.5322844982147217,0.4702874720096588,-1.225732173539698,-9.626459437066316,-1.4139547978900373,50,walking
1783066615762642000,5.3198636,1.6193227644391357,0.0717044692516326,0.2277070779986679,-0.1848088353872299,0.5430068969726562,0.443380743265152,-1.2986492334514856,-9.609604748377205,-1.4626659295670688,50,walking
1783066615782566100,5.3397877,1.4836530418857932,-0.0021399346381425,-0.0082322601638734,-0.0913132205605506,0.4860929548740387,0.3536139130592346,-1.3600522350497544,-9.594717560368776,-1.5040053634323178,50,walking
1783066615802491000,5.3597126,1.4364897241726515,-0.0990636008203029,-0.0814250682771205,0.0231925789266824,0.4557814002037048,0.267449676990509,-1.4035694513455033,-9.585332476907968,-1.5237375072538852,50,walking
1783066615822416100,5.3796377,1.2649376641161738,-0.2038566852033138,0.1033498998373746,0.185587391257286,0.5162782073020935,0.2192616015672683,-1.4364223580248654,-9.581395137459038,-1.5178740220479667,50,walking
1783066615842339600,5.3995612,1.2631006579473614,0.0393330624788999,0.1041862045310437,0.3394392728805542,0.5365199446678162,0.1378819942474365,-1.4547865744940935,-9.584117840421198,-1.482797740230709,50,walking
1783066615862264600,5.4194862,1.426017137736082,-0.0786743082642555,0.1288403149247169,0.4817891120910644,0.4442777037620544,0.046183131635189,-1.457889947336912,-9.593450901433824,-1.4179679790541528,50,walking
1783066615882188500,5.4394101,1.4439239658266303,-0.1285141517102718,0.3890374576397239,0.5356782078742981,0.3284290730953216,-0.0421617701649665,-1.4476647597901522,-9.607655952396987,-1.3295093588784337,50,walking
1783066615902113800,5.4593354,1.477871535874903,-0.0194867907583713,0.817606569070369,0.4665892422199249,0.3298067450523376,-0.105326734483242,-1.424750040409714,-9.622860535791515,-1.2413804090484977,50,walking
1783066615922037500,5.4792591,1.5590017128586768,0.0258498960494995,0.937280850112438,0.3293254971504211,0.3040773272514343,-0.1818764805793762,-1.3899112206101416,-9.636474635124204,-1.1734091349758209,50,walking
1783066615941962800,5.4991844,1.7344304682180285,-0.0802279674470424,0.9738545308806,0.1762115508317947,0.2354786992073059,-0.2660322189331054,-1.339686177238822,-9.64845967195034,-1.132619882339239,50,walking
1783066615961887500,5.5191091,2.117133023747801,-0.3825713303655386,0.8062036429811269,0.0167805515229702,0.1801498681306839,-0.2604468464851379,-1.2830528742603955,-9.657662384581563,-1.1196946420535443,50,walking
1783066615981811500,5.5390331,2.320303918644041,-0.422671870085597,0.6028280192930251,-0.0775402635335922,0.1417836844921112,-0.1955320388078689,-1.235131870047748,-9.662602763593195,-1.1308991960264745,50,walking
1783066616001736700,5.5589583,2.09605194953531,-0.4721358659565448,0.311948884196952,-0.0734376460313797,0.1284749656915664,-0.1660220474004745,-1.1986751667227595,-9.664913963145016,-1.1502188865896317,50,walking
1783066616021660700,5.5788823,1.6017223719492553,-0.6198100606888532,0.0337812735706567,0.0180197302252054,0.1331199705600738,-0.2737942636013031,-1.1555029644723982,-9.66897229862511,-1.1602529354784636,50,walking
1783066616041585700,5.5988073,1.2205139274347572,-1.22508481554687,-0.3601210136264562,0.1449127048254013,0.2551197707653045,-0.4288932383060455,-1.0831466071832925,-9.67870751069784,-1.148824436556548,50,walking
1783066616061509600,5.6187312,0.9936703343976288,-1.8656611854106184,-0.7004045233607292,0.3787745833396911,0.5125440955162048,-0.5648638606071472,-0.9784072988141328,-9.694442255446312,-1.109462001852691,50,walking
1783066616081434600,5.6386562,1.3511558118887246,-1.984470520186424,-1.2878414237111806,0.7892056703567505,0.5698671340942383,-0.6708389520645142,-0.8449317983694374,-9.718087919449806,-1.0075991987679154,50,walking
1783066616101359600,5.6585812,2.0515645730331538,-2.0921008738219737,-1.009227311426401,1.0406975746154783,0.5752872228622437,-0.5392864346504211,-0.7118591065719724,-9.745131409198043,-0.8343078938286751,50,walking
1783066616121283600,5.6785052,2.2948522281318904,-2.787369203338027,-1.0272346772819756,0.9519228339195251,0.3445709645748138,-0.2491218000650406,-0.6277396846443414,-9.765430100861192,-0.6424216324042529,50,walking
1783066616141208600,5.6984302,1.5137006818860768,-3.5113299588531253,-1.0786766221623867,0.6171485781669617,0.2458148896694183,0.0285388603806495,-0.6048016574535519,-9.775739313429591,-0.4893760468319058,50,walking
1783066616161132500,5.7183541,-0.4332276778262108,-3.223894242209196,-1.1872130577921869,0.1872154325246811,0.3970793187618255,0.0549677163362503,-0.6143851860959082,-9.778566061288116,-0.4154058246053755,50,walking
1783066616181057800,5.7382794,-2.08987939838022,-2.6361469607353207,-1.7597089941203594,-0.0430738218128681,0.6895589232444763,-0.1634051948785781,-0.6022507308617234,-9.779434076294304,-0.4127295180682093,50,walking
1783066616200982500,5.7582041,-2.928165036733448,-2.037504191237688,-2.4054841016709805,-0.033873189240694,0.7882174253463745,-0.5474189519882202,-0.5271167620854452,-9.782968095639347,-0.4313455904066562,50,walking
1783066616220906800,5.7781284,-2.9399034053221342,-0.922595906677842,-2.382632218393683,0.0571195296943187,0.954335868358612,-0.7981863617897034,-0.384146288064681,-9.78936218059063,-0.437288168730773,50,walking
1783066616240831500,5.7980531,-2.6713477457150816,0.5576315446734428,-2.118108006259799,0.1780903786420822,1.062225580215454,-0.8677526116371155,-0.2106723748338408,-9.795358790656923,-0.4206437617914751,50,walking
1783066616260755500,5.8179771,-2.152595966795087,2.3057447935462,-1.531850086560845,0.3237288892269134,1.0036107301712036,-0.7691057324409485,-0.0389963641707086,-9.79944752127528,-0.3737850530480965,50,walking
1783066616280680700,5.8379023,-1.3595207585215567,3.1820220166414974,-1.0394804108709097,0.4288547039031982,0.7394152879714966,-0.4724132120609283,0.0910427731837145,-9.80168974724412,-0.2982799859371036,50,walking
1783066616300604700,5.8578263,-0.9503154690567404,3.1040754381299016,-0.4975941323399543,0.2968188822269439,0.4171022772789001,-0.098998412489891,0.1490060369911137,-9.803051683247087,-0.2199183420849032,50,walking
1783066616320529700,5.8777513,-1.5071357704125343,2.954697946611047,0.2013292308186181,-0.1680030226707458,0.3717064261436462,0.1176960170269012,0.1443861312386579,-9.80346084856987,-0.204172162626963,50,walking
1783066616340454700,5.8976763,-2.0091940425544976,2.9274685789018866,0.4712082297176122,-0.6315059661865234,0.3878936171531677,0.1394841521978378,0.1213660883202217,-9.80182009562552,-0.2828147057797759,50,walking
1783066616360378600,5.9176002,-1.6029022293835875,2.2255144880115982,0.1726777030855417,-0.9267804622650146,0.3472162783145904,0.2670979797840118,0.0864747528821229,-9.79642905023694,-0.4391823484469205,50,walking
1783066616380303600,5.9375252,-0.9973671430889516,1.6833154902696608,-0.3369499083321541,-0.9545491337776184,0.2002605944871902,0.4502671360969543,0.0202335928209708,-9.786640062150358,-0.6258184342581778,50,walking
1783066616400227600,5.9574492,-0.8957589723523706,1.5222405466943978,-0.3840221136957407,-0.8475841283798218,0.0950815826654434,0.558649480342865,-0.0789803694055881,-9.773407655611631,-0.8029034323919564,50,walking
1783066616420152600,5.9773742,-1.180365676115453,1.4684464126646517,-0.3060088996887207,-0.7019352912902832,0.0587147809565067,0.4776536822319031,-0.1811869718261994,-9.758519883081316,-0.9533411004882304,50,walking
1783066616440076500,5.9972981,-1.0114503212381154,1.2429495580613612,0.1808955693978816,-0.6364258527755737,0.2927834093570709,0.3737167418003082,-0.2585239305394701,-9.743113055112955,-1.084108218757063,50,walking
1783066616460001800,6.0172234,0.0561375188181176,0.5066968917280436,0.3533674477130174,-0.5373557806015015,0.4879640936851501,0.4197792708873749,-0.3241383940866217,-9.72751508848667,-1.2003161388628183,50,walking
1783066616479926500,6.0371481,0.8841719218678772,-0.2001063927590846,0.5591355194956064,-0.424613356590271,0.5882181525230408,0.5126900672912598,-0.4005431865163147,-9.712187755495307,-1.297447748707235,50,walking
1783066616499850500,6.0570721,0.918538886372,-0.3776514096200466,0.6046596916995942,-0.2455333769321441,0.6748379468917847,0.5689575672149658,-0.4902761009441688,-9.69819722406566,-1.3693078469119966,50,walking
1783066616519775700,6.0769973,0.6327427536286413,-0.3594827157229185,0.5575077721633017,-0.0032837225589901,0.705054759979248,0.500802755355835,-0.5758804276673123,-9.689130120512845,-1.3998178437270223,50,walking
1783066616539699500,6.0969211,0.540365060313046,-0.5652028567105531,0.6563135988302529,0.1045084297657013,0.7334814667701721,0.3834090828895569,-0.6413702967204153,-9.68557096672654,-1.3959721280843018,50,walking
1783066616559624700,6.1168463,0.4429131324730813,-0.3377081062883138,0.788406193549186,0.1111034676432609,0.8300946354866028,0.2507079541683197,-0.6815851104699074,-9.68441945860386,-1.3848616821356117,50,walking
1783066616579549400,6.136771,0.6364996950093657,-0.176267252010107,0.7439958278059959,0.0264438893646001,0.8601277470588684,0.1337713450193405,-0.6941102455221116,-9.684103232261538,-1.3808534694075585,50,walking
1783066616599473700,6.1566953,1.020234004739672,-0.3568523672193288,0.9091868283979594,-0.2123012393712997,0.8757017254829407,0.0979605913162231,-0.6920788127597421,-9.68024071161449,-1.4086772958785294,50,walking
1783066616619398700,6.1766203,1.223950550819933,-0.3528530684500932,0.8294039743699133,-0.4422860145568847,0.7595868110656738,0.0532616786658763,-0.6822623521443456,-9.669573187127709,-1.484667041233927,50,walking
1783066616639322600,6.1965442,1.4119421428933738,-0.6598965718835592,0.7182365326493978,-0.5297881364822388,0.6747936010360718,0.0753528624773025,-0.6716849170938134,-9.653575407528876,-1.5898752822890876,50,walking
1783066616659247600,6.2164692,1.315468850827217,-1.126131689363718,0.3575602232277393,-0.4564131498336792,0.5808880925178528,0.08705835044384,-0.6670891137361527,-9.635804773038624,-1.696068734989315,50,walking
1783066616679171600,6.2363932,0.8542310301776975,-1.2263538125693798,0.1553220791369676,-0.3061040937900543,0.4595300555229187,-0.0104591688141226,-0.6573079436298459,-9.622222822409867,-1.7751494320973753,50,walking
1783066616699096600,6.2563182,0.5371306815017014,-1.3518214361906051,0.5126671983093023,-0.2609556913375854,0.4403759241104126,-0.0553713105618953,-0.6321506329543888,-9.61287397930622,-1.833967385638505,50,walking
1783066616719021600,6.2762432,0.4036377549981698,-1.8159633807837965,0.3238882552504539,-0.1973006129264831,0.3491500616073608,-0.0197127033025026,-0.611035510341823,-9.604528175765276,-1.884159841914475,50,walking
1783066616738945800,6.2961674,-0.4781417918404564,-1.643857340106368,-0.031344986334443,-0.1255609542131424,0.1114778667688369,-0.2154528647661209,-0.583836245509982,-9.59991220640242,-1.916038935125619,50,walking
1783066616758870500,6.3160921,-1.2057435707390307,-0.9789619370222092,0.5002743113346397,-0.167080745100975,0.1754590421915054,-0.4848392605781555,-0.5100010843725875,-9.598470775422454,-1.9441275500126185,50,walking
1783066616778794500,6.3360161,-0.562826008043997,-0.9951567004978656,0.5720689430877566,-0.3037071824073791,0.2944174408912658,-0.4628852605819702,-0.4047308474645018,-9.593799861001967,-1.9913820531405508,50,walking
1783066616798719700,6.3559413,-0.0418738695355132,-1.1196107631623744,0.4037335069902241,-0.3017573058605194,0.2626274228096008,-0.2742064595222473,-0.3221943473467603,-9.58321884575486,-2.056331349043548,50,walking
1783066616818644500,6.3758661,-0.0522620290916413,-0.9929834481120108,-0.1489823547214269,0.0836023762822151,-0.0191589742898941,-0.1307544857263565,-0.2781376904120669,-9.57906289511919,-2.0819646797329185,50,walking
1783066616838570200,6.3957918,-0.0841309297023341,-0.9886632468253372,-0.3489114912174642,0.5110033750534058,-0.204852819442749,0.0686623677611351,-0.2761963653522543,-9.59206149290204,-2.021497497680038,50,walking
1783066616858495000,6.4157166,-0.376034804736264,-0.8826713080465793,-0.048162704014033,0.6672539114952087,-0.1996069848537445,0.2953582108020782,-0.3193310303375125,-9.61485433946848,-1.9034107780903575,50,walking
1783066616878419200,6.4356408,-0.9699060124505312,-0.5168652345210314,0.2270401385225355,0.647948682308197,-0.1764945983886718,0.429925799369812,-0.3976319387121126,-9.636494508868456,-1.7748913656830787,50,walking
1783066616898344000,6.4555656,-1.304654757476598,-0.106900285795331,-0.1963110921293497,0.6239002346992493,-0.2844246029853821,0.3823368549346924,-0.4854598963014781,-9.65455915786922,-1.6505165057346225,50,walking
1783066616918268200,6.4754898,-1.4959759323641657,0.3600923720538616,-0.4033772408984601,0.6033326983451843,-0.2916338443756103,0.2093285769224167,-0.5530116297878325,-9.670842768672108,-1.5294916868664323,50,walking
1783066616938193200,6.4954148,-1.1364474778033793,1.0789438217312095,-0.2507727501571178,0.5159476399421692,-0.2460968494415283,4.27879858762e-05,-0.5803447135997936,-9.686398065200448,-1.4167888522721823,50,walking
1783066616958118100,6.5153397,-0.3603560644913464,1.720069057649374,-0.0039829321563243,0.2933859527111053,-0.2132545560598373,-0.0976565405726432,-0.5744300827285275,-9.698446814912558,-1.3343756497405468,50,walking
1783066616978042000,6.5352636,0.4824031756119802,2.052861919367313,-0.1887215137831866,0.0173013620078563,-0.18798828125,-0.0306729990988969,-0.5650030963547528,-9.70338310227096,-1.3021179324753582,50,walking
1783066616997967000,6.5551886,0.7968413558740168,2.0285060612678527,-0.4435936620831489,-0.2588456869125366,-0.1485879272222519,0.0479534119367599,-0.5714871611444279,-9.700276368427277,-1.3222795537553726,50,walking
1783066617017891000,6.5751126,0.6783402833297848,1.9594933153182268,-0.5529372493773699,-0.4764982163906097,0.0089781200513243,0.0753209143877029,-0.5863131204849109,-9.68932301273644,-1.394147104614228,50,walking
1783066617037816000,6.5950376,0.7194631518349051,1.9160189152508973,-0.9360409330539404,-0.5254023671150208,0.2856631875038147,0.0981368198990821,-0.598705532535538,-9.673380762717128,-1.495869257119298,50,walking
1783066617057741000,6.6149626,1.0773446429062634,1.908221977764368,-1.295917032008618,-0.3535459339618683,0.4908710420131683,0.1717518419027328,-0.6110738330582156,-9.65780266983509,-1.5886467634074388,50,walking
1783066617077665000,6.6348866,1.6439615311332043,1.5864438465356825,-1.6299083097308873,0.0078745428472757,0.4385935664176941,0.3029641509056091,-0.6407910355277359,-9.649067574715614,-1.6294976831033825,50,walking
1783066617097590000,6.6548116,2.038730810423196,0.5015466693580151,-1.6465305048383772,0.2112545520067215,0.4549869000911712,0.5297638177871704,-0.7051606318466365,-9.648145783695576,-1.608237452931702,50,walking
1783066617117514200,6.6747358,1.617944900214672,-1.030533134305477,-1.3489772988058626,0.1463692337274551,0.7114881873130798,0.669702410697937,-0.8069090878367423,-9.64446504935622,-1.582274013505131,50,walking
1783066617137439000,6.6946606,0.8760129461359232,-1.4526508776396512,-1.7670387524865567,0.1251801401376724,0.7649608850479126,0.3906134068965912,-0.8890313445977867,-9.639535191738604,-1.5682336515843869,50,walking
1783066617157363200,6.7145848,0.8952211391486227,-1.1766887411683795,-1.1755547687023875,0.0276027731597423,1.1180498600006104,0.1090603023767471,-0.9053964962042867,-9.6379201577574,-1.5687988842517138,50,walking
1783066617177288000,6.7345096,1.8001307286188006,-0.8196586792945861,-0.8848281938195228,-0.1374537795782089,1.519541621208191,0.0580594092607498,-0.8752206997796893,-9.635221420192718,-1.6021487806677817,50,walking
1783066617197213200,6.7544348,2.590823425669968,-0.1473071149855852,-0.5001714354820549,-0.3009534180164337,1.810052514076233,0.2433561533689499,-0.8460492580920458,-9.625675593212248,-1.6736141804665323,50,walking
1783066617217137200,6.7743588,2.9144010075360534,-0.0605015227138996,-0.666897244425863,-0.3373148143291473,1.754516839981079,0.5387359857559204,-0.8588294638838618,-9.607732524764538,-1.7675570772722362,50,walking
1783066617237062000,6.7942836,1.8546137216955425,-0.0450730674356222,-0.8043000743821263,-0.2531961500644684,1.5917301177978516,0.5316991209983826,-0.9069587040197103,-9.58739817726612,-1.8519168838270008,50,walking
1783066617256986000,6.8142076,0.5047463421821594,0.2226309437781572,-0.445602079296112,-0.294609397649765,1.770996332168579,0.3034420609474182,-0.9255272839546204,-9.569444587424396,-1.933785458087921,50,walking
1783066617276911000,6.8341326,0.3335194224268197,0.6399187827378511,-0.4333239047423005,-0.409128189086914,1.8539085388183596,0.0552940964698791,-0.8846347901392727,-9.55308381973207,-2.0313575051762163,50,walking
1783066617296836000,6.8540576,0.7125325488541275,0.9764753809034824,0.2865095417097211,-0.5870672464370728,1.8682233095169067,0.0608772709965705,-0.814585175422579,-9.531106965723634,-2.1598225570477543,50,walking
1783066617316760000,6.8739816,0.843084782263264,0.9409352809667588,-0.3787152394592761,-0.5004556179046631,1.5012943744659424,0.1301576197147369,-0.7565941011596471,-9.504545706534383,-2.293812363690137,50,walking
1783066617336685000,6.8939066,0.5780232483822852,0.9982242713749409,-0.6794225256085396,-0.2703431248664856,1.1846082210540771,0.1764990538358688,-0.7258652739621698,-9.48417278059125,-2.386202770356834,50,walking
1783066617356609000,6.9138306,-0.1799543430250137,1.5057973614156246,-0.5583738874733448,-0.1375894397497177,1.1838253736495972,0.0735520720481872,-0.6936299877244979,-9.472952298396825,-2.4397652875877918,50,walking
1783066617376534000,6.9337556,-0.2683557531207799,1.956844262114167,0.000964168857038,0.1261846274137497,1.2783154249191284,-0.0079691391438245,-0.6324626945782452,-9.472244442388416,-2.4590613780796526,50,walking
1783066617396459000,6.9536806,0.4321014868078753,0.8257020511120557,-1.0188520488619803,0.4836129248142242,0.9078561663627625,0.136240005493164,-0.5890713331518694,-9.48597836870849,-2.4165279121242462,50,walking
1783066617416383000,6.9736046,0.3766970680372789,0.3643178807944059,-0.9837015327647328,0.809486985206604,0.700324296951294,0.2444120198488235,-0.5917265238357707,-9.514209606936571,-2.30219060819596,50,walking
1783066617436308200,6.9935298,0.0327562779044732,0.29606968947649,-0.6978881566256284,0.9985899329185486,0.6089491844177246,0.1548586189746856,-0.6013792452568189,-9.55250163592994,-2.135050665493309,50,walking
1783066617456232200,7.0134538,0.0213816280616447,-0.3719032213568687,-0.674518679215014,0.9604132771492004,0.5431803464889526,0.116098366677761,-0.6033222690833732,-9.591565818339586,-1.9514714830346405,50,walking
1783066617476157200,7.0333788,-0.0836121299926191,-0.8391437164872885,-0.3654353405170142,0.7120000123977661,0.5025787949562073,0.0837620720267295,-0.6036734206086024,-9.622020577836036,-1.7951818740397691,50,walking
1783066617496081200,7.0533028,-0.222221924585849,-0.8508154495805501,0.0312258899994194,0.3039594292640686,0.5689632892608643,-0.0151865519583225,-0.5922554430807009,-9.63952759295404,-1.7026776317350565,50,walking
1783066617516006000,7.0732276,-0.0394402857130393,-0.7412941676318645,0.0879630917437374,-0.1160641387104988,0.5891385674476624,-0.1611479073762893,-0.5559675569839775,-9.64355436425209,-1.6920780579179524,50,walking
1783066617535931100,7.0931527,0.3950088236669078,-0.6603811405301093,-0.361992068195343,-0.3251429498195648,0.4462484419345855,-0.2524622678756714,-0.4952659451207146,-9.6375291126132,-1.744456333800405,50,walking
1783066617555855000,7.1130766,0.7170859013095497,-0.9133499394267796,-0.5271760545246302,-0.2528322339057922,0.3562681674957275,-0.1543771773576736,-0.4407051375674083,-9.62861866092682,-1.8071705641277132,50,walking
1783066617575780000,7.1330016,0.4484859641693532,-0.7904863608241081,-0.500374556838721,-0.0202945303171873,0.3456948697566986,-0.1152946501970291,-0.4031458067627623,-9.62473977366686,-1.836366263473779,50,walking
1783066617595704000,7.1529256,0.322189378910698,-0.7171551671534776,0.0100200203634798,0.1172468811273574,0.4986744523048401,-0.082948699593544,-0.3688761286206543,-9.6277412935704,-1.8278171924456952,50,walking
1783066617615629300,7.1728509,0.446535049297288,-0.9252654181480408,0.1690345242775976,0.0913629755377769,0.6325336694717407,-0.0301350280642509,-0.3364018459953367,-9.632414546078444,-1.809362082822621,50,walking
1783066617635554000,7.1927756,0.4708287654133513,-1.3262287297725677,0.2584609665721655,-0.1663561165332794,0.6100781559944153,0.0011873114854097,-0.3126618547718972,-9.631732993555069,-1.8172361771985888,50,walking
1783066617655478000,7.2126996,0.353015894328989,-1.4389204584509134,-0.2593897718548774,-0.5717713236808777,0.3750063180923462,-0.040836788713932,-0.2889711277839727,-9.618400633773208,-1.8903040437579155,50,walking
1783066617675403000,7.2326246,-0.168567491287738,-1.471991537925601,0.0671983900040388,-0.8794518113136292,0.4876593351364136,-0.0044368472881615,-0.2701699081369675,-9.589519407203792,-2.0343346212908626,50,walking
1783066617695327000,7.2525486,-1.014756523176655,-0.4752355855375528,-0.4354553638130426,-0.9179614782333374,0.4758597314357757,-0.1966540962457656,-0.2326225052321329,-9.550933363699912,-2.212681163793057,50,walking
1783066617715252200,7.2724738,-1.3474357684522866,0.2535983289718628,-0.527483366908133,-0.8280518651008606,0.4499050378799438,-0.4277122020721435,-0.1507359021241776,-9.512274254959822,-2.379974981883168,50,walking
1783066617735176200,7.2923978,-1.0867156247764824,0.5966197392374277,-0.4993620187953114,-0.7810251116752625,0.5215779542922974,-0.4815718233585357,-0.0370628251251298,-9.473869413241744,-2.5327444539278745,50,walking
1783066617755101200,7.3123228,-0.6597229688823223,0.6397381654739379,-0.5235466119810939,-0.676838755607605,0.6014736294746399,-0.2953585386276245,0.0686544111983617,-9.435585567554831,-2.671216228289902,50,walking
1783066617775026200,7.3322478,-0.4103018159972503,0.9065262308865784,-0.848495774461329,-0.4581853747367859,0.470287561416626,-0.0887195318937301,0.133322556638997,-9.404147642239929,-2.7775229321062564,50,walking
1783066617794950000,7.3521716,-0.4890973760209977,1.3096417521089314,-0.5338797899469733,-0.2450484931468963,0.4756090641021728,0.0688014179468154,0.1607926377688534,-9.384085681942103,-2.8431413594424724,50,walking
