time,seconds_elapsed,acc_x,acc_y,acc_z,gyr_x,gyr_y,gyr_z,grav_x,grav_y,grav_z,fs_hz,activity
1783066672883570000,0.0,0.1274544500568881,-0.1869943977296352,0.8436347442962229,0.0117212645709514,-0.1374654918909073,-0.0435442626476287,-0.6022546398518607,-9.657513331499697,-1.5937679058134555,50,walking
1783066672903494000,0.019924,0.388632310904935,-0.0447965885818004,0.6554740792661905,-0.0012285965494811,-0.2490687221288681,0.0167787447571754,-0.606504771577008,-9.657556001597642,-1.5919064958557485,50,walking
1783066672923419000,0.039849,0.213009713473916,-0.0288537540405988,0.6773853206925093,-0.0073313033208251,-0.274344265460968,0.0042971707880496,-0.6179292153783142,-9.657339143976568,-1.5888278190627694,50,walking
1783066672943343900,0.0597739,0.1826178631458431,-0.0178986447840929,0.7304962947636843,0.0023272554390132,-0.2838955819606781,-0.0061333361081779,-0.6262934313587843,-9.657219901511072,-1.5862736045353114,50,walking
1783066672963268900,0.0796989,0.2986901011079549,-0.2533651047378778,0.7667547721028327,0.0286967381834983,-0.2708629071712494,0.0183601528406143,-0.6359733330477029,-9.657731942686436,-1.5792866682574151,50,walking
1783066672983193900,0.0996239,0.3259589971099049,-0.3417120812326669,0.6740824797548354,0.0239448864012956,-0.2844211161136627,0.0041219405829906,-0.6481288310699165,-9.65841875590682,-1.5701125971987842,50,walking
1783066673003117800,0.1195478,0.1796717266913503,-0.2323947974234819,0.7858480334989726,0.0264624189585447,-0.2793634235858917,-0.0339338071644306,-0.6534245993904769,-9.659400168159603,-1.561868646597117,50,walking
1783066673023042800,0.1394728,0.2107186799272895,-0.3087631668329239,0.7024310607522726,-0.0034319753758609,-0.2355993539094925,-0.0370863080024719,-0.6542444644059986,-9.66039327085018,-1.555365548313409,50,walking
1783066673042967800,0.1593978,0.2773330594982952,-0.2040396405547857,0.6995182420454918,-0.0257024895399808,-0.3229964077472687,-0.0708638578653335,-0.6536716329541057,-9.660371643540262,-1.555745049150288,50,walking
1783066673062892800,0.1793228,0.1767810467511415,-0.1550263110607862,0.6491836008198559,-0.0175114795565605,-0.3120193779468536,-0.121776707470417,-0.6443985585004091,-9.6610496889323,-1.555388783058524,50,walking
1783066673082816800,0.1992468,0.2132657340615987,-0.0162730894088745,0.6567157498903572,-0.0007915224414318,-0.300945371389389,-0.1342682242393493,-0.6276121858071535,-9.662435590332748,-1.553643108434975,50,walking
1783066673102742000,0.219172,0.3994406321018934,0.0077799863517284,0.6093260760754347,0.0417908988893032,-0.3425547480583191,-0.1138232126832008,-0.6141706665623933,-9.664493107384445,-1.5462071132153272,50,walking
1783066673122666800,0.2390968,0.3539731950538233,0.1291600483983755,0.4940246032901108,0.0603097192943096,-0.4044591188430786,-0.1414274126291275,-0.6010249884590506,-9.667808515542744,-1.5305644306644797,50,walking
1783066673142592000,0.259022,0.1669809892812743,0.1336117671102285,0.7371428931713104,-0.0085413949564099,-0.3696218430995941,-0.123206228017807,-0.5877620041189715,-9.670165892323851,-1.520795024061203,50,walking
1783066673162516700,0.2789467,0.2158410644423216,0.1526326939225196,0.6338268956035376,-0.0452199727296829,-0.353091150522232,-0.0821325853466987,-0.5772158409895375,-9.670482118666172,-1.5228240456707776,50,walking
1783066673182440700,0.2988707,0.3292073679139837,-0.1078518874317407,0.415461792576313,-0.0554395169019699,-0.4074738025665283,-0.015558959916234,-0.5804490142244846,-9.669469142231344,-1.5280170842692256,50,walking
1783066673202366000,0.318796,-0.0467867029530927,-0.09953530998528,0.4363204562097788,-0.0576237887144088,-0.4312134385108948,-0.0474205799400806,-0.5887243463451043,-9.66805927543342,-1.533762934444845,50,walking
1783066673222290700,0.3387207,-0.1798907032042741,-0.1668085187911987,0.5230133818872272,-0.0615797452628612,-0.3932536542415619,-0.0928250178694725,-0.5871516902009025,-9.667074940571188,-1.5405490874536334,50,walking
1783066673242216000,0.358646,0.010025975180231,-0.171483524864912,0.4799000702172517,-0.0687155127525329,-0.3534355461597442,-0.0860621184110641,-0.5808935431215911,-9.66614145911336,-1.54876162000373,50,walking
1783066673262140000,0.37857,0.2596132053472101,-0.1791413461416959,0.5445004065521061,-0.0609782859683036,-0.2839628756046295,-0.0189569145441055,-0.5807354664830491,-9.664618195068837,-1.5582950258940458,50,walking
1783066673282065000,0.398495,0.5193323918195442,-0.0768646284937858,0.2701075652241707,0.0430962815880775,-0.3473859131336212,-0.0106710884720087,-0.5880160884778947,-9.664244101059436,-1.557888929311186,50,walking
1783066673301990000,0.41842,0.4671005752030759,-0.0691588764220476,0.289265124028176,0.1315466314554214,-0.3233106434345245,-0.0220992490649223,-0.5957890240343288,-9.667312256458402,-1.5357468017384408,50,walking
1783066673321915000,0.438345,0.3672463719943538,-0.072076809695363,0.4616045350700616,0.1487423330545425,-0.2668016254901886,-0.0533525384962558,-0.5976883913822472,-9.672024671933054,-1.5050275460869074,50,walking
1783066673341840000,0.45827,0.429765481608361,0.0426285968929529,0.4775836099684238,0.1456086188554763,-0.2581730484962463,-0.0832082107663154,-0.5919726440839469,-9.67719535256922,-1.4737215765886007,50,walking
1783066673361763800,0.4781938,0.7099521039068698,0.1350795015752315,0.5181774861633778,0.0662619546055793,-0.2729200720787048,-0.0695966631174087,-0.5845556092930957,-9.68121043342948,-1.4501207746401428,50,walking
1783066673381688800,0.4981188,0.854142840437591,0.303593070718646,0.4512286870062351,-0.0128919826820492,-0.3130700886249542,-0.0412327609956264,-0.5824010981403291,-9.682579383695124,-1.441829477765411,50,walking
1783066673401613800,0.5180438,0.8902015574209392,0.4200935440301895,0.3987694548420608,-0.0924920290708541,-0.2988062500953674,0.0026951106265187,-0.5876345418144017,-9.681315647369622,-1.4481779700092972,50,walking
1783066673421538800,0.5379688,0.8849123649716377,0.4244879795968532,0.3296159852474927,-0.1351379305124282,-0.30935138463974,0.0422270521521568,-0.6006009543607012,-9.67747884568572,-1.4683582959897816,50,walking
1783066673441462800,0.5578928,0.8470242406040429,0.3730091367721557,0.1859013417959213,-0.1203125938773155,-0.2998583614826202,0.0676769763231277,-0.6204728354465217,-9.67298621044159,-1.489544291881472,50,walking
1783066673461387800,0.5778178,0.7613019865896552,0.2988911766380071,0.2069628345251083,-0.0907764211297035,-0.2172394096851349,0.1083511263132095,-0.6445848017875104,-9.66874901126325,-1.5067154991738498,50,walking
1783066673481312800,0.5977428,0.7705738919995725,0.2418020927160978,0.1615033981204033,-0.0487022027373313,-0.208762526512146,0.1214824169874191,-0.6736086516980081,-9.66508055188358,-1.517519655652344,50,walking
1783066673501237800,0.6176678,0.6946217752408236,0.1622556777924299,0.1719651709020137,-0.0082115503028035,-0.1991726011037826,0.0985525324940681,-0.7018043071560561,-9.662747140499947,-1.51960186875388,50,walking
1783066673521162800,0.6375928,0.6055730802174657,0.0961041664928197,0.2761059288561344,-0.0040357816033065,-0.1593718826770782,0.0934428945183754,-0.7249840341482311,-9.661388711628318,-1.5173495597824451,50,walking
1783066673541087000,0.657517,0.7183594283767044,-0.1267260992497205,0.475214542749524,-0.061267115175724,-0.1075151190161705,0.1313590854406356,-0.7515791225418448,-9.658824998620153,-1.520732334088534,50,walking
1783066673561011700,0.6774417,0.6926664033893496,-0.1319581546843052,0.5015121825665235,-0.1553797721862793,-0.1174586415290832,0.1022047623991966,-0.7775109977863729,-9.653742580789327,-1.539847515055537,50,walking
1783066673580937000,0.697367,0.7355501440871507,-0.0478577297180891,0.6194383047670126,-0.1931200325489044,-0.0973416492342948,0.0832343995571136,-0.79824815393202,-9.646713705065846,-1.572928823663294,50,walking
1783066673600861700,0.7172917,1.0338916509531435,0.0252840788602828,0.3672685472935438,-0.1309192180633545,-0.1285788714885711,0.1100467443466186,-0.8196106023691594,-9.639949033236505,-1.603125809006393,50,walking
1783066673620786000,0.737216,0.8571328160338103,-0.0544137272328138,0.4870547642774879,-0.114998959004879,-0.0384286642074584,0.1057259291410446,-0.8448626055907458,-9.63417161887884,-1.6245992435373364,50,walking
1783066673640711000,0.757141,0.8059657425720245,0.1261602820605039,0.6847989579498768,-0.1246898174285888,-0.0040173032321035,0.0996647775173187,-0.8637259306885302,-9.6285970336169,-1.6475674466706811,50,walking
1783066673660636000,0.777066,1.045535838452354,-0.0856546686708927,0.596013005515933,-0.1353379935026168,-0.0229584276676177,0.1290333420038223,-0.8864711387209594,-9.62238415045142,-1.6716079552106555,50,walking
1783066673680561000,0.796991,0.8570679341040551,0.016708558216691,0.6326128436386584,-0.179270714521408,-0.0301401689648628,0.0601360388100147,-0.9070468937598168,-9.615362288990616,-1.7007259131453931,50,walking
1783066673700486000,0.816916,0.7162449204407632,0.0855506237745285,0.7941413762003183,-0.2006054520606994,0.0106995301321148,-0.00040273644845,-0.912569602704048,-9.608188451838492,-1.73790574311316,50,walking
1783066673720409900,0.8368399,0.9203801303245128,0.019272855746746,0.5355751956880093,-0.1705773323774337,0.0322811193764209,-0.0139909163117408,-0.9093068015158176,-9.601765725314616,-1.7747243385531006,50,walking
1783066673740334800,0.8567648,1.1323823472563177,0.0607137041598558,0.4160201571114361,-0.100238025188446,0.0789469853043556,0.0052701495587825,-0.9059806527677924,-9.59711760724783,-1.801365092719346,50,walking
1783066673760259800,0.8766898,1.0295445616595449,-0.0956307037621736,0.4224678719460964,-0.0486239753663539,0.1638623774051666,-0.0169868040829896,-0.9013050621721892,-9.594451602908968,-1.8178386731363831,50,walking
1783066673780184800,0.8966148,0.987749858307466,-0.0866986247658729,0.4836433483988046,0.0482441000640392,0.2029264271259308,-0.0668893828988075,-0.8862954898931086,-9.595003976094722,-1.8223014977641403,50,walking
1783066673800108800,0.9165388,1.085646972631663,-0.3521247541755438,0.3138904467187822,0.1726800948381424,0.2811046540737152,-0.0624035261571407,-0.8649315801512449,-9.600273440930248,-1.8047296007163824,50,walking
1783066673820033800,0.9364638,1.1027325474672018,-0.504362895822525,0.4630705159693956,0.2489456981420517,0.3845574855804443,-0.0256816297769546,-0.8437099284242838,-9.608595279073716,-1.7701548386804755,50,walking
1783066673839958800,0.9563888,1.262136050698906,-0.7803080811589956,0.4427484434306621,0.2540579736232757,0.3712356388568878,0.0365098714828491,-0.8310302603974938,-9.617560091295838,-1.726938358896971,50,walking
1783066673859883800,0.9763138,0.9708239310130476,-0.9657681089282036,0.4475586201913654,0.1587963700294494,0.3284356892108917,0.0234051197767257,-0.8261242220468819,-9.62438379983604,-1.6908977620922028,50,walking
1783066673879808000,0.996238,0.4865842241562902,-1.09216629139781,0.7339606098733842,-0.0133548397570848,0.4055050313472748,-0.0121544022113084,-0.8147394892014562,-9.62682534776926,-1.682513233976066,50,walking
1783066673899733000,1.016163,0.2558998108472675,-1.01534667108953,0.4846436114825308,-0.1483758985996246,0.3834563493728637,-0.07851392775774,-0.7929491707410663,-9.624484337601064,-1.706135224843025,50,walking
1783066673919658200,1.0360882,0.287571764113754,-0.7115905187636613,0.2918355590380728,-0.1789195984601974,0.3822467923164367,-0.0860865861177444,-0.7631197766013443,-9.619987610703706,-1.7446672000721095,50,walking
1783066673939583000,1.056013,0.3912237156376242,-0.4671212526649236,0.0472932277031242,-0.1252644211053848,0.4217661619186401,-0.0406435020267963,-0.7361384653691202,-9.615459319624303,-1.780844574999064,50,walking
1783066673959508200,1.0759382,0.37319706055969,-0.4354886815607547,-0.0825173935584723,-0.0280456338077783,0.4611030519008636,0.026434801518917,-0.7193087649907917,-9.612675826385615,-1.802616554085165,50,walking
1783066673979432200,1.0958622,0.0724428665287792,-0.4843915364176034,-0.2022076028220355,0.1567270457744598,0.4615573287010193,-0.002359066158533,-0.706756449670717,-9.61449953468144,-1.7978484629005194,50,walking
1783066673999357000,1.115787,-0.3245037568002939,-0.4660620990008115,-0.0977909505359828,0.3174557089805603,0.5155749320983887,-0.1094838231801986,-0.6789658678822219,-9.624000937998296,-1.7572658387519418,50,walking
1783066674019282200,1.1357122,-0.4189005348533391,-0.3506096734374761,0.0853608002908527,0.4044107496738434,0.5155225992202759,-0.2197371870279312,-0.6284130538612603,-9.638747256231309,-1.6941142399206757,50,walking
1783066674039207200,1.1556372,-0.3132736299946904,-0.1753787787377834,0.1743535273432731,0.4561901688575744,0.4795698821544647,-0.2835280001163482,-0.5627047928171232,-9.656111063486335,-1.6165608985103666,50,walking
1783066674059131100,1.1755611,-0.2550342800591141,0.1250438452512025,0.2847762881763279,0.4567295908927917,0.5142879486083984,-0.2979837357997894,-0.4910587026892229,-9.673718031847477,-1.5324546283252536,50,walking
1783066674079056100,1.1954861,-0.3088687095666304,0.5110194311022758,0.3428988067992031,0.4250341653823852,0.5293751358985901,-0.3349060416221618,-0.4147786326177418,-9.689639823600649,-1.4523117088131603,50,walking
1783066674098981000,1.215411,-0.2442969782717526,0.8386649930596352,0.1682651473402976,0.3962906301021576,0.5175877809524536,-0.3107998967170715,-0.3361472867123782,-9.70379519020319,-1.3761401771500703,50,walking
1783066674118906000,1.235336,-0.1257170866039581,1.0201707302451133,-0.0467506452590227,0.3147138655185699,0.469674676656723,-0.234141394495964,-0.2697750453341752,-9.715013334310054,-1.3100136541612446,50,walking
1783066674138830000,1.25526,0.1299863614209927,1.236899756503105,-0.2078494081012904,0.2175111770629882,0.4569864571094513,-0.0738400742411613,-0.2265027071775868,-9.722698043593764,-1.26024512238577,50,walking
1783066674158755000,1.275185,0.2411228234813548,0.9677122287333012,-0.4227605712823569,0.109825998544693,0.5088156461715698,0.130948930978775,-0.2212209308497607,-9.726599142685531,-1.230735242523998,50,walking
1783066674178680000,1.29511,0.1374521855233237,1.02038232716918,-0.816620261446759,0.0579112991690635,0.4790398478507995,0.2853783965110779,-0.2496803152779117,-9.727644267824292,-1.2169544813875108,50,walking
1783066674198605000,1.315035,-0.0899671433088369,0.7112322068452834,-0.9911211613714694,0.0623276941478252,0.424485981464386,0.3884056806564331,-0.3059738101090304,-9.727047470974922,-1.2088507429741322,50,walking
1783066674218530300,1.3349603,-0.3086194840459152,0.6407587406933307,-1.2672329354465006,0.0774169713258743,0.3821440041065216,0.3844700157642364,-0.3714833154443651,-9.72630454365313,-1.1964002075280993,50,walking
1783066674238454000,1.354884,-0.4105894007669761,0.3115717945128679,-1.1601876882225275,0.063506118953228,0.4822003245353699,0.4390290379524231,-0.4411478398336097,-9.724525259020924,-1.1871769635654985,50,walking
1783066674258379300,1.3748093,-0.186005204029195,0.2659644740700722,-1.3076555467277764,0.0856032595038414,0.5108311176300049,0.4566776156425476,-0.5166929832266643,-9.72201356846094,-1.177226355176419,50,walking
1783066674278304000,1.394734,-0.1785000525634735,0.2655307588279247,-1.262320028963685,0.0434141419827938,0.5714374780654907,0.4122228026390075,-0.5894401664642617,-9.718886376351117,-1.168842484647408,50,walking
1783066674298229200,1.4146592,-0.1544950537282973,0.3340688730031251,-1.234188743978739,-0.0469884574413299,0.6838265061378479,0.3705950379371643,-0.6492085160654038,-9.714102064684033,-1.1769218192718922,50,walking
1783066674318153200,1.4345832,0.2697917772732675,0.2146861222535371,-1.3605267206937073,-0.0915922001004219,0.8011872172355652,0.4630310535430908,-0.7109233600918203,-9.706797879150509,-1.2012692018039524,50,walking
1783066674338078000,1.454508,0.7569415994230657,0.3571294305950403,-1.6132302927829325,-0.0192045699805021,0.8299095034599304,0.5727458596229553,-0.7916576696258038,-9.69736018871963,-1.2267420812346042,50,walking
1783066674358003200,1.4744332,0.7687375434178858,0.4037859678298234,-1.720366433160752,0.1517767459154129,0.872317373752594,0.6047472357749939,-0.8851555260777473,-9.68894774968326,-1.2292903044126926,50,walking
1783066674377928000,1.494358,0.6626026159718632,0.4431733908444643,-1.6488466728262603,0.3002713620662689,0.9333063960075378,0.5920065641403198,-0.9784875975087284,-9.683443891569972,-1.2015998950630429,50,walking
1783066674397853200,1.5142832,0.592832183522731,0.1031225208222866,-1.470069776082784,0.35706827044487,1.052970290184021,0.5838595628738403,-1.0689793309472502,-9.679331780076026,-1.156818504050374,50,walking
1783066674417777200,1.5342072,0.6160994426678866,-0.0204155960410833,-1.340959850436449,0.3686857223510742,1.097057223320007,0.521463930606842,-1.1512036598432809,-9.67535293957293,-1.110253809817508,50,walking
1783066674437702100,1.5541321,0.740608815716207,-0.076196519973874,-1.1798971087556331,0.3237894475460052,1.111232876777649,0.4712086021900177,-1.2231898686457423,-9.671196404415369,-1.06870687068142,50,walking
1783066674457627100,1.5740571,0.8813101026959717,0.1120920092195272,-1.0417179606646298,0.2435026913881302,1.1875938177108765,0.4226253628730774,-1.2853317789778114,-9.666004096469283,-1.0424348036970943,50,walking
1783066674477552000,1.593982,1.1205568118408322,0.3050432695269584,-0.953558542631194,0.1947555392980575,1.2421085834503174,0.3987736999988556,-1.3391773509338498,-9.659637484046817,-1.0336287622332572,50,walking
1783066674497476000,1.613906,1.2238193256556986,0.5292787258923053,-0.939181057710573,0.189095064997673,1.2492917776107788,0.3470005691051483,-1.3854276454553007,-9.653431030622125,-1.0306483581829815,50,walking
1783066674517401300,1.6338313,1.1782188733451069,0.5618640676766634,-0.8849990203417837,0.1569714397192001,1.2423332929611206,0.2744034230709076,-1.418985923925042,-9.64845908742845,-1.0315594086132942,50,walking
1783066674537326000,1.653756,1.3325614399254322,0.368616454771161,-0.7493764979310333,0.1064117476344108,1.3289180994033811,0.3030483722686767,-1.4459870358362794,-9.643156304845212,-1.0435812703184784,50,walking
1783066674557251300,1.6736813,1.6528228829808531,0.1573071154743432,-0.973385159803182,0.1407757699489593,1.3302959203720093,0.3854832053184509,-1.4846303624853492,-9.635354106661676,-1.0612377038445322,50,walking
1783066674577175000,1.693605,1.475848213353753,0.0881710354059934,-1.239258156197518,0.2607862055301666,1.2112770080566406,0.3458155393600464,-1.5303160088613628,-9.628165656462311,-1.061569273886457,50,walking
1783066674597100000,1.71353,0.8726599093809724,-0.0691343265026807,-0.9444523491770028,0.3357206881046295,1.224254846572876,0.238697737455368,-1.5603941901303826,-9.625736383488771,-1.0395927121389656,50,walking
1783066674617025000,1.733455,0.7765786853723228,-0.4909837742894887,-0.7312889064460992,0.3188607692718506,1.200711965560913,0.1623702645301818,-1.573997768069059,-9.626164253512025,-1.014832364891842,50,walking
1783066674636950000,1.75338,0.6820236480176448,-0.7518880423605442,-0.7254687489252537,0.2626782953739166,1.1504439115524292,0.070280946791172,-1.573414853614569,-9.628322308328746,-0.9950647844307124,50,walking
1783066674656875000,1.773305,0.5961579669445752,-0.603771364557743,-0.5520435154080391,0.1772130280733108,1.144984245300293,-0.0294225364923477,-1.553239788331091,-9.632338558232783,-0.9878772840794176,50,walking
1783066674676799000,1.793229,0.821626472236216,-0.5792728831171989,-0.3779313956052064,0.031254444271326,1.0821576118469238,-0.0581168979406356,-1.5217808202281593,-9.63603741275072,-1.0006797017030418,50,walking
1783066674696724200,1.8131542,0.894166953920573,-0.3030804450213909,-0.3115330699376761,-0.1003932878375053,0.961950659751892,-0.0939840525388717,-1.4867315725483,-9.63734440369606,-1.0399936210900544,50,walking
1783066674716649000,1.833079,0.9171642370179296,-0.1447515852838754,-0.3910550810724497,-0.1355105489492416,0.9076953530311584,-0.123233288526535,-1.4456845457583665,-9.63795639811456,-1.090955746564269,50,walking
1783066674736574200,1.8530042,0.9350734031960368,-0.0486678770571947,-0.5551502492517233,-0.1172912865877151,0.897906482219696,-0.1225247159600257,-1.4019427269265057,-9.638571315142512,-1.141440463785082,50,walking
1783066674756498200,1.8729282,0.932958310738206,0.1227414135277271,-0.6550206364102661,-0.0262828394770622,0.8821296095848083,-0.1547019928693771,-1.355235482417792,-9.640592007315158,-1.1801349360994997,50,walking
1783066674776423200,1.8928532,0.9992492305085062,0.1990267808288335,-0.7566637323297559,0.062883011996746,0.8931981921195984,-0.1771700233221054,-1.3018169037021696,-9.645649875226615,-1.1988006197333336,50,walking
1783066674796348200,1.9127782,0.9753362938709556,0.1212456220120191,-0.6844248639404773,0.1204660758376121,0.8792203664779663,-0.2150406688451767,-1.2436365174122157,-9.65271206869781,-1.2037024933654814,50,walking
1783066674816273200,1.9327032,1.097541627760604,0.0324894801944494,-0.700164284864068,0.1822618246078491,0.8879532814025879,-0.2076029181480407,-1.1802912226397544,-9.661669282135367,-1.1955949555598198,50,walking
1783066674836197000,1.952627,1.1951434854652732,-0.4883282913446426,-0.7691431285440922,0.2460956871509552,0.9073354601860046,-0.1514700949192047,-1.124364825821668,-9.670867903113365,-1.1749488386984914,50,walking
1783066674856122000,1.972552,0.911862623478472,-0.7397703190654515,-0.8068283507507293,0.3197669088840484,0.9423240423202516,-0.1223525553941726,-1.0775111585795878,-9.680243634223938,-1.141154121124372,50,walking
1783066674876047000,1.992477,0.6016697161033749,-0.9881319164276122,-0.8981694675602019,0.3821892142295837,0.9063878059387208,-0.1565169394016266,-1.030830509816855,-9.6909064825356,-1.0927588504634798,50,walking
1783066674895972000,2.012402,0.509381600767374,-1.16195469789505,-0.975513842394948,0.4141474664211273,0.8393780589103699,-0.1808920800685882,-0.9781960672162472,-9.702931851372124,-1.03277236459963,50,walking
1783066674915896000,2.032326,0.5582586635958403,-1.4403542906463145,-1.1421983694802968,0.4137929677963257,0.780890703201294,-0.1384723484516143,-0.9307067324191332,-9.714380881625411,-0.9669432901874184,50,walking
1783066674935821000,2.052251,0.2429449060756713,-1.6974311093837022,-1.127982797123119,0.2623415291309356,0.8102932572364807,-0.1192152053117752,-0.8925219631925225,-9.72305986264348,-0.9142711459249258,50,walking
1783066674955746000,2.072176,-0.389018752939254,-1.491989785337448,-0.9069587040197103,0.0459619909524917,0.8618227243423462,-0.1968035101890564,-0.8477356768090277,-9.728585348066687,-0.8979697802696377,50,walking
1783066674975671000,2.092101,-0.7398547824785113,-1.332608201676607,-0.7253367200434208,-0.2140488177537918,0.9625181555747986,-0.2561658918857574,-0.7873464553631842,-9.730698394697905,-0.9295059783272444,50,walking
1783066674995596000,2.112026,-0.9201048205144704,-0.7394365570664405,-0.7636119440324604,-0.3855725526809692,1.0565319061279297,-0.3390119671821594,-0.7106460775204002,-9.72921137101054,-1.0039079430345446,50,walking
1783066675015520000,2.13195,-1.009646267490834,0.1795773994714021,-0.7999047620326281,-0.4442971646785736,1.104076266288757,-0.4378557503223419,-0.6124251015366986,-9.72540905611813,-1.1007922270543873,50,walking
1783066675035445000,2.151875,-1.1555315329797564,0.945069604292512,-0.915147344237566,-0.354682445526123,1.2228713035583496,-0.4977451860904693,-0.4936243519261479,-9.721315064802765,-1.1927973607305438,50,walking
1783066675055370000,2.1718,-1.314759095122665,1.4086702816158532,-0.8919446016959846,-0.1431527286767959,1.3720301389694214,-0.5523824691772461,-0.3607331541754305,-9.719392572307584,-1.254457040503621,50,walking
1783066675075295000,2.191725,-1.3167720423802731,1.8183523217469453,-1.107619296595454,0.2040020376443863,1.3570754528045654,-0.6039097905158997,-0.2131229280574247,-9.723407653167843,-1.257103755620122,50,walking
1783066675095219000,2.211649,-1.2813583453021944,1.7260118917018177,-0.9628431613922118,0.4199909269809723,1.3690741062164309,-0.560668408870697,-0.0652304828979773,-9.733120068886876,-1.1968765198029576,50,walking
1783066675115144000,2.231574,-1.1407862376600504,1.4163076446264982,-0.6467034744419157,0.4682665169239044,1.2702144384384155,-0.4328141808509826,0.0624975690690567,-9.743491825297474,-1.1094438086088747,50,walking
1783066675135069000,2.251499,-1.0507366950310766,0.9669324765324592,-0.5475923812180757,0.3663139343261719,1.1475160121917725,-0.2372075021266937,0.1541082463677972,-9.752006555664538,-1.0222555006299168,50,walking
1783066675154994000,2.271424,-1.2217850433491169,0.5245668949395418,-0.2239725676454603,0.0896206870675087,1.0266363620758057,-0.0461522154510021,0.2026033241413533,-9.75616075273454,-0.9729786248289048,50,walking
1783066675174918000,2.291348,-1.5217868115775286,0.1819037965923547,-0.0928716143123805,-0.1968854516744613,0.9346460103988647,0.0841201245784759,0.2167972874549217,-9.755117381161453,-0.9803292067874222,50,walking
1783066675194843100,2.3112731,-1.7112806249074637,0.0540729509711265,-0.137971131363511,-0.4265407025814056,0.9002233743667603,0.151661530137062,0.2117621245656162,-9.7492429361701,-1.0381805072534829,50,walking
1783066675214767900,2.3311979,-1.668946042525023,0.0001753565669059,-0.2625901753313839,-0.5856520533561707,0.8877677321434021,0.2075034826993942,0.1962126184572465,-9.73889046898186,-1.1339780189499258,50,walking
1783066675234693000,2.351123,-1.4486077397286892,0.1989917095154523,-0.4448644126713276,-0.6314958333969116,0.8651466965675354,0.2435413151979446,0.1718996496514417,-9.72507178698778,-1.250529784057289,50,walking
1783066675254617900,2.3710479,-1.3677091795437035,0.5920142912685871,-0.6158376499265432,-0.527981162071228,0.8520427346229553,0.1884933114051818,0.1514546083201654,-9.710480951577424,-1.3616232837587594,50,walking
1783066675274542000,2.390972,-1.2374169122450054,0.9710831664711236,-0.5640699071578681,-0.3442440629005432,0.9197359681129456,0.1417353600263595,0.1456608547490555,-9.698695821237564,-1.443767167829722,50,walking
1783066675294467000,2.410897,-0.8048762668348848,1.1035311504989862,-0.5656574686102569,-0.1919773668050766,0.9530543088912964,0.178739845752716,0.1431786825445015,-9.691382867875694,-1.4923084958977997,50,walking
1783066675314392000,2.430822,-0.4693943486960604,1.1220254230886697,-0.513038954231143,-0.0177875775843858,0.946615993976593,0.2435585856437683,0.1312134646636899,-9.68877765381336,-1.5102109400741754,50,walking
1783066675334317000,2.450747,-0.3907331556417048,1.1237328115284442,-0.3712659463666379,0.0933441519737243,0.916379690170288,0.2755837440490722,0.1091151305668987,-9.690783732938764,-1.4990544630266724,50,walking
1783066675354240800,2.4706708,-0.289059591518715,1.0522533832043408,-0.0613214607946574,0.1436020284891128,0.8884738087654114,0.3226097524166107,0.0783697266939561,-9.695020932117105,-1.4733616572350263,50,walking
1783066675374166000,2.490596,-0.1133008918189443,0.7543237450748682,0.1966822635293006,0.1386893838644027,0.8497847318649292,0.3883313536643982,0.0351901562711806,-9.699659697833656,-1.444210673813522,50,walking
1783066675394091000,2.510521,0.0549569900969276,0.5192395624369383,0.4221725422613323,0.071407213807106,0.8098528981208801,0.4375742077827453,-0.0211390012450749,-9.702799749425052,-1.4232481114141642,50,walking
1783066675414016000,2.530446,0.1946391403291374,0.2262339367061853,0.730721481821686,-0.0871744453907013,0.7107211947441101,0.5011788606643677,-0.0904913955118041,-9.702333885478971,-1.4236932248331606,50,walking
1783066675433940000,2.55037,0.3477249117814004,0.0565846415311098,0.7759909486122429,-0.3333575129508972,0.6300874948501587,0.5622691512107849,-0.1735466314071789,-9.695041390383244,-1.4650718216650187,50,walking
1783066675453865000,2.570295,0.4012813645977526,-0.1623947940021753,0.9601566987872124,-0.5515225529670715,0.6689697504043579,0.6616004705429077,-0.2727427542996593,-9.67867127034068,-1.55541508654356,50,walking
1783066675473790000,2.59022,0.4977805217575282,-0.16175181992352,0.6277722717396914,-0.537285327911377,0.6258663535118103,0.7055473923683167,-0.3851035887895151,-9.65612216940224,-1.6677537640005349,50,walking
1783066675493715000,2.610145,0.4617919474009424,-0.0759954444438219,0.5706219591498375,-0.4150547385215759,0.6373925805091858,0.6879421472549438,-0.4978545003091916,-9.63353975071609,-1.7656283011667429,50,walking
1783066675513639000,2.630069,0.1663018479106947,-0.1601958226531744,0.4023720093786716,-0.2495813220739364,0.6271037459373474,0.5772470831871033,-0.5980062982250005,-9.614431730142234,-1.8372471379615365,50,walking
1783066675533564200,2.6499942,0.0548966884441673,-0.169644618999958,0.4530940424866974,-0.0628846734762191,0.6907057762145996,0.4582813680171966,-0.6715531804729252,-9.602288872405886,-1.874950407281518,50,walking
1783066675553489000,2.669919,0.3541958613611757,-0.3783633572816848,0.4424462456136941,0.045256569981575,0.6971826553344727,0.401531457901001,-0.7276913203455507,-9.59618061865866,-1.8852518749348817,50,walking
1783066675573414100,2.6898441,0.4279623777091503,-0.3221148158371448,0.668541358371079,0.1217548251152038,0.7219419479370117,0.3106740117073059,-0.7694354625541716,-9.594071079158782,-1.8794092863865195,50,walking
1783066675593339000,2.709769,0.6004457272663712,-0.2121428675115108,0.7557245517835021,0.2176008522510528,0.6831215023994446,0.2176465988159179,-0.7940770057272165,-9.596154315173626,-1.8584042000196872,50,walking
1783066675613262800,2.7296928,0.7028809964768589,-0.0136982704848051,0.7433350258097052,0.3241474032402038,0.631955623626709,0.1152652725577354,-0.8016415957625955,-9.603509354111551,-1.8166852653175591,50,walking
1783066675633188000,2.749618,0.784599129416421,0.0619751023977994,1.0200158319443464,0.391248345375061,0.6271273493766785,0.0351599194109439,-0.7928290514927357,-9.615288639232515,-1.7572801595382392,50,walking
1783066675653112800,2.7695428,1.0461383343901485,-0.0378460387915372,1.0830794602312146,0.4327487349510193,0.5774069428443909,0.035550370812416,-0.7778379647184163,-9.62919149237871,-1.686417986329645,50,walking
1783066675673038000,2.789468,1.2066476799719037,-0.2782160528779029,1.1421937663704156,0.4680211544036865,0.4370558261871338,0.0361824035644531,-0.76835913855955,-9.643355042287707,-1.6080159191355108,50,walking
1783066675692962000,2.809392,0.9440523900739848,-0.684367580795288,1.0630120931059122,0.4693850874900818,0.2976076602935791,-0.0316216759383678,-0.758950747288391,-9.657985040664672,-1.5223992443874477,50,walking
1783066675712887000,2.829317,0.5040736305523663,-1.0006570514798163,1.303997608742118,0.4162882566452026,0.2543301284313202,-0.1511012762784958,-0.7336177147198468,-9.672543727371096,-1.4401678281635044,50,walking
1783066675732812000,2.849242,0.4637496573399752,-1.2828344092041253,1.1627256822675467,0.3085255026817322,0.1715691685676574,-0.2592614293098449,-0.687308237357065,-9.685751583990454,-1.372666948081553,50,walking
1783066675752737000,2.869167,0.6721551649540662,-1.3043985907584428,0.9612395255878567,0.1864262819290161,0.1258377581834793,-0.255318820476532,-0.6319025764774531,-9.695909405389427,-1.3268040454424916,50,walking
1783066675772661000,2.889091,0.8674014773961156,-1.505552446743846,0.5798809320129453,0.0762249901890754,0.061771634966135,-0.1874234229326248,-0.587878287442401,-9.70185457752943,-1.3033786000609398,50,walking
1783066675792586000,2.909016,0.6087019162951037,-1.3133008591383697,0.1753834549129009,0.0507793575525283,-0.0523477494716644,-0.2267416715621948,-0.548547636116296,-9.705563368919492,-1.292877225921303,50,walking
1783066675812511000,2.928941,0.2495888376021757,-1.1833131277441975,-0.1796943038493395,0.0880807563662529,-0.0578116215765476,-0.2630738914012909,-0.5021771858138964,-9.70985551315546,-1.279421970412135,50,walking
1783066675832436000,2.948866,0.2537919883804395,-1.07681674657464,-0.5908617602325975,0.128429427742958,-0.0395449995994567,-0.181078240275383,-0.4581969551162794,-9.714898768019676,-1.257461775277555,50,walking
1783066675852360000,2.96879,0.0439347841206938,-1.5714607969373464,-1.0120194994281977,0.2182345390319824,0.0359819158911705,-0.0470228679478168,-0.4383794345661997,-9.719892923045158,-1.22551173572205,50,walking
1783066675872285000,2.988715,-0.8119517581790685,-1.4636486569941043,-1.489773862853646,0.408918172121048,0.0316454246640205,-0.1549031734466552,-0.4219599589565768,-9.728047003406283,-1.1650965030521154,50,walking
1783066675892209400,3.0086394,-1.7175586822636424,-0.8940507801949977,-1.2962246366530656,0.5448623895645142,0.1650286465883255,-0.4043031930923462,-0.3652471975337714,-9.741142631822823,-1.07104218176119,50,walking
1783066675912134400,3.0285644,-1.848753451360017,-0.2193470998018979,-1.048047748208046,0.5071662664413452,0.3214794397354126,-0.5623963475227356,-0.2641295137278735,-9.755196876138449,-0.967869903513044,50,walking
1783066675932058600,3.0484886,-1.4194219772547485,0.6574789893478155,-0.8084878814607859,0.4351156651973724,0.4023301303386688,-0.5925402641296387,-0.1435428214154671,-9.766219205412268,-0.8779279129117726,50,walking
1783066675951983400,3.0684134,-1.023922630124539,1.3593781351804732,-0.7973738553155213,0.3506073355674743,0.4057389497756958,-0.5556488633155823,-0.0241390918099321,-9.773800454321504,-0.8016535784613341,50,walking
1783066675971908600,3.0883386,-0.7731368012901395,1.6948106977522372,-0.6440402465820312,0.2416436374187469,0.4002040028572082,-0.4497242569923401,0.0812126767686102,-9.778084415251016,-0.7435491069518029,50,walking
1783066675991833300,3.1082633,-0.7172717792704701,1.546076764833927,-0.5100899682324379,0.0524649918079376,0.3723864257335663,-0.2899796664714813,0.1580761270854622,-9.77943641438186,-0.7127483835618943,50,walking
1783066676011757300,3.1281873,-0.8023175222627819,1.5674831254780293,-0.4675624936264008,-0.1240653395652771,0.2908616065979004,-0.2141360789537429,0.211249115275871,-9.777947637128827,-0.7193627602003514,50,walking
1783066676031682600,3.1481126,-0.8753883844967931,1.3396663034945726,-0.4358387371074408,-0.2499174624681472,0.2954082787036896,-0.0829344615340232,0.2464614993618801,-9.77443816770315,-0.754977313612774,50,walking
1783066676051607300,3.1680373,-0.5676952580481768,0.9179343446075916,-0.6926355698596686,-0.2925094366073608,0.2075881510972976,0.1429952085018158,0.2458247723609209,-9.770194538784027,-0.8082294497203082,50,walking
1783066676071532500,3.1879625,-0.5341509715711698,0.1140875669509172,-1.0190204642314464,-0.2622800171375274,0.129009798169136,0.3872570395469665,0.1952217807889915,-9.766761057204008,-0.8617745043598115,50,walking
1783066676091456500,3.2078865,-1.3215966860577464,-0.613131898099184,-0.9792056095849722,-0.2434865534305572,0.137660801410675,0.3893355131149292,0.1171637138600926,-9.763636787703632,-0.9099691378820688,50,walking
1783066676111381500,3.2278115,-2.195135716360807,-0.579500262132287,-0.604768412771076,-0.2977751791477203,0.1718550026416778,0.1145754382014274,0.0693837438196409,-9.75911083471179,-0.9619374447241424,50,walking
1783066676131306500,3.2477365,-2.0902574379123746,-0.2775654800146818,-0.3853185101818293,-0.365770936012268,0.2014920562505722,-0.0548657439649105,0.0701497095237253,-9.752492877876758,-1.0268117026295511,50,walking
1783066676151231500,3.2676615,-1.0601429674103855,0.1124906531482934,-0.3177800015032291,-0.3757604360580444,0.2268251627683639,0.0134342508390545,0.0821117262338753,-9.744513569560649,-1.0991382493022828,50,walking
1783066676171155500,3.2875855,-0.2759315586699172,0.6319044031083584,-0.250239812324196,-0.3737415671348572,0.1926034241914749,0.1423330456018448,0.0704791652403771,-9.736156075581908,-1.1716166986010967,50,walking
1783066676191080400,3.3075104,-0.0325201493273489,1.299332539540529,0.0337923794865608,-0.3875770270824432,0.1785612255334854,0.2025391906499862,0.0404509742926573,-9.727221658498047,-1.2449589981876312,50,walking
1783066676211005400,3.3274354,0.1179873234689701,1.5859867504179477,0.2478730831928551,-0.3783217370510101,0.1945200264453888,0.2580513656139374,0.0011243070911561,-9.71744319180548,-1.3197269466631114,50,walking
1783066676230930700,3.3473607,0.420749450655654,1.6200918491154908,0.2951145807087421,-0.3191889226436615,0.1577469557523727,0.3146011233329773,-0.049648275529826,-9.707854110205172,-1.3876185796283185,50,walking
1783066676250855400,3.3672854,0.543866492562741,1.267113108459115,0.2239164535440504,-0.2710016667842865,0.1805176436901092,0.3414961695671081,-0.109169134909613,-9.699041273674368,-1.4446600250162185,50,walking
1783066676270779400,3.3872094,0.6584341711807996,1.1376859335571528,0.373964391670376,-0.2619520425796509,0.1947355419397354,0.3576967418193817,-0.1715132806823588,-9.690222591924666,-1.4968448241531849,50,walking
1783066676290704400,3.4071344,0.8389303659975528,0.9021779725492,0.3738241064168512,-0.2574750483036041,0.180485114455223,0.3630512356758117,-0.2351425982942804,-9.68081705019772,-1.5481801668539643,50,walking
1783066676310629400,3.4270594,0.8309408285483717,0.7075204928457737,0.3342366307854652,-0.2153061777353286,0.1473511755466461,0.3394229114055633,-0.2982308495657518,-9.671412092992664,-1.5953822091422971,50,walking
1783066676330553600,3.4469836,0.8260508645497262,0.5205798711299896,0.300878697193414,-0.1651612371206283,0.1293205767869949,0.2889891862869262,-0.3545426655048504,-9.66328665420413,-1.6326532245248555,50,walking
1783066676350478300,3.4669083,0.8235825747400521,0.4308160135746002,0.3113444154977798,-0.1312575042247772,0.1229004338383674,0.2289075851440429,-0.4004075774379074,-9.656572835779189,-1.661524514222145,50,walking
1783066676370403600,3.4868336,0.8985239800862967,0.2780851199746131,0.2268658048689365,-0.1033060550689697,0.075439304113388,0.1723728626966476,-0.4350962116444483,-9.650935706675051,-1.6853836748458444,50,walking
1783066676390328300,3.5067583,1.0252839085403829,0.3075099519014358,0.0885153187990188,-0.0081239053979516,0.0237712524831295,0.1424337029457092,-0.4627960464095697,-9.647589903378488,-1.6971194130860268,50,walking
1783066676410252500,3.5266825,1.1528385675687345,0.1441062731176614,-0.1763005697578191,0.1260972321033477,-0.0622001178562641,0.0975172370672226,-0.4884475703427567,-9.648338091397283,-1.6856401338249445,50,walking
1783066676430177500,3.5466075,1.0197295623488725,0.1775736584335565,-0.1439874690435826,0.181088238954544,-0.074190467596054,0.0055786576122045,-0.5007861698469147,-9.653374331998824,-1.6528608769036828,50,walking
1783066676450102500,3.5665325,1.1495032126009463,-0.105406247845292,-0.002772241192311,0.1332467049360275,-0.1083947122097015,-0.0380514785647392,-0.5000758661530912,-9.658746088165044,-1.621394310016185,50,walking
1783066676470027500,3.5864575,1.3922206665962933,-0.323334128499031,-0.1630586647383868,0.0834837704896926,-0.1840035021305084,-0.028308467939496,-0.4978364166632294,-9.662730189365147,-1.5981756392531097,50,walking
1783066676489951500,3.6063815,1.490629456769675,-0.5632067144572734,-0.2219680959552526,-0.0097263297066092,-0.2148256003856659,0.0136491004377603,-0.502721887149848,-9.664074589711428,-1.588497125803679,50,walking
1783066676509876500,3.6263065,1.3869522246740758,-0.6335246977865696,-0.1356682612486183,-0.1489708721637725,-0.238795518875122,0.0335142202675342,-0.5153133289039135,-9.661393387803434,-1.6007266389101742,50,walking
1783066676529801500,3.6462315,1.3018383848816155,-0.9397714978843928,-0.1622616691417992,-0.282543271780014,-0.2539697587490082,0.0678026527166366,-0.533000449829176,-9.653823829331994,-1.6401232681445777,50,walking
1783066676549726500,3.6661565,1.166979686450213,-1.23638713080585,-0.5820837027542293,-0.3282970488071441,-0.2950069904327392,0.0723208039999008,-0.5561588783049956,-9.64256535321474,-1.6976453366562725,50,walking
1783066676569650400,3.6860804,0.7267758129358292,-1.617726873549819,-0.6935210474573076,-0.301980584859848,-0.2746678292751312,0.0361267440021038,-0.5772877371819689,-9.630831076279282,-1.7561961636938153,50,walking
1783066676589575400,3.7060054,0.2622464764602482,-1.800320405972004,-0.983706062809378,-0.1625162065029144,-0.2818491160869598,-0.1043692827224731,-0.5818726172868162,-9.622715574362871,-1.7986559798911212,50,walking
1783066676609500400,3.7259304,-0.0754733933310955,-1.9512994874686005,-1.020191773033142,-0.0364893302321434,-0.2233158946037292,-0.2327776551246643,-0.5576432351112366,-9.621223874500393,-1.8142437173843384,50,walking
1783066676629425400,3.7458554,-0.0415237043909728,-2.1498364389538764,-0.9983920291572808,0.0713143870234489,-0.2327658683061599,-0.3246559202671051,-0.5116865532414987,-9.62499696329832,-1.8077618080191316,50,walking
1783066676649349400,3.7657794,-0.0252453542850911,-2.170790379655361,-0.7975392019450664,0.0892556011676788,-0.228707417845726,-0.3610773980617523,-0.4537445422846823,-9.631276481959222,-1.7896946748003362,50,walking
1783066676669274600,3.7857046,-0.2516511038942262,-2.012925045776367,-0.4409849408894777,0.019940847530961,-0.2381536960601806,-0.3946045041084289,-0.3896958119506016,-9.636661682128906,-1.775746813468635,50,walking
1783066676689199400,3.8056294,-0.7221920653421431,-1.556131125858426,0.102011929231882,-0.1590049117803573,-0.1685948073863983,-0.4762230515480041,-0.3135995374808087,-9.63751040791273,-1.7861833056785166,50,walking
1783066676709124600,3.8255546,-0.8867872919980436,-0.681637279048562,0.5878069027066231,-0.353636771440506,-0.107766143977642,-0.5268977284431458,-0.2208303788959048,-9.630787821659446,-1.835635026589781,50,walking
1783066676729048600,3.8454786,-0.8164422745313495,-0.2922504234492779,0.7340059103198349,-0.4452406167984009,-0.056952103972435,-0.5101334452629089,-0.1252270471978467,-9.617199441289902,-1.9141976911731065,50,walking
1783066676748973300,3.8654033,-1.1764086090527477,0.2274935813784599,0.960590121768415,-0.4851159155368805,0.0214525628834962,-0.5549191236495972,-0.0254807522098533,-9.600046061915158,-2.002217627670616,50,walking
1783066676768898600,3.8853286,-1.763286560346186,0.5075350961178541,1.395479376131296,-0.4703676402568817,0.0359299108386039,-0.6933619379997253,0.0952761638366151,-9.579614099261164,-2.095783215596527,50,walking
1783066676788823300,3.9052533,-2.1815154795482754,0.7949450937986373,1.1165244875848293,-0.2281530350446701,0.0636713206768035,-0.7949714064598083,0.2404163922450505,-9.561314472460746,-2.166531553167105,50,walking
1783066676808747500,3.9251775,-2.5562489558950063,0.94626670512259,1.0604812594540416,0.2906163036823272,0.1994555741548538,-0.8676373362541199,0.4049090170430019,-9.556862753748891,-2.161664385522157,50,walking
1783066676828672500,3.9451025,-2.43986231822148,1.221623276916146,0.7505214301824569,0.6838833093643188,0.0531188733875751,-0.8481730222702026,0.5759763988550752,-9.56975555306971,-2.063591695435345,50,walking
1783066676848597500,3.9650275,-2.366535654595494,0.8283744851917028,1.1690087080597875,0.7716219425201416,-0.0845369771122932,-0.700939953327179,0.7247118661433458,-9.589505963200333,-1.9200395490691065,50,walking
1783066676868522500,3.9849525,-2.464338733960688,0.6003963351666927,1.21548053637743,0.7208805680274963,-0.2600193321704864,-0.5222312808036804,0.835233922632411,-9.607532618278263,-1.7799137238897382,50,walking
1783066676888446700,4.0048767,-2.499879710680246,0.4263800769537687,1.171194966057688,0.6209331750869751,-0.3722249567508697,-0.3310293853282928,0.9071369101308284,-9.623256257110834,-1.655422105693817,50,walking
1783066676908372000,4.024802,-2.315465392571688,0.1098521213382482,1.2352936364807188,0.3659453392028808,-0.4241621792316437,-0.1018004640936851,0.9356569021724164,-9.635631170037389,-1.5650950612977146,50,walking
1783066676928296700,4.0447267,-2.146856838621199,0.1110205805957317,1.247939036911726,0.0287542678415775,-0.5310699939727783,0.0506007932126522,0.9243175428386776,-9.641289926451444,-1.5367396121680736,50,walking
1783066676948222000,4.064652,-2.136175870130956,0.4856862524032592,0.9343431892253458,-0.1328359842300415,-0.628051221370697,0.1169439628720283,0.8886471675857901,-9.64081412563324,-1.5605767070904373,50,walking
1783066676968146000,4.084576,-1.939761317627132,0.9216314455598592,0.7597668129116296,-0.1562899053096771,-0.6516086459159851,0.1423070430755615,0.8436657970216125,-9.638321139773726,-1.600430870833993,50,walking
1783066676988071000,4.104501,-1.5288826150573789,1.3247159871220588,0.6770189715981483,-0.1363459080457687,-0.6433136463165283,0.1744071990251541,0.7923662562865763,-9.63618763487637,-1.639039272300154,50,walking
1783066677007996000,4.124426,-0.9274469269055872,1.7858225095421074,0.6643285629816353,-0.0929234474897384,-0.7292448282241821,0.2242532968521118,0.7318705057263374,-9.635361705446243,-1.671688765361905,50,walking
1783066677027921000,4.144351,-0.3563640722457319,1.9455752646028996,0.6945961293429136,-0.0518290102481842,-0.757351279258728,0.3184469044208526,0.6550406562849879,-9.636648822647333,-1.6959706814423203,50,walking
1783066677047844900,4.1642749,0.0778521782264113,1.886753657799959,0.7523803559221327,-0.048704233020544,-0.7513871192932129,0.4467915594577789,0.5561621662406251,-9.639627546197175,-1.7142510190203786,50,walking
1783066677067770000,4.1842,0.4170869826253503,1.5963152522087096,0.8646399767935276,-0.0306450203061103,-0.8256518840789795,0.5660850405693054,0.4315079413615167,-9.643227031993865,-1.7298446017324924,50,walking
1783066677087694800,4.2041248,0.5854228571143001,1.3204711891591547,1.0195276100359856,0.0046594394370913,-0.8954517841339111,0.6762229800224304,0.282026277082134,-9.647355510100722,-1.7376383243486284,50,walking
1783066677107620000,4.22405,0.713502782125771,1.0790320845365524,1.0989777249783277,0.0165064353495836,-1.052392840385437,0.7264483571052551,0.111748648275109,-9.650722356185316,-1.7382295682400464,50,walking
1783066677127543800,4.2439738,0.6009427535356954,0.5858382329821586,1.2480085950165989,-0.0751120001077652,-1.0799643993377686,0.7030192613601685,-0.0632948980257846,-9.65043594045937,-1.742261746365577,50,walking
1783066677147468800,4.2638988,0.7144619094815104,0.1645949343949556,1.4751906262278556,-0.2697542905807495,-1.0995478630065918,0.6678271889686584,-0.2326288071087561,-9.64249111893475,-1.7716225731454789,50,walking
1783066677167394000,4.283824,0.9483882273212074,-0.3856616975963115,1.4365673194535076,-0.4486758410930633,-1.0957316160202026,0.6612734198570251,-0.3998166623400524,-9.625243047013878,-1.83445341558978,50,walking
1783066677187318800,4.3037488,1.0747620060019194,-0.7592740609586238,1.0867888361431657,-0.537964940071106,-1.075783610343933,0.598025381565094,-0.5624029237937181,-9.60043593801558,-1.919821376273781,50,walking
1783066677207243000,4.323673,0.9160166744180024,-1.0115162991464135,1.0498387232780455,-0.5456348657608032,-0.8767856359481812,0.4752497673034668,-0.70442917576693,-9.57205213957429,-2.0124577205255627,50,walking
1783066677227167700,4.3435977,0.9625746466491372,-0.9650795421421527,0.7336101890005171,-0.4036679267883301,-0.722001850605011,0.2794250547885895,-0.8091961027953773,-9.546512624648212,-2.092768690080941,50,walking
1783066677247093000,4.363523,1.06292536467053,-1.0840285776495933,0.4059845007874071,-0.1732763946056366,-0.6177273988723755,0.043048471212387,-0.8688455387245864,-9.531561723753809,-2.136543534399569,50,walking
1783066677267017000,4.383447,1.1382806115146726,-1.136775248453021,0.3322299671381711,0.0703292414546012,-0.4525660872459411,-0.1852705478668213,-0.8776116865694522,-9.53088952358067,-2.135961496727913,50,walking
1783066677286942000,4.403372,1.4953323737636208,-1.2896528570473194,0.1797071633309125,0.321197897195816,-0.3657420873641968,-0.2940748631954193,-0.8471019820153712,-9.543211245015264,-2.092823927399516,50,walking
1783066677306867000,4.423297,1.598451971976459,-1.6542548154801129,0.011956395253539,0.5717509388923645,-0.3011858165264129,-0.3436126112937927,-0.8004348503213375,-9.566919452860953,-2.000939424428344,50,walking
1783066677326792000,4.443222,1.074337643110007,-1.7048405088573693,0.2405564765691757,0.6844611763954163,-0.2326355129480362,-0.4834391176700592,-0.7334632548104971,-9.597885669010877,-1.874299688287824,50,walking
1783066677346716000,4.463146,0.6446957878813148,-1.4072130685448645,0.7012298682689666,0.577595055103302,-0.1895418912172317,-0.6337558031082153,-0.6325750689115375,-9.62885948394537,-1.7479450526989997,50,walking
1783066677366641000,4.483071,0.8990814678385853,-1.0407821411192415,0.9296304814897476,0.3813435137271881,-0.2396403402090072,-0.6701765656471252,-0.5124178631907329,-9.652771105408668,-1.6528294588521122,50,walking
1783066677386566000,4.502996,1.2584151304796338,-0.939511385643482,0.9164872145392,0.1414566487073898,-0.3597153723239898,-0.5912301540374756,-0.4003931105211377,-9.667100659534334,-1.599133670630306,50,walking
1783066677406491000,4.522921,0.957145607337728,-0.9148866474747656,0.9895148952186108,-0.0529763288795948,-0.3525281548500061,-0.4966934323310852,-0.3069702920667826,-9.671973818528652,-1.5903095820531248,50,walking
1783066677426414800,4.5428448,0.6210233089361339,-1.1171838282763955,0.5606564454525709,-0.0619161054491996,-0.4228808581829071,-0.392325609922409,-0.2319654843618162,-9.672136315613985,-1.6019843838863077,50,walking
1783066677446339800,4.5627698,0.1142945972977206,-1.9319599962264296,-0.0060633916921913,0.0666185617446899,-0.5800372958183289,-0.3187162578105926,-0.1820803404693491,-9.673484807613493,-1.6002965769298374,50,walking
1783066677466265000,4.582695,-1.0488845643583684,-2.065965146568417,-0.1347467624895274,0.2512940764427185,-0.6005943417549133,-0.4602437913417816,-0.1283143730881623,-9.679538700824976,-1.568578227238357,50,walking
1783066677486189800,4.6026198,-1.9157497429206969,-2.128607772964239,0.1326128192007541,0.3495652079582214,-0.5131325125694275,-0.5769869685173035,-0.0424079398795962,-9.690069447189568,-1.5070346481256187,50,walking
1783066677506114000,4.622544,-2.167606781183183,-2.7703736448735,0.2401771218627691,0.3082579970359802,-0.5540890693664551,-0.5906479358673096,0.0539757970398524,-9.699825702050328,-1.442514975811541,50,walking
1783066677526038800,4.6424688,-2.9541859054356814,-1.8147855691760777,0.4583827965445816,0.2826428711414337,-0.5881330966949463,-0.7911513447761536,0.1683827093053609,-9.706561147785186,-1.3873327484242617,50,walking
1783066677545964000,4.662394,-3.255250334459543,0.0906459010869264,0.7534491541974246,0.289328008890152,-0.5428537726402283,-0.9963549375534058,0.3287875715993344,-9.70980056809783,-1.3349407362774013,50,walking
1783066677565888800,4.6823188,-2.5072511162310835,0.9476257185161112,0.3240479758568108,0.3771760463714599,-0.5595881938934326,-0.918262779712677,0.5040525512317195,-9.710103350436686,-1.2767903067342936,50,walking
1783066677585812700,4.7022427,-1.8993582878291608,1.316699853926897,0.0252916776448488,0.5052478909492493,-0.5473100543022156,-0.6562777161598206,0.6438986461542546,-9.712117612868546,-1.1960559972003102,50,walking
1783066677605738000,4.722168,-1.773111204268038,1.3999720113754273,-0.1149937220104038,0.5255759954452515,-0.5961183309555054,-0.4039592742919922,0.7320823218461125,-9.71698083499074,-1.1021584739062935,50,walking
1783066677625662700,4.7420927,-2.290670558533072,1.071444405886531,-0.0121919575750827,0.4512783288955688,-0.6187242269515991,-0.2771931886672973,0.78307177371867,-9.72244319204986,-1.015518885851279,50,walking
1783066677645587000,4.762017,-2.770518606302142,0.804597303763032,0.0499113012470304,0.3267163038253784,-0.6339118480682373,-0.2121808230876922,0.818945051132515,-9.726140293002128,-0.9496819203935564,50,walking
1783066677665512000,4.781942,-2.845269603642821,0.4776046527564525,0.1308369686346501,0.2014364153146743,-0.6324822902679443,-0.1001445800065994,0.8380307868093252,-9.728351539310813,-0.9095514969918876,50,walking
1783066677685437000,4.801867,-2.634925309985876,0.4750456159234046,-0.1563256301563233,0.1578807830810547,-0.7006649971008301,0.0280155483633279,0.8322410244267433,-9.730879011961818,-0.8875462936718016,50,walking
1783066677705362000,4.821792,-2.6019340177491306,0.6697264765024185,-0.2377431727141142,0.1492931246757507,-0.7846355438232422,0.046289999037981,0.8100236396607011,-9.73432418397963,-0.8701737185884266,50,walking
1783066677725286000,4.841716,-2.38792535636574,0.8626672154158354,-0.3182102096140384,0.1365749537944793,-0.8390018343925476,-0.0056121861562132,0.7923397336058318,-9.737074943992496,-0.8555474465385079,50,walking
1783066677745211000,4.861641,-1.8624474840611216,1.2570020488113165,-0.2500069534163922,0.154150515794754,-0.8529409170150757,0.0305741168558597,0.7780236965488642,-9.73950830861926,-0.8408511049270629,50,walking
1783066677765136100,4.8815661,-0.8472627986002713,1.4888953264534472,-0.2506797381114214,0.1198246702551841,-0.9129934906959534,0.2158369868993759,0.7408703892618417,-9.743653153339029,-0.8262620230823755,50,walking
1783066677785060900,4.9014909,-0.1497720437943935,1.658384462630749,-0.1572666373334825,0.0067514036782085,-0.9566718339920044,0.4104824364185333,0.6634777913711964,-9.749287944355606,-0.8255528518997133,50,walking
1783066677804984800,4.9214148,0.0718642994558438,1.9156606033325196,0.0547246928781271,-0.1623271852731704,-1.002599596977234,0.4886556565761566,0.5587084531899541,-9.753528650665285,-0.8525920307990164,50,walking
1783066677824909800,4.9413398,0.3665562708383426,1.9084709840893743,0.0040641806989908,-0.2858908474445343,-1.0320379734039309,0.5822435021400452,0.4380450515126809,-9.754718737232684,-0.9077259620651602,50,walking
1783066677844834800,4.9612648,0.6441442184131592,1.665386450347304,-0.1361152012985199,-0.2652686834335327,-1.0927263498306274,0.6541473865509033,0.2972260747036896,-9.753896899455786,-0.9713524118665604,50,walking
1783066677864759800,4.9811898,0.8401892800174653,1.373418350970745,-0.3044892889060079,-0.1886998564004898,-1.154625415802002,0.6720572710037231,0.1457730372861027,-9.7523771425426,-1.0199532881021498,50,walking
1783066677884683800,5.0011138,0.9919231984693556,0.8311094631135463,-0.1301959673173725,-0.19519804418087,-1.1984537839889526,0.6794820427894592,-0.0105996708568709,-9.749511816239355,-1.0570286347821354,50,walking
1783066677904609000,5.021039,1.056886011441052,0.3216273245811462,-0.081944050649926,-0.2485109716653823,-1.1801128387451172,0.6795641183853149,-0.1681882096465677,-9.7435584607929,-1.0977983790006487,50,walking
1783066677924534000,5.040964,1.0625031206704676,-0.2594546537846326,-0.1580447820991277,-0.25755375623703,-1.156826376914978,0.6328520178794861,-0.3228445914164185,-9.734541626122594,-1.1423059215079991,50,walking
1783066677944458000,5.060888,1.0175894815802573,-0.6934376069575547,-0.1712140602737665,-0.2643178701400757,-1.1142950057983398,0.5312193036079407,-0.4622845166908577,-9.724033091589808,-1.1831559644211085,50,walking
1783066677964383000,5.080813,0.8628395763080566,-0.9584194997310638,-0.1375945531360805,-0.3245735466480255,-1.1044574975967407,0.3583096861839294,-0.5761339275043458,-9.712387077459692,-1.2279985110364853,50,walking
1783066677984308000,5.100738,0.6680364775888621,-0.9441098193496466,-0.0969425170131027,-0.37779301404953,-1.1073737144470217,0.0983550250530242,-0.6491823587108403,-9.70066156835258,-1.283015903250873,50,walking
1783066678004233000,5.120663,0.7617601056206971,-0.7443266671955585,-0.1002927042238414,-0.3987489938735962,-1.0353511571884155,-0.1006607040762901,-0.6751197869133204,-9.690500824344156,-1.3449071267575026,50,walking
1783066678024157000,5.140587,1.2271952318295836,-0.5987871464043856,-0.3294324453741312,-0.3183505833148956,-0.9953005313873292,-0.1861905753612518,-0.6732371149718761,-9.68251333272159,-1.4021744898557662,50,walking
1783066678044082000,5.160512,1.602315953928232,-0.6038736558884382,-0.5899024136811495,-0.192331776022911,-0.9855645298957824,-0.2035451978445053,-0.6633399903357029,-9.677875736048817,-1.438435159152001,50,walking
1783066678064007200,5.1804372,1.539491541224718,-0.5799596963375806,-0.6478466531276702,-0.0807163715362548,-0.9818993806838988,-0.2513185143470764,-0.6483995377700775,-9.676949853375554,-1.451419436148554,50,walking
1783066678083932000,5.200362,1.3576780532643198,-0.6787813050955533,-0.6301357860006391,-0.0195559784770011,-0.9108505845069884,-0.2806589007377624,-0.6235561884146184,-9.679134796199202,-1.4477321259379383,50,walking
1783066678103856000,5.220286,1.4421303604081273,-0.8193757706999778,-0.6439496456891298,0.0005840295925736,-0.8915579319000244,-0.2435469478368759,-0.5989224266892299,-9.682191261160373,-1.437659206343442,50,walking
1783066678123780900,5.2402109,1.5180632610097526,-1.0401368289530275,-0.6905545988671481,-0.0174166616052389,-0.9059868454933168,-0.2016168087720871,-0.5813316788105294,-9.684688923195004,-1.4280148874245584,50,walking
1783066678143706000,5.260136,1.4689723362348972,-1.1711375367820265,-0.5314087236583233,-0.1610897779464721,-0.8850502967834473,-0.1933550983667373,-0.5693510989638045,-9.68477192530334,-1.432285258220136,50,walking
1783066678163630000,5.28006,1.260037178723514,-1.0540022726982832,-0.2112098244450986,-0.4213010668754577,-0.7822832465171814,-0.2102326452732086,-0.554495840463601,-9.678753687927127,-1.478048938268423,50,walking
1783066678183554800,5.2999848,1.358820062906295,-1.03809977016747,-0.2006587659448385,-0.6123690605163574,-0.654142439365387,-0.1837599575519561,-0.537159980661422,-9.664879476353526,-1.5722475634008646,50,walking
1783066678203480000,5.31991,1.7962861820198597,-1.0345072986334565,-0.5959234275363385,-0.5919672250747681,-0.5658795237541199,-0.0800784602761268,-0.5305017648812383,-9.646175360405444,-1.6853016956508158,50,walking
1783066678223404800,5.3398348,1.7677271731421351,-1.4985720863372087,-1.0538735317520798,-0.2983036041259765,-0.4686076939105987,0.0697321444749832,-0.5481805198369547,-9.63012497383654,-1.7693386999920009,50,walking
1783066678243329000,5.359759,0.5574192170970141,-2.1575240708470345,-1.1435561407648027,0.1289033889770507,-0.2842803299427032,0.0069837290793657,-0.5735801148356869,-9.626586278316378,-1.7805124204352496,50,walking
1783066678263254000,5.379684,-1.0538523428335784,-1.9929811589002608,-0.4627636419773102,0.3022294342517853,-0.1721380203962326,-0.3124924898147583,-0.5544526223763823,-9.636853405308722,-1.730325517117232,50,walking
1783066678283179000,5.399609,-1.8696537621781228,-1.559385743740201,0.3518907992891967,0.0431233532726764,0.0131532829254865,-0.599319338798523,-0.4658898477064445,-9.648621584513783,-1.6903991649203,50,walking
1783066678303104000,5.419534,-1.8722383718438445,-1.7913351354837417,0.9735504333674908,-0.4344318807125091,0.2934051752090454,-0.6855252981185913,-0.3347666460089385,-9.647262571120262,-1.728771273412555,50,walking
1783066678323028000,5.439458,-1.627633350536227,-1.0320768566161391,0.6373603304266929,-0.6805477738380432,0.3447035253047943,-0.7569769024848938,-0.185675277955085,-9.62975204887092,-1.844935646637529,50,walking
1783066678342953000,5.459383,-1.906773970913142,0.3542471531569957,0.4505794293172657,-0.4749137759208679,0.4070792198181152,-0.8303134441375732,-0.0186129704908409,-9.608284897950291,-1.9623681401021775,50,walking
1783066678362878200,5.4793082,-2.100837722507119,1.8772230283886195,0.3665788114637136,0.0415470041334629,0.4082965552806854,-0.8498668074607849,0.1598882362750358,-9.597924831977489,-2.006158181989938,50,walking
1783066678382802000,5.499232,-1.8286209100440145,2.6624025149762627,0.3439339950658381,0.6005744934082031,0.3153362274169922,-0.7478941679000854,0.329401538779214,-9.606933483341336,-1.941315415201336,50,walking
1783066678402727000,5.519157,-1.562147901929915,2.490018241879344,0.5923661734461784,0.9413555860519408,0.1663579493761062,-0.5494611859321594,0.4638078903332352,-9.63117360610664,-1.7876710600182413,50,walking
1783066678422652000,5.539082,-1.4527012926526366,2.130335035148263,1.0250357059329749,0.9914426803588868,-0.058203000575304,-0.3367560803890228,0.5509851289289072,-9.660099256339668,-1.5966516445562242,50,walking
1783066678442577000,5.559007,-1.2427359153106807,1.3287825059086085,1.3541579163141548,0.7337417006492615,-0.1094838976860046,-0.0696282908320427,0.588221036465466,-9.68439549320638,-1.427180628557503,50,walking
1783066678462501000,5.578931,-0.9557708849184214,1.0287404056698084,1.5690486212290822,0.2452526986598968,-0.0968398004770279,0.2332219630479812,0.5701546704316511,-9.699041273674368,-1.3318733115307986,50,walking
1783066678482425900,5.5988559,-0.3479921478828415,0.6783160256713628,1.1725853975027798,-0.2407977133989334,-0.0873641446232795,0.4899001717567444,0.4965822153510525,-9.702809686297178,-1.3338945882253348,50,walking
1783066678502351000,5.618781,0.0419501496421173,0.4159878622770309,0.4632939494617283,-0.6261882781982422,0.0281953364610672,0.6694726347923279,0.3825717322243377,-9.695762690395116,-1.4199272964283822,50,walking
1783066678522275800,5.6387058,0.3744521751873195,0.1357277363508939,-0.4702326626837253,-0.8129442930221558,0.325956791639328,0.841836154460907,0.2425035737826489,-9.678417003318668,-1.5619956339776515,50,walking
1783066678542200000,5.65863,0.5901501778971403,-0.4746528172135353,-1.4302362167358398,-0.7667086124420166,0.6949054598808289,1.034836769104004,0.0775328648778609,-9.655214406907556,-1.7149964305602012,50,walking
1783066678562125000,5.678555,0.1133592070105951,-0.9948059873640536,-2.1588141106575724,-0.6481347680091858,1.011671781539917,0.9794635772705078,-0.0906143734375014,-9.630062429994345,-1.8504266452692448,50,walking
1783066678582050000,5.69848,-1.0740781884562225,-0.6169587629109621,-1.5700070909976958,-0.5678207278251648,1.4899321794509888,0.6563876271247864,-0.2023305350819602,-9.604187399503587,-1.972064481469244,50,walking
1783066678601974000,5.718404,-1.039856916033104,0.0571463670670986,-1.6601190313383936,-0.3220736086368561,1.7874805927276611,0.3650497794151306,-0.2290701099801808,-9.583526304268837,-2.067354116708785,50,walking
1783066678621899000,5.738329,-0.3643926995962858,0.2014648216307163,-1.5820475112728771,0.0455625727772712,2.1315226554870605,0.3931595683097839,-0.2163507492638192,-9.576110475054383,-2.1027781890504063,50,walking
1783066678641824000,5.758254,0.0974554167049936,0.60691024710536,-1.2932950129419565,0.4124190807342529,2.325861930847168,0.4629547297954559,-0.2060923353008925,-9.58396995638311,-2.0677156434975563,50,walking
1783066678661749000,5.778179,-0.1632907199285924,0.8344815698951482,-0.7432201672583818,0.6155182123184204,2.4774270057678223,0.4340440928936004,-0.195839529094845,-9.603544425424932,-1.9758447306603195,50,walking
1783066678681673000,5.798103,-0.3301254691395908,0.8612327986985444,-0.0693462156876921,0.6766605973243713,2.6133337020874023,0.5036025047302246,-0.1853759479486383,-9.626553545090555,-1.8615771309673783,50,walking
1783066678701598000,5.818028,-0.4044855674665421,0.2113502558290958,-0.039814123994112,0.7412965297698975,2.710500240325928,0.6282340884208679,-0.2003497182619757,-9.649891750580071,-1.7348877104662357,50,walking
1783066678721523000,5.837953,-1.127818473406881,0.1353168174624443,0.2508775257058441,0.772396981716156,2.73317289352417,0.5336882472038269,-0.224306895900052,-9.672618546172975,-1.6001599449381232,50,walking
1783066678741448000,5.857878,-1.4967451631709932,0.5614139858216047,0.5085581555552781,0.7645083069801331,2.6918225288391118,0.3753120601177215,-0.2275288353549316,-9.69424527156949,-1.4629467923350632,50,walking
1783066678761372200,5.8778022,-1.1475772860396654,0.4748965628415346,0.3384885891415178,0.6953921914100647,2.475557565689087,0.3258577883243561,-0.2219060635697096,-9.713221774718164,-1.332082424236834,50,walking
1783066678781297000,5.897727,-0.9196968973007053,0.4593114556968212,0.2546845167733729,0.5901060700416565,2.306211471557617,0.311760663986206,-0.2226367159318178,-9.728162738740444,-1.2180514097787438,50,walking
1783066678801222100,5.9176521,-0.5200632999099791,0.5690607011824846,-0.0801577517550438,0.5512424111366272,2.15114974975586,0.3785832524299621,-0.2360554753554984,-9.73975030068159,-1.118888367171958,50,walking
1783066678821146000,5.937576,-0.187874614630267,0.0850531956464052,-0.7540016004484147,0.5999288558959961,1.9029982089996336,0.4768128991127014,-0.2771991126540117,-9.749696525156498,-1.018305740090832,50,walking
1783066678841070800,5.9575008,-0.767835114685446,-0.0572141716063022,-0.9056927026718854,0.7044832706451416,1.7900692224502563,0.4752883911132812,-0.3364902183985337,-9.759162272638084,-0.9032760699842124,50,walking
1783066678860996000,5.977426,-1.3654917957551778,-0.3772808227419853,-0.8063572991728782,0.7554407119750977,1.6430469751358032,0.3869391083717346,-0.3927498292263597,-9.768297765251994,-0.7723191282317042,50,walking
1783066678880920800,5.9973508,-1.6932887488819657,-0.8686182327747345,-0.7777496288478374,0.6729258894920349,1.4054813385009766,0.2358602583408355,-0.4324630866618826,-9.776002348279953,-0.64276028977409,50,walking
1783066678900849000,6.017279,-2.2602140454709527,-1.040811367213726,-0.3282015153396874,0.3415974080562591,1.3083453178405762,0.0067979381419718,-0.4408943765291944,-9.781130358818173,-0.5527149483961984,50,walking
1783066678920773600,6.0372036,-2.50983178037405,-0.3012257570654154,0.0447228657584637,-0.0275525338947772,1.2955893278121948,-0.2368206083774566,-0.4034626176269725,-9.783751354971528,-0.5346365631310269,50,walking
1783066678940699000,6.057129,-1.9731287496998904,0.5009323368519545,-0.135770369916223,-0.2184625566005706,1.2666947841644287,-0.3493543267250061,-0.3297939721629023,-9.784449274107812,-0.5711179259732365,50,walking
1783066678960623600,6.0770536,-1.3514004342995585,1.2984276996552944,-0.3578817102670669,-0.2998073697090149,1.2037112712860107,-0.3443368673324585,-0.2467290459905751,-9.783329330167174,-0.6292779270622879,50,walking
1783066678980547800,6.0969778,-1.2536208819404244,2.28843710039258,-0.1600209775429218,-0.216147169470787,1.1509301662445068,-0.3445580303668976,-0.1634470612677745,-9.781090611329674,-0.6884238704487681,50,walking
1783066679000472800,6.1169028,-0.7705520454939454,2.643169991239905,-0.5724387262482196,0.0893845185637474,0.971864640712738,-0.2518419325351715,-0.0886672579577192,-9.780884859624503,-0.7048677133146674,50,walking
1783066679020397800,6.1368278,-0.5823955817149952,1.9160317747324704,-0.8927320988118648,0.2608198225498199,0.8005082011222839,-0.1470876336097717,-0.0387502393559552,-9.783827342817188,-0.6675390494607388,50,walking
1783066679040321800,6.1567518,-0.8798428066223859,1.3879887281149623,-0.4329523680161684,0.2121855467557907,0.6751713752746582,-0.0683012977242469,-0.0072088017217611,-9.786996620503068,-0.6204960701916367,50,walking
1783066679060247000,6.176677,-0.7651297281842678,0.4444938257932663,-0.561974505781196,0.1459352374076843,0.5293238162994385,0.1135297119617462,-0.0028104012243886,-9.78921195846498,-0.5845489603566005,50,walking
1783066679080171800,6.1966018,-0.7533001011155546,-0.5019312847614288,-0.6169259566199035,0.0140945836901664,0.3845546841621399,0.3399005234241485,-0.0426221762853208,-9.790141932791473,-0.5671562192680314,50,walking
1783066679100097000,6.216527,-1.405653271882236,-1.5398136127859352,-0.3581365618109703,-0.2725096940994262,0.3216689229011535,0.4132422804832458,-0.1151136859951075,-9.78820248916149,-0.590117115877755,50,walking
1783066679120021000,6.236451,-2.454512044212222,-1.6981974175810812,0.2867921580433845,-0.648059606552124,0.3234923779964447,0.2123491168022155,-0.1764163233582861,-9.781400992453095,-0.6807879687428474,50,walking
1783066679139945700,6.2563757,-2.7755697522118687,-0.7201087562620639,0.6635779638100415,-0.9015108942985536,0.4473986625671386,-0.083027645945549,-0.1817180830282159,-9.769187407568095,-0.8368581628333777,50,walking
1783066679159871000,6.276301,-1.5878709567293523,0.3002005056709051,0.3695541009474545,-0.8783600926399231,0.4884366393089294,-0.1165191754698753,-0.1486734531690366,-9.75280735065341,-1.0153899257093668,50,walking
1783066679179795700,6.2962257,-0.1901944176136515,1.0020371076613663,-0.0473537257187068,-0.6737198233604431,0.4620632231235504,0.0673516765236854,-0.1318257513431366,-9.735933957263828,-1.168152456556633,50,walking
1783066679199720000,6.31615,0.1610533527979627,1.4638532396554946,-0.0445716937847435,-0.4757934212684631,0.4806491136550903,0.2288718372583389,-0.1507285316684748,-9.72160557218194,-1.2798705909624697,50,walking
1783066679219644700,6.3360747,-0.1293585483788512,1.457585995954275,0.1040232690542936,-0.3089397251605987,0.491773396730423,0.2816410064697265,-0.1887709424154832,-9.710399118512868,-1.357537768010795,50,walking
1783066679239570000,6.356,-0.4313492071358487,1.1350327886998652,-0.0139326637625694,-0.106480486690998,0.4739152789115906,0.2460382878780365,-0.2266073548621497,-9.703581255191564,-1.3998435626901686,50,walking
1783066679259494000,6.375924,-0.4474749604959041,0.5815004960387945,0.0795925921529531,0.0521031469106674,0.5394870042800903,0.2907634973526001,-0.2634532219015061,-9.70176339211464,-1.4059803118795156,50,walking
1783066679279419000,6.395849,-0.2158113634238019,0.1901128220111131,0.0591020311795175,0.1633948534727096,0.5106611251831055,0.3864963948726654,-0.3130078551979735,-9.702726099666952,-1.389080907265842,50,walking
1783066679299344000,6.415774,-0.2269790925176814,-0.3151484839558601,-0.114278121086955,0.3526906669139862,0.3550798892974853,0.4334551393985748,-0.3823453395899385,-9.706679805728792,-1.3433419232673942,50,walking
1783066679319268900,6.4356989,-0.9559536941394208,-0.843365133574605,-0.1109989532858133,0.5036426782608032,0.326083242893219,0.3348793387413025,-0.4495923179760575,-9.714914550110697,-1.2604295390419662,50,walking
1783066679339192800,6.4556228,-1.3670624060727654,-1.3478040172427892,0.4200893062464892,0.3787148594856262,0.3036544919013977,0.1965829282999038,-0.493382140668109,-9.723584178778529,-1.1742630483914167,50,walking
1783066679359117800,6.4755478,-1.2655047964796424,-1.51807758179605,0.7855302727866917,0.0597579665482044,0.278177946805954,0.0657772868871688,-0.511890405250527,-9.727487031435968,-1.1332881369896233,50,walking
1783066679379042800,6.4954728,-1.019375926605612,-0.981079075306654,0.9143179076761008,-0.2128400951623916,0.2335857897996902,-0.034998171031475,-0.5079749123072251,-9.725341836100815,-1.153289014749974,50,walking
1783066679398967800,6.5153978,-0.4348777100555598,-0.282093186572194,0.6744656338535249,-0.2475094050168991,0.2284736633300781,-0.0157731715589761,-0.4958682949280366,-9.719834470856188,-1.2038833298251033,50,walking
1783066679418892000,6.535322,0.0491594964990392,0.2482476155936717,0.3551414716482162,-0.1186846643686294,0.1349243223667144,0.0272367745637893,-0.4928349185815081,-9.715070617455243,-1.2429413747549056,50,walking
1783066679438816800,6.5552468,0.0520008574048057,0.4922130238234996,0.1815723726809024,0.0217710323631763,0.0695723369717598,0.0335136391222476,-0.4973223661938682,-9.713630355519056,-1.2523792113162575,50,walking
1783066679458742000,6.575172,-0.1275253598686307,0.5210802218675613,0.3331630102045834,0.0735761895775795,0.0702745616436004,0.0006784377037547,-0.4996057644233107,-9.714664374741911,-1.2434084077447651,50,walking
1783066679478665700,6.5950957,0.0503368331827223,0.3188677967399358,0.0700609398283064,0.1206102594733238,0.0767152830958366,0.0051849693991243,-0.4967056590676307,-9.717155607035757,-1.2249640387114136,50,walking
1783066679498591000,6.615021,0.1856180678751319,0.023401918375492,0.000825564103946,0.144595667719841,0.0471620447933673,0.0380431152880191,-0.5006051507242024,-9.720067110568284,-1.200021028373763,50,walking
1783066679518515700,6.6349457,-0.1828633258068934,-0.0975450129508972,0.2245366312690079,0.1181890740990638,0.002923283027485,-0.0377990119159221,-0.5006811751024798,-9.72316975275874,-1.1745856314092873,50,walking
1783066679538441000,6.654871,-0.4951944873197004,-0.2237666698098182,0.3192028008479625,0.0604091882705688,-0.0597232654690742,-0.1287335604429245,-0.4841835196901112,-9.726235570070148,-1.155975988811627,50,walking
1783066679558365000,6.674795,-0.4482288110705092,-0.3790723823338747,0.4302678051073104,-0.0319885313510894,-0.0561154782772064,-0.1229188069701194,-0.4602210813550278,-9.727750650808217,-1.153017358201742,50,walking
1783066679578289700,6.6947197,-0.4058428638270124,-0.3883388078510761,0.3181360483992844,-0.0787224099040031,-0.1211227104067802,-0.0943645238876342,-0.4409561531864106,-9.72731225939095,-1.1641867677960545,50,walking
1783066679598215000,6.714645,-0.6854157746739685,-0.3582511281013488,0.173013291715458,-0.082958772778511,-0.2123742550611496,-0.174119770526886,-0.4201068053705618,-9.726575177288057,-1.1779792924355714,50,walking
1783066679618139600,6.7345696,-0.7747963320001959,0.0003255786925554,0.5680576616197824,-0.1901662796735763,-0.2093386352062225,-0.237157255411148,-0.383847560846433,-9.725273447039722,-1.2008751609850674,50,walking
1783066679638063900,6.7544939,-0.333084903467074,0.1096054531008005,0.6224760650277137,-0.2902102172374725,-0.2737116515636444,-0.2043141573667526,-0.3458210143888369,-9.720828742590546,-1.2475121898017822,50,walking
1783066679657988900,6.7744189,-0.0876987417191267,0.0675888506263494,0.40080841332376,-0.2350234389305114,-0.3138236403465271,-0.1424799561500549,-0.3203628576032817,-9.715023855704068,-1.298484398278594,50,walking
1783066679677913900,6.7943439,-0.2722863157690502,-0.103293201214075,0.2375247076578438,-0.1343064159154892,-0.3430555462837219,-0.1146192923188209,-0.3048658671334385,-9.710987147533894,-1.3319738492958246,50,walking
1783066679697837800,6.8142678,-0.4781054053528234,-0.1775175443321466,0.3718991297036409,-0.102900356054306,-0.4068264067173004,-0.1239398866891861,-0.2919298131927847,-9.708739660868048,-1.3511274625770746,50,walking
1783066679717763000,6.834193,-0.7054108802806586,-0.1655968049138784,0.566715599361062,-0.1724634617567062,-0.4927575588226318,-0.1772057712078094,-0.2759124521106481,-9.70599533059597,-1.374010325514525,50,walking
1783066679737687800,6.8541178,-0.9920240284953266,-0.0766641374856233,0.6209031166225671,-0.2014632672071457,-0.4838569164276123,-0.2098679393529892,-0.250416885924153,-9.70155530232191,-1.4097922713831066,50,walking
1783066679757613000,6.874043,-0.624399288175255,-0.1200251403063535,0.5232388612061739,-0.1649832129478454,-0.5456566214561462,-0.135357990860939,-0.2303306314352899,-9.69724912956059,-1.4424625149719417,50,walking
1783066679777536800,6.8939668,-0.5821005077585578,-0.2014911251157522,0.5672498523682356,-0.1437167227268219,-0.6306060552597046,-0.0950201228260994,-0.2278877865941263,-9.6931452013731,-1.4701632995851337,50,walking
1783066679797461800,6.9138918,-1.002413393627852,0.2447515901714563,0.7702714019216597,-0.1550328433513641,-0.6750180721282959,-0.1342636942863464,-0.2250639978776685,-9.689278589072822,-1.4958637041613458,50,walking
1783066679817386800,6.9338168,-0.8583974291421472,0.3209481101453304,0.7429977566793561,-0.1827735751867294,-0.7601448893547058,-0.1157669499516487,-0.2213875013220123,-9.684818687054516,-1.5250035816669465,50,walking
1783066679837311700,6.9537417,-0.7560252152305096,0.3903618381112814,0.7882721919059753,-0.1648243218660354,-0.8401570916175842,-0.1008468195796012,-0.2251485343559645,-9.679864279517531,-1.5556139701165257,50,walking
1783066679857236000,6.973666,-0.5272513117179274,0.4618839365333318,0.7768975420631468,-0.1210057139396667,-0.8869943022727966,-0.0283591393381357,-0.2393420227454975,-9.67566975043714,-1.5794038648962974,50,walking
1783066679877160700,6.9935907,-0.411431879473105,0.3573474572598934,0.5927507888495922,-0.1055502220988273,-0.9893222451210022,0.0072546377778053,-0.2677733135903254,-9.672288291305303,-1.5954723716437815,50,walking
1783066679897081600,7.0135116,-0.6131088094845414,0.193572607076168,0.6727678900249302,-0.0988205075263977,-1.0458189249038696,-0.0216771736741065,-0.3005782894747331,-9.668923783308268,-1.609947763980925,50,walking
1783066679917005600,7.0334356,-0.7230206981860101,0.1905424456000328,0.6573124006092548,-0.0557430870831012,-1.045013189315796,-0.0914955884218216,-0.3227965510236099,-9.66694225410223,-1.6175366116747258,50,walking
1783066679936930300,7.0533603,-0.5284978777129202,0.034142508098483,0.8113007469244301,-0.0855010226368904,-1.1208012104034424,-0.1103778034448623,-0.3373053707063198,-9.665566289573908,-1.6227851798526942,50,walking
1783066679956855600,7.0732856,-0.1737922767313197,-0.0900140329241752,0.8391700199723243,-0.1805561035871505,-1.241818070411682,-0.073628544807434,-0.3584686067769304,-9.66186860409975,-1.640180259028822,50,walking
1783066679976780300,7.0932103,-0.3510901138981804,0.02771393635571,0.8983606062181293,-0.2845393419265747,-1.2238810062408447,-0.1011741608381271,-0.3834808098932727,-9.65464917424023,-1.6766257833726703,50,walking
1783066679996704500,7.1131345,-0.5240616122985259,0.316485870039463,0.9693827922940254,-0.3601202070713043,-1.1890720129013062,-0.1452847570180893,-0.399800916781649,-9.644594813215733,-1.7298412407316266,50,walking
1783066680016629500,7.1330595,-0.0822508515767753,0.3406318847805261,0.7336433606177568,-0.3212319910526275,-1.2270333766937256,-0.116161435842514,-0.4155934195993468,-9.63342693799138,-1.7873912201635538,50,walking
1783066680036554500,7.1529845,0.2630789452290162,0.306821385115385,0.6337246042728424,-0.2656464874744415,-1.2279099225997925,-0.0582106113433837,-0.4447389231281354,-9.623707508009671,-1.8321721727848053,50,walking
1783066680056478500,7.1729085,0.310998597734794,0.5237275215059518,0.8558879305392503,-0.2969284057617187,-1.173135757446289,-0.0324002243578434,-0.4800892726464196,-9.614062896829845,-1.873423489975184,50,walking
1783066680076403700,7.1928337,0.4794007423929869,0.4387316090047359,0.7842249623417854,-0.3733033537864685,-1.243005394935608,-0.0079529313370585,-0.5224961896127089,-9.601341362422705,-1.926558429443836,50,walking
1783066680096328400,7.2127584,0.3857649022424593,0.3043430123031139,0.6863552474811673,-0.4543258845806122,-1.1790004968643188,-0.0040555684827268,-0.5689214753748849,-9.585314941251278,-1.9920926856279373,50,walking
1783066680116253700,7.2326837,0.4408863028205931,0.2312041263341903,0.7861237817004323,-0.5096654295921326,-1.1402919292449951,0.0357094183564186,-0.6176080936651677,-9.56544704222083,-2.071510505735874,50,walking
1783066680136177700,7.2526077,0.7883291827902197,0.1350818396627903,0.5328358338519931,-0.5041928887367249,-1.209721922874451,0.1122932136058807,-0.6814877875752746,-9.543098432290554,-2.152962754280865,50,walking
1783066680156102400,7.2725324,0.6411762354530394,-0.0027969372421503,0.3028099575169384,-0.4489347338676452,-1.2228606939315796,0.0857662931084632,-0.7562476258095353,-9.520588494318725,-2.2264014999791977,50,walking
1783066680176027600,7.2924576,0.1911662765868008,-0.1799281126052141,0.50593876683712,-0.3682959377765655,-1.1246839761734009,-0.0064163585193455,-0.8163521850951015,-9.50147521304786,-2.2860279934242365,50,walking
1783066680195952400,7.3123824,0.3861868905141949,-0.3017652707695961,0.3146367350414395,-0.2795705497264862,-1.1025121212005615,-0.0509764142334461,-0.8612861363209784,-9.48737829863429,-2.3277115645520388,50,walking
1783066680215876600,7.3323066,0.446374598038569,-0.3195861741423607,0.393378263323009,-0.2409080266952514,-1.0423619747161863,-0.0891434699296951,-0.8985794366005807,-9.476588024550676,-2.357371812669933,50,walking
1783066680235801300,7.3522313,0.326759280642122,-0.3926145854741334,0.631913317067176,-0.222917303442955,-0.9856988191604614,-0.1200141236186027,-0.9265067234460264,-9.467605092149972,-2.382523058930784,50,walking
1783066680255726600,7.3721566,0.369972253294289,-0.5578402189880609,0.8331096970200538,-0.2499237954616546,-0.9220898747444152,-0.1407165378332138,-0.948022097422555,-9.45890097669065,-2.408494243272394,50,walking
1783066680275650600,7.3920806,0.4425804664526134,-0.477228805181384,0.7827931759729981,-0.2332687526941299,-0.9484684467315674,-0.2195795029401779,-0.9586803426243364,-9.450626484820246,-2.4365875343345103,50,walking
1783066680295575600,7.4120056,0.6221981248691678,-0.551368392625451,0.7362126265838742,-0.2141793966293335,-0.908911406993866,-0.2411500066518783,-0.9599298312287776,-9.444422954005002,-2.4600372373744843,50,walking
1783066680315500500,7.4319305,0.7250798226729035,-0.5532938077300786,0.7333832483768463,-0.2579338252544403,-0.8713816404342651,-0.2192589789628982,-0.9600105683147908,-9.437710304623842,-2.4856398806646465,50,walking
1783066680335425500,7.4518555,0.4818196401029825,-0.6354273165374994,1.0687494677141307,-0.3584187626838684,-0.7686057090759277,-0.1588675379753112,-0.9655979399930684,-9.425755662935972,-2.528463707868754,50,walking
1783066680355349500,7.4717795,0.3519171027742326,-0.5522083505809307,0.901168795506656,-0.3787514269351959,-0.8178292512893677,-0.1760186105966568,-0.9753074331026524,-9.409764897599816,-2.583693719920516,50,walking
1783066680375274500,7.4917045,0.2376451191671192,-0.54301499029994,0.5533735949680209,-0.3374370038509369,-0.9131770133972168,-0.2522590458393097,-0.98164335812591,-9.395165294361114,-2.633934837643802,50,walking
1783066680395199500,7.5116295,0.158692286222428,-0.4279980335444212,0.4264145637452602,-0.3287610411643982,-0.8629689812660217,-0.3237016499042511,-0.9728707805402576,-9.38344036977589,-2.678609845672548,50,walking
1783066680415123500,7.5315535,0.3267801772996783,-0.4300029436260461,0.3484311603546142,-0.2779843211174011,-0.8248439431190491,-0.2463501244783401,-0.9633383244980126,-9.37245720346868,-2.7201868876859545,50,walking
1783066680435048700,7.5514787,0.6645517772782593,-0.349942149439454,-0.0468090974479913,-0.1708802878856659,-0.8951709270477295,-0.1511261612176895,-0.9735533559769391,-9.36408217383325,-2.74527924336642,50,walking
1783066680454973400,7.5714034,0.3987753000609576,-0.4590209483176469,-0.0604331336528062,-0.1143363118171691,-0.8417688608169556,-0.1227525174617767,-0.9961286873351782,-9.359600059983132,-2.752454541823268,50,walking
1783066680474898700,7.5913287,0.0419908835113048,-0.5820791727095842,0.1996881673470139,-0.14951191842556,-0.7589203119277954,-0.1033557876944542,-1.0192742197968063,-9.35475671160519,-2.760436772748828,50,walking
1783066680494822400,7.6112524,-0.0560959081660956,-0.6100409463465214,-0.0707113665610551,-0.099042572081089,-0.8267924189567566,-0.1498579829931259,-1.039849974835664,-9.349837959903478,-2.769410352799296,50,walking
1783066680514747600,7.6311776,-0.2659088714253157,-0.4461854321420192,-0.2408200959414243,-0.0031522088684141,-0.7972652316093445,-0.215233027935028,-1.0510519715253264,-9.351187036424877,-2.760610960271954,50,walking
1783066680534672400,7.6511024,-0.3588520896691828,-0.2438993572562932,0.0055193479433655,0.013418361544609,-0.7151167392730713,-0.228118821978569,-1.0493874723792076,-9.35625016503334,-2.7440371343508363,50,walking
1783066680554597600,7.6710276,-0.0964366863828152,-0.2972165214240551,-0.2310410447269678,0.0536822788417339,-0.7600435018539429,-0.2046694159507751,-1.04948808320947,-9.362788626891374,-2.721607860399782,50,walking
1783066680574521600,7.6909516,-0.2081605929423123,-0.1694528958201408,-0.0958177507668733,0.0652455538511276,-0.7396560311317444,-0.2639392018318176,-1.0468499167256056,-9.370842169487476,-2.6947739217489954,50,walking
1783066680594446300,7.7108763,0.0343204219486564,0.1598468630850315,-0.0348491950631141,0.1118858680129051,-0.7403793334960938,-0.2473901957273483,-1.037341206885129,-9.381114557176828,-2.6625182503104208,50,walking
1783066680614371600,7.7308016,0.3254780817251652,0.0998445220649242,-0.1488508372962474,0.1214921772480011,-0.7794816493988037,-0.2094677835702896,-1.0356581491690129,-9.39204044033885,-2.624382580922544,50,walking
1783066680634295600,7.7507256,0.3202282714381814,0.1415221018433571,-0.1564288713350892,0.0952740609645843,-0.7822877764701843,-0.1468961089849472,-1.0417805775720623,-9.401844625994563,-2.5865780431851744,50,walking
1783066680654220500,7.7706505,0.209198119296506,-0.0976005425304174,-0.1185150280043482,-0.0005194556433707,-0.7518969178199768,-0.0625068321824073,-1.0630303594149648,-9.406333754107356,-2.561494747593999,50,walking
1783066680674145500,7.7905755,0.0312912833858281,0.0831137520164251,-0.1309369949430227,-0.0769299119710922,-0.7220658659934998,-0.021851236000657,-1.0923717508420347,-9.405087553438545,-2.553711254110932,50,walking
1783066680694070500,7.8105005,-0.0856644594125449,0.1051905592679977,-0.156145670479536,-0.1421895772218704,-0.6380389332771301,0.0071718883700668,-1.1262504203725603,-9.39993031680584,-2.557980894254148,50,walking
1783066680713994500,7.8304245,-0.3674865008931607,0.2674468215823173,-0.2415209376871585,-0.1807456165552139,-0.5294333696365356,-0.036690380424261,-1.1550762634929268,-9.391300435626508,-2.576753983785212,50,walking
1783066680733919700,7.8503497,-0.5262399427182972,0.540019900137186,-0.4533689139053225,-0.1030342578887939,-0.4312802851200104,-0.1183050200343132,-1.1654129485901443,-9.385396764540673,-2.59355168159008,50,walking
1783066680753844500,7.8702745,-0.3430126424372196,0.758026106724143,-0.5285375521361828,0.0769965648651123,-0.3115609586238861,-0.1377312391996383,-1.159199115576595,-9.387626715549828,-2.588263512054086,50,walking
1783066680773768400,7.8901984,0.2906014141332358,0.6957476374655962,-0.8052016993969678,0.2847049832344055,-0.2805263996124267,-0.0715550407767295,-1.1538607502233236,-9.399569082278012,-2.546979607768357,50,walking
1783066680793693400,7.9101234,0.4085178186573088,0.7031254727572203,-0.7827212797805666,0.4405083656311035,-0.2449055612087249,-0.0128721576184034,-1.1599977186083792,-9.418917341348529,-2.4715976190477607,50,walking
1783066680813618400,7.9300484,0.2099289908543229,0.8382891454845667,-0.6138764328561723,0.5261132121086121,-0.2467351406812667,-0.0242280084639787,-1.1689560280244795,-9.44304932756424,-2.373339489391446,50,walking
1783066680833543400,7.9499734,0.0490107722107321,0.6612316198796033,-0.5244546667367219,0.4716512262821197,-0.2077882289886474,-0.0229444690048694,-1.175482434118539,-9.467105325934291,-2.272122217668593,50,walking
1783066680853467400,7.9698974,0.2125752675794064,0.6862099937915802,-0.3466130050167441,0.3592637479305267,-0.1898377239704132,0.0333506278693676,-1.1834239677075296,-9.485648113840815,-2.1891453899048265,50,walking
1783066680873392600,7.9898226,0.3692233346231282,0.4618383438259363,-0.3329499519757926,0.2773269414901733,-0.128829151391983,0.1857730895280838,-1.2109347827065735,-9.496656999111176,-2.1254460940629243,50,walking
1783066680893318000,8.009748,0.5004992061316966,0.6389777024954557,-0.24558394934237,0.192907840013504,-0.1974198073148727,0.2939441204071045,-1.2624535922154785,-9.500516597148776,-2.077689048240334,50,walking
1783066680913241900,8.0296719,0.7178504559412598,0.6552385169446467,-0.4211749095261097,0.011715542525053,-0.3314848244190216,0.3730665445327759,-1.338397598733008,-9.496277059882878,-2.0493420746780933,50,walking
1783066680933166800,8.0495968,0.5756966320656239,0.8250964864343404,-0.0902159852370619,-0.2448231279850006,-0.1983926594257354,0.3098985552787781,-1.417857066025585,-9.481631279414891,-2.063667098759115,50,walking
1783066680953091800,8.0695218,0.1627365931771695,1.064784363475442,0.1279730305708944,-0.4393647313117981,-0.0288917850703001,0.0885364785790443,-1.459944834040105,-9.46139863872528,-2.1262335911788046,50,walking
1783066680973016800,8.0894468,0.0562272063955664,0.6533914277732372,-0.6061544603019953,-0.4180546998977661,0.0599915608763694,0.066579557955265,-1.4717987918324769,-9.439812245339157,-2.2122699526436627,50,walking
1783066680992940800,8.1093708,0.7402560567557811,0.5373638326704502,-1.5413469598330556,-0.2149635553359985,-0.2754461467266083,0.139688491821289,-1.4930826951406897,-9.422693937277794,-2.270221790874749,50,walking
1783066681012865800,8.1292958,0.5496690413616597,-0.2171323463618755,-1.3560855233758686,-0.0654008165001869,-0.3178767263889313,0.1863132417201995,-1.5426643260419368,-9.411299267560244,-2.284298247022181,50,walking
1783066681032790800,8.1492208,-0.1767661414429545,0.1331885732620954,-0.87685122359097,-0.0046893209218978,-0.3434855341911316,0.0034373756498098,-1.576986720751971,-9.40653015346229,-2.280502069609612,50,walking
1783066681052715800,8.1691458,0.0722860685318708,-0.0808165809899568,-0.8840786906264722,-0.0040965136140584,-0.513932466506958,-0.1138743907213211,-1.5845235459975897,-9.40860111451745,-2.266690401878208,50,walking
1783066681072640000,8.18907,0.8603462251223624,-0.1808241846621036,-0.5936157351158559,-0.0948690101504325,-0.6409871578216553,-0.1162411570549011,-1.5862380948305128,-9.410646356609464,-2.256980616507679,50,walking
1783066681092564700,8.2089947,1.5471370875418184,-0.207433374646306,-0.2630634919315576,-0.1634681522846222,-0.6727991700172424,0.1630019247531891,-1.617017848497629,-9.404687740466,-2.2599764373227957,50,walking
