time,seconds_elapsed,acc_x,acc_y,acc_z,gyr_x,gyr_y,gyr_z,grav_x,grav_y,grav_z,fs_hz,activity
1783066706826062800,0.0,-0.4238767523633316,0.324087577214837,0.323907690603286,0.0739242509007453,-0.3805809617042541,-0.0715712308883667,-0.1395087161943316,-9.716539520964028,-1.3189979017361997,50,walking
1783066706845987000,0.0199242,-0.6735497611176222,0.106754739844799,0.2446282560527324,0.0390145145356655,-0.4626244604587555,-0.2067735940217971,-0.1238689105871599,-9.718426942145824,-1.306606183805317,50,walking
1783066706865912000,0.0398492,-0.3673626187851652,0.6081932726532221,0.1531996801555156,0.0593643151223659,-0.548895537853241,-0.2972094714641571,-0.0863386871459893,-9.72007646291852,-1.2973286523722112,50,walking
1783066706885837000,0.0597742,0.0101292437584605,0.7023486431658268,-0.1477057589143514,0.2083220332860946,-0.5631855726242065,-0.1920341551303863,-0.0517284245384391,-9.723700498634576,-1.27175684261173,50,walking
1783066706905761000,0.0796982,-0.383425791770406,0.2036404121041297,0.1906540892809629,0.3145196437835693,-0.239072173833847,-0.1267250776290893,-0.0325668608461739,-9.730468093073368,-1.2195623988635838,50,walking
1783066706925686300,0.0996235,-0.4160620234917849,0.4668640630334615,0.326925650184974,0.3143827319145202,-0.0412218160927295,-0.1193841770291328,-0.0113030653192952,-9.737959325611593,-1.1586112326860427,50,walking
1783066706945610200,0.1195474,-0.0107957927922368,0.8678969327628612,-0.0739846160780638,0.3931941986083984,-0.1637163162231445,-0.0170586053282022,0.0016679763092935,-9.745745741704106,-1.0912434774644673,50,walking
1783066706965535200,0.1394724,-0.0453925040817586,0.772407098776102,-0.0054331309646368,0.4159307181835174,-0.1433407962322235,0.0814575552940368,-0.0083274613125453,-9.754403679934144,-1.0109055468369277,50,walking
1783066706985459200,0.1593964,-0.0942320524780079,0.5854892734140157,0.4439629337869584,0.415911465883255,0.0415147989988327,0.2227024585008621,-0.0383467959544854,-9.7624654058367,-0.929087899045646,50,walking
1783066707005384200,0.1793214,0.1796159596498124,0.1950228058844804,0.1072556020390242,0.2716684639453888,0.1144846826791763,0.3899458646774292,-0.0961182406839449,-9.768388950666784,-0.8600823134891689,50,walking
1783066707025308400,0.1992456,-0.0036490240268409,-0.0871896231532096,0.1495692146986723,0.0583970844745636,0.115984246134758,0.4908820688724518,-0.1825002646481618,-9.76988766479194,-0.8284750960219651,50,walking
1783066707045233200,0.2191704,-0.0061946533890441,-0.1011427451819181,0.1448323223698884,-0.1473492085933685,0.1263990104198455,0.4913568496704101,-0.2760217759703285,-9.766857503315803,-0.8382526128664612,50,walking
1783066707065157000,0.2390942,0.2045714824091642,-0.149131407803297,-0.1832989772778004,-0.3253819942474365,0.1536849439144134,0.5466747879981995,-0.3739612133326008,-9.759421215835212,-0.8855623533129692,50,walking
1783066707085082400,0.2590196,0.8211199840188026,-0.3761895203739404,-0.6137076521605253,-0.4555371105670929,0.111842967569828,0.639995813369751,-0.486081608396396,-9.747093649181725,-0.9634729837283492,50,walking
1783066707105006300,0.2789435,0.8848069318357854,-0.8325298513054847,-0.7197329086869955,-0.4428634345531463,0.2410669922828674,0.7468233108520508,-0.618451777947694,-9.73008873836696,-1.0551183441814034,50,walking
1783066707124931300,0.2988685,0.9708377403426914,-0.6836246534734964,-1.0850454265419394,-0.2422840148210525,0.0914751067757606,0.6447446346282959,-0.7525165495224296,-9.71259575177431,-1.12674792156592,50,walking
1783066707144855300,0.3187925,0.9606060499899088,-0.5080512289464474,-1.3846546152561905,-0.0598657727241516,0.0326976776123046,0.5476081371307373,-0.8643887785114347,-9.700226099544762,-1.1527505970243364,50,walking
1783066707164780300,0.3387175,0.7606647846646607,-0.8259984037101268,-0.7171169540349394,-0.0947825908660888,0.204724833369255,0.5161572694778442,-0.965069532204792,-9.688735568237304,-1.1693640973687172,50,walking
1783066707184704300,0.3586415,1.0229442866116762,-0.6712719523787498,-0.6798400203682482,-0.1318793892860412,0.2159583121538162,0.4758221507072449,-1.0543684756621718,-9.676169516652822,-1.1960169803641736,50,walking
1783066707204629200,0.3785664,1.3729767446830867,-0.6467594424128532,-0.4886749128252267,-0.1940072029829025,0.1884300112724304,0.4703035354614258,-1.1413377340629696,-9.66177449607551,-1.232008185069263,50,walking
1783066707224553500,0.3984907,1.3361506965890526,-0.3882411926954984,-0.4187881605200469,-0.2355845272541046,0.0125090535730123,0.3388371765613556,-1.2186852507028727,-9.646604983994363,-1.276007193532586,50,walking
1783066707244478200,0.4184154,0.9741159582957624,-0.1182850186407566,-0.1138613569796085,-0.3183043599128723,0.0673521980643272,0.1944605112075805,-1.2680043582104146,-9.63329834317565,-1.3274481885649263,50,walking
1783066707264402200,0.4383394,0.8951254236891866,0.1093997013956308,0.3535112400978803,-0.4320577979087829,0.2315093129873275,0.1451889276504516,-1.2946581179887056,-9.618719782724977,-1.4051641731910407,50,walking
1783066707284327200,0.4582644,1.3974351863741874,0.4949485862672328,0.1318617085725069,-0.3761082589626312,0.1553778648376464,0.1218729019165039,-1.3148352290987968,-9.603090836438536,-1.4907207883149385,50,walking
1783066707304251100,0.4781883,1.5376958899796007,0.9030962564378976,0.0414151294499635,-0.2764232456684112,0.0668635740876197,0.0710488557815551,-1.3291010703384876,-9.59075625552237,-1.5560469547063112,50,walking
1783066707324176400,0.4981136,1.553537017711997,1.2378776616245508,0.367477952260524,-0.1385504454374313,0.0005766925169155,0.0062551754526793,-1.3362632170528173,-9.58316623878479,-1.5961518783405422,50,walking
1783066707344100400,0.5180376,1.485040696851909,1.177792318496108,0.3552437629789113,-0.0861788690090179,-0.0806218907237052,-0.0096671599894762,-1.335253309357911,-9.580243629336357,-1.6144437602259218,50,walking
1783066707364025300,0.5379625,1.4841785270646213,0.8529121295988559,0.599365384683758,-0.1008460521697998,-0.1008400022983551,0.0821832343935966,-1.3442669291578233,-9.576334931460025,-1.630068907120079,50,walking
1783066707383949300,0.5578865,1.6312169081114232,0.5841098017543555,0.4601531672179699,-0.0958753898739814,-0.1814276725053787,0.1438952088356018,-1.3712960981197655,-9.56984732300639,-1.6455825564637778,50,walking
1783066707403874000,0.5778112,1.6411698545880615,0.4558896645545959,0.5530944857656955,-0.1116373389959335,-0.2994201481342315,0.1728721261024475,-1.4090820772871375,-9.562235678958892,-1.6578692065849898,50,walking
1783066707423798300,0.5977355,1.658123619737476,0.2502770755946636,0.5780746132433414,-0.2334510535001754,-0.4328994452953338,0.2210696339607238,-1.4576093768298626,-9.551302197012305,-1.6788088265001773,50,walking
1783066707443723300,0.6176605,1.5658536245800554,-0.2209615492612123,0.6377108974300325,-0.3199376761913299,-0.429260641336441,0.304777055978775,-1.5224588656201958,-9.533915008881689,-1.719590772613138,50,walking
1783066707463647500,0.6375847,1.5369142380826175,-0.483821627575159,0.4320307961918413,-0.3404682278633117,-0.470230370759964,0.3511479794979095,-1.6012581154383718,-9.511819496929643,-1.7696410439394414,50,walking
1783066707483572200,0.6575094,1.3725387916572391,-0.6511684910267591,0.1992589821495115,-0.2897897362709045,-0.5551597476005554,0.2837655246257782,-1.681091238348931,-9.489920384332535,-1.8126511874958875,50,walking
1783066707503496200,0.6774334,1.0940345694877207,-0.928515359854698,0.2023690769940614,-0.236211895942688,-0.515540599822998,0.2045891731977462,-1.7461551005423068,-9.47219592707157,-1.8435940227702257,50,walking
1783066707523421200,0.6973584,1.2616937137588855,-1.1660831760019064,0.1023801780223846,-0.1802033931016922,-0.4659222364425659,0.2018478810787201,-1.8009874915786086,-9.457588140526411,-1.8657095545969904,50,walking
1783066707543345200,0.7172824,1.682277087132633,-1.3611878149509429,-0.1186360240355133,-0.153607964515686,-0.4542006552219391,0.2707691192626953,-1.8616919895187016,-9.443094920271635,-1.879474606707692,50,walking
1783066707563270400,0.7372076,1.7823783604376018,-1.4847826304376124,-0.2201893958449363,-0.2173517048358917,-0.3610917627811432,0.3757990002632141,-1.937403210193664,-9.42439664954245,-1.896733784544468,50,walking
1783066707583194400,0.7571316,1.5683502637013793,-1.8008493982821705,-0.2492930329933762,-0.3099645674228668,-0.2512932121753692,0.5237213969230652,-2.033274006322026,-9.396231462287902,-1.9357146725848315,50,walking
1783066707603119400,0.7770566,1.052517587098479,-2.304017531362176,-0.5356693037122487,-0.2924970090389251,-0.2959823310375213,0.4337461590766907,-2.138138256245106,-9.36277752097547,-1.984227943602204,50,walking
1783066707623043300,0.7969805,0.3216716021142899,-2.4377257445842027,-0.6179299460306763,-0.1397930085659027,-0.2583355605602264,0.1322686225175857,-2.202915410451591,-9.342044529548287,-2.010903184559941,50,walking
1783066707642968000,0.8169052,-0.1306213531225919,-3.15831322427392,-0.4504842983797192,0.0029825561214238,0.0700818002223968,-0.0668201148509979,-2.2107585251674053,-9.338223509955403,-2.020032831954956,50,walking
1783066707662892300,0.8368295,0.0472239618591964,-3.468062479534745,-0.8636451205372809,0.4078919589519501,0.1414206326007843,-0.3427150249481201,-2.170132354138046,-9.353785236224532,-1.9918892720103265,50,walking
1783066707682817300,0.8567545,0.1329676239877939,-2.810273109063506,-1.2745941118642687,0.8009032607078552,0.0962299779057502,-0.7432876229286194,-2.064490105579793,-9.400904130274055,-1.879168317237496,50,walking
1783066707702741200,0.8766784,-0.5545141433052718,-1.712043572103977,-0.4484405175924301,0.866375207901001,0.2968730032444,-1.0498851537704468,-1.8871229295037688,-9.467680495473742,-1.7239986521832644,50,walking
1783066707722666200,0.8966034,-0.7197725100450217,-1.3200707916647194,0.039856063439697,0.6253817677497864,0.4187333881855011,-1.0959705114364624,-1.6667977784499526,-9.531799039641022,-1.592795115258545,50,walking
1783066707742591500,0.9165287,-0.8831468166038393,-1.607716936188936,0.0310924728780984,0.2653366327285766,0.4803612828254699,-0.9645487666130066,-1.456736539518088,-9.577993220061064,-1.519986484157294,50,walking
1783066707762515200,0.9364524,-1.8701551358290016,-1.4697972427517174,0.0577430177859961,-0.0543767921626567,0.5780125856399536,-1.0446237325668335,-1.2527819468982515,-9.607127544608712,-1.517906755273789,50,walking
1783066707782440200,0.9563774,-2.8078140254735944,-0.1114233161777257,0.1732460044927894,-0.0094367954879999,0.6869196891784668,-1.278216004371643,-1.010339218191057,-9.631480480098723,-1.5440759464055298,50,walking
1783066707802364400,0.9763016,-2.5736080869749185,1.3038304354816674,0.0563929183512926,0.3402787446975708,0.7504640221595764,-1.3773136138916016,-0.7291929570801555,-9.65959422942698,-1.526732159025222,50,walking
1783066707822289200,0.9962264,-1.9716969633311032,2.0143325744867324,-0.0723597182899713,0.6858651638031006,0.606040358543396,-1.262918472290039,-0.4519832317005842,-9.690741647362708,-1.4337426174215973,50,walking
1783066707842213000,1.0161502,-1.7802298041015865,2.4763088654786345,0.3004062573760748,0.8488154411315918,0.366215318441391,-1.1592975854873655,-0.2062095867387019,-9.719965988281368,-1.2845726311735808,50,walking
1783066707862138400,1.0360756,-1.8484945081628856,2.6226187861204147,0.7469314428664744,0.7049360275268555,0.2397686392068863,-1.0650235414505005,0.0184266267390397,-9.741327925261857,-1.129853851692006,50,walking
1783066707882062000,1.0559992,-1.7127689637690782,2.3264818766266107,1.0160032353021204,0.3990899622440338,0.1413964629173278,-0.8562138080596924,0.2108563348323106,-9.751049693331122,-1.0212406975641846,50,walking
1783066707901987300,1.0759245,-1.194071106993407,2.1826456526219844,0.7335755560785532,0.0895353928208351,-0.069392405450344,-0.576648473739624,0.3519105269029736,-9.75176397908032,-0.9744920981317758,50,walking
1783066707921911600,1.0958488,-0.9435955862171947,2.1133844848692416,0.4604537575997412,-0.1410773396492004,-0.2443435788154602,-0.2987322807312011,0.4331818293904885,-9.747744222044943,-0.9819407336372882,50,walking
1783066707941836500,1.1157737,-0.9233169144287704,2.0877087763428688,0.4062896212138235,-0.2508362233638763,-0.3209948241710663,-0.0516988448798656,0.4610861372191459,-9.74211995242238,-1.0241429218117146,50,walking
1783066707961760500,1.1356977,-0.7586972839839756,1.8643407504618168,0.2374240237623453,-0.3156970739364624,-0.4750427007675171,0.1337430775165558,0.4437100915370509,-9.736624862137436,-1.082427718324214,50,walking
1783066707981685800,1.155623,-0.9987197998069226,1.4167320075184109,0.175564072176814,-0.3954896628856659,-0.5556465983390808,0.2176152318716049,0.3952311611806973,-9.73014835959971,-1.1568876237638297,50,walking
1783066708001609500,1.1755467,-1.071138116416335,1.6632506073623894,0.3771880298919975,-0.3933242261409759,-0.5935633182525635,0.1951940804719925,0.341505197016336,-9.722132226404549,-1.238501931002736,50,walking
1783066708021534700,1.1954719,-0.7107122746244072,1.5620365505099296,0.2339560553908348,-0.3969916403293609,-0.6585465669631958,0.2230357229709625,0.2864896131665446,-9.71354501532316,-1.3173321604810655,50,walking
1783066708041458700,1.2153959,-0.4795490648224949,1.224143150782585,0.5227811805665493,-0.4687090218067169,-0.6199809908866882,0.3081650137901306,0.2185809194686822,-9.703208330225944,-1.403697900030762,50,walking
1783066708061383400,1.2353206,-0.0081490936587564,1.1907160974770783,0.7501544965662061,-0.497270405292511,-0.6067785620689392,0.4100514650344848,0.1316002537578809,-9.690430097195506,-1.4995393239341674,50,walking
1783066708081307600,1.2552448,0.507877808608301,0.957296048659086,0.5785720413714647,-0.4726696014404297,-0.6710923314094543,0.5010921955108643,0.0237845016520237,-9.67623030692935,-1.5938633290119468,50,walking
1783066708101232600,1.2751698,0.6502266070667654,0.7117904252499342,0.6972093805812298,-0.4804781079292297,-0.7787688970565796,0.5161576271057129,-0.0998596465688198,-9.660269936731456,-1.6851171328641472,50,walking
1783066708121156600,1.2950938,0.6617857466310262,0.3815273742705583,1.1100896322317422,-0.488067626953125,-0.5829653739929199,0.5061714053153992,-0.221102857428044,-9.641849898421764,-1.7765752271167934,50,walking
1783066708141081600,1.3150188,1.0472028948817402,-0.1543126098334789,1.1643700884737074,-0.4298991560935974,-0.4021291434764862,0.5293104648590088,-0.338519130410254,-9.621960372081398,-1.863775956185907,50,walking
1783066708161005600,1.3349428,1.6344674343399703,-0.4408253664135932,0.9647335051834582,-0.2661908864974975,-0.198853924870491,0.554602861404419,-0.4530784430587664,-9.604197336375712,-1.929896195564419,50,walking
1783066708180930600,1.3548678,1.8641313454948365,-0.526910827717185,0.8289183828100561,0.0207724180072546,-0.1814797967672348,0.4987367689609527,-0.5634816954737529,-9.593680034014582,-1.952996208383888,50,walking
1783066708200854500,1.3747917,1.5397440546810626,-0.5579916101574898,0.5898614971488714,0.2978655099868774,-0.1662624329328537,0.3148383498191833,-0.649699368322268,-9.595069442546366,-1.9190923313468693,50,walking
1783066708220779800,1.394717,1.460152339310944,-0.6413835945934057,0.8161459949985146,0.4332354366779327,-0.0376311466097831,0.1668014079332351,-0.6968509225323796,-9.606247254642843,-1.845203503793478,50,walking
1783066708240703500,1.4146407,1.525153219270706,-1.2062106037288904,0.75577511292696,0.4235450029373169,0.1373116374015808,0.1242661997675895,-0.7224968204423785,-9.619621115478871,-1.763883357195556,50,walking
1783066708260628700,1.4345659,1.5965575365319846,-1.3461691095173358,0.5048926187850534,0.4225081503391266,0.1386147290468216,0.0661338046193122,-0.7353928346335887,-9.632890346896648,-1.6843359193585812,50,walking
1783066708280552700,1.4544899,1.2791881616562604,-1.659737630805373,0.2849154043860733,0.3571791052818298,0.18057581782341,0.0402222238481044,-0.740193293717876,-9.64508347351551,-1.6108537729099393,50,walking
1783066708300477400,1.4744146,1.025422513293475,-1.6516098539292812,0.1851930473960936,0.2778525650501251,0.3117121458053589,0.0301676336675882,-0.739315414904803,-9.65455857334733,-1.5534790039144457,50,walking
1783066708320401700,1.4943389,0.9584197919920088,-1.5005571226745844,0.0250556769318878,0.2615257203578949,0.3508331179618835,0.0153262969106435,-0.7333646898068488,-9.662107673552631,-1.5087123720794915,50,walking
1783066708340326700,1.5142639,0.9319642581995576,-1.2477309471189977,-0.2322913370490074,0.3609468042850494,0.2882193326950073,-0.009053049609065,-0.7242671180505305,-9.67102572402358,-1.455022429076582,50,walking
1783066708360250600,1.5341878,0.8029017518915236,-1.5666022509902715,-0.3762963417492806,0.4669550955295563,0.2626883387565613,0.0134723195806145,-0.7170099865291267,-9.683001993021367,-1.3768576777696608,50,walking
1783066708380175600,1.5541128,0.317334961149469,-1.993800074067712,-0.3499477023974061,0.4249972701072693,0.3374127149581909,0.0427135154604911,-0.7147724367354065,-9.694690677249431,-1.2932228244885802,50,walking
1783066708400099600,1.5740368,-0.1111112545538693,-2.046741975182295,-0.4758434152375906,0.3583127558231354,0.3858239352703094,0.0555677860975265,-0.714888391265273,-9.70384955073893,-1.222543314370513,50,walking
1783066708420024600,1.5939618,-0.6355216437574476,-2.156717430639267,-0.7138595596741885,0.3409300446510315,0.4504871368408203,0.0801726877689361,-0.7186985972031951,-9.711040923547744,-1.1616979466550053,50,walking
1783066708439949600,1.6138868,-1.067614545400068,-1.8491613015085455,-0.932839798925072,0.4535349309444427,0.495427519083023,0.0220139268785715,-0.7186096768107265,-9.718874101391432,-1.0943009653389453,50,walking
1783066708459873800,1.633811,-1.4606103122115135,-1.6513205155938864,-1.1706435427200048,0.6324736475944519,0.556870698928833,-0.1106328889727592,-0.7007553095597774,-9.730713592267035,-0.99625823199898,50,walking
1783066708479798500,1.6537357,-1.92639330201,-0.9952274276465176,-1.0731026214223354,0.7694469690322876,0.5844680666923523,-0.3732823133468628,-0.6446800057902932,-9.746956286537646,-0.866948619062081,50,walking
1783066708499722500,1.6736597,-1.7480638567730784,0.2825958753973245,-0.7594260366499423,0.8082236051559448,0.6718114614486694,-0.5780200362205505,-0.5391469532275572,-9.765430100861192,-0.7183950842119753,50,walking
1783066708519647500,1.6935847,-1.0311714322090149,0.9941285264939068,-0.5697059402834623,0.6917780637741089,0.7042070031166077,-0.5275185704231262,-0.4182182516776025,-9.780697812619804,-0.5774157474758104,50,walking
1783066708539571500,1.7135087,-0.2680914030961692,1.4825070867210626,-0.607862981252931,0.5256152153015137,0.5707696676254272,-0.3363226354122162,-0.3276159340040758,-9.79023720985949,-0.4629437477845698,50,walking
1783066708559496700,1.7334339,-0.262114721573051,1.7535335203558209,-0.6432751074284315,0.2720165848731994,0.4484292864799499,-0.2324040830135345,-0.2690987900404259,-9.795358206135036,-0.3859322946986183,50,walking
1783066708579420700,1.7533579,-0.5498869949612766,1.746048133036494,-0.289167033948563,-0.0454993173480033,0.4746511876583099,-0.1466943323612213,-0.2289767874072305,-9.797148596683144,-0.3657966115774587,50,walking
1783066708599345700,1.7732829,-0.3550016978513449,1.6182845074325798,-0.6516361085385084,-0.2605857849121094,0.4541356563568115,-0.020822862163186,-0.2074859450837597,-9.7962782435894,-0.4003163920231163,50,walking
1783066708619269600,1.7932068,-0.0526350088561885,1.3509902460634708,-1.0200918197900055,-0.3381967544555664,0.4128294289112091,0.1378886848688125,-0.2155155953476205,-9.793393628063797,-0.4619189713140949,50,walking
1783066708639194400,1.8131316,-0.0253708803609013,1.2694319067955016,-1.1851789216160773,-0.3213711678981781,0.3503386974334717,0.2207238674163818,-0.2481668054424226,-9.789198514461516,-0.5295183433344587,50,walking
1783066708659118600,1.8330558,-0.1029174449705518,0.9681856914639472,-1.5080220517277716,-0.2353861778974533,0.3271300494670868,0.260669082403183,-0.2919760634873062,-9.784832720467447,-0.5849594043210149,50,walking
1783066708679043600,1.8529808,-0.2384225698130205,0.5578302821159362,-1.4789543626755477,-0.1911012828350067,0.4126779735088348,0.2603356540203094,-0.3387296313557774,-9.780593183201551,-0.6289906345535069,50,walking
1783066708698967800,1.872905,-0.0441512033503502,0.4810445640772581,-1.647939640983939,-0.1397849321365356,0.3666174709796905,0.287980318069458,-0.3862065450627356,-9.776532509633896,-0.6638114072397351,50,walking
1783066708718892500,1.8928297,-0.0283145691299811,0.1698573849678039,-1.5306003787606954,-0.1517360657453537,0.4027622938156128,0.3039619922637939,-0.4400512402359396,-9.772102418231963,-0.6948100643545388,50,walking
1783066708738816500,1.9127537,-0.2095361556118354,0.3776303668320179,-1.2499094602018594,-0.1821591407060623,0.5267094969749451,0.2246161997318267,-0.4855303677218034,-9.767240365153553,-0.7318908909272402,50,walking
1783066708758741500,1.9326787,-0.2335107593087479,0.5988643032938241,-1.049151325535774,-0.1515544801950454,0.6063717007637024,0.1027902960777282,-0.5092904518852011,-9.76297043274939,-0.7716390370130538,50,walking
1783066708778665500,1.9526027,0.1496323430627584,0.8832242657542229,-0.9627116439670323,-0.0667943134903907,0.5837615728378296,0.0140053918585181,-0.5104086422601715,-9.760774384009837,-0.798223896273598,50,walking
1783066708798590700,1.9725279,0.5935538488607853,1.076746603947878,-0.6618004327435046,-0.0488511137664318,0.584162712097168,0.0064611029811203,-0.5016763601522892,-9.759918643963337,-0.8140751070085912,50,walking
1783066708818514700,1.9924519,0.974106752076,1.17486035669744,-0.4150211361367255,-0.1344930082559585,0.6411808133125305,0.0773941501975059,-0.4984087366584688,-9.758223530483246,-0.8360985766377299,50,walking
1783066708838439700,2.0123769,1.1715136766180396,0.986834277832508,-0.2864887911826372,-0.2547775506973266,0.6750237345695496,0.1822507679462433,-0.5132579672766849,-9.753502931702135,-0.8809837933510541,50,walking
1783066708858363600,2.0323008,0.9895216172203422,0.8917670531719922,-0.3053606649130582,-0.2993455231189728,0.6362334489822388,0.1698776483535766,-0.537167287185043,-9.746422033530472,-0.9429159333899616,50,walking
1783066708878288400,2.0522256,0.7511869083538651,0.7231956163614988,-0.0855190595924854,-0.3381907939910888,0.6078381538391113,0.0993551388382911,-0.5512710697308182,-9.738711605283616,-1.0119231263816355,50,walking
1783066708898212600,2.0721498,0.7090756133332848,0.5249310520768166,-0.0439369030125439,-0.3159455955028534,0.5649331212043762,0.0331058241426944,-0.5512080874972045,-9.731087101754545,-1.0828343994289635,50,walking
1783066708918137600,2.0920748,0.818853208130598,0.4304296446055173,-0.0576496404141187,-0.2658950090408325,0.552520215511322,-0.000301636144286,-0.5415747648963705,-9.72442121412456,-1.1457361151523888,50,walking
1783066708938061600,2.1119988,0.7956545572422444,0.3821165723353624,-0.0390313761185854,-0.2134567201137542,0.5762509107589722,-0.047056894749403,-0.5245111096316948,-9.719053549611568,-1.1980228402938693,50,walking
1783066708957986300,2.1319235,0.6713774585798382,0.3538666294068098,0.0086649524927139,-0.0922572463750839,0.5651041865348816,-0.135402575135231,-0.493158962904103,-9.716092946240304,-1.2347951854392885,50,walking
1783066708977911600,2.1518488,0.7919610364865511,0.1764671584963798,-0.3259187381647527,0.1058553457260131,0.48938649892807,-0.2065836191177368,-0.4458491493923589,-9.717958155590296,-1.2380934963323176,50,walking
1783066708997835500,2.1717727,0.7602228130508214,-0.2854711385726928,-0.3156307145148515,0.2661181092262268,0.45138680934906,-0.2221142500638961,-0.393311372099258,-9.724386727333068,-1.204986322630942,50,walking
1783066709017760300,2.1916975,0.656406537810713,-0.5371873070597648,-0.2443148792546242,0.3894916176795959,0.381115972995758,-0.2605553269386291,-0.3367806892450898,-9.733937230488657,-1.143424184948206,50,walking
1783066709037684500,2.2116217,0.5475483228806406,-0.5867559323489666,-0.0153260178171098,0.4584046006202698,0.3227693140506744,-0.2770803570747375,-0.2768537880813703,-9.74497125020027,-1.0626630604725331,50,walking
1783066709057609200,2.2315464,0.6880594941157847,-0.4606745607435703,0.0145505033999681,0.4892716705799103,0.2269057631492614,-0.2756237089633941,-0.2164017122660763,-9.756131526640058,-0.9702860978092998,50,walking
1783066709077533400,2.2514706,0.8222677658144384,-0.5149789823830128,0.1559696563255041,0.3642033338546753,0.1294458508491516,-0.2254156619310379,-0.1638623640703968,-9.765275202560424,-0.8848544242393225,50,walking
1783066709097458400,2.2713956,0.9058663787383584,-0.6585556786686182,0.4241542175978421,0.0675758048892021,0.0447970144450664,-0.1599301695823669,-0.1253565005301032,-9.769688927349447,-0.8413437107495964,50,walking
1783066709117382400,2.2913196,0.8561478966496884,-0.8273942419826984,0.3703548228710889,-0.191209077835083,-0.007251601666212,-0.1177649721503257,-0.0983831442754715,-9.768743755453825,-0.8557794286634772,50,walking
1783066709137307400,2.3112446,1.0245996526032686,-0.6469763000339269,0.0572048923213034,-0.3439343869686126,-0.0611318796873092,-0.0658680349588394,-0.0808351486931089,-9.764059397029875,-0.9093909726679325,50,walking
1783066709157231400,2.3311686,1.1465782650649547,-0.5163526088237762,-0.3202793440382927,-0.3816993236541748,-0.0766089707612991,-0.0097346240654587,-0.0741256319839507,-9.7571661303848,-0.9811187497299164,50,walking
1783066709177156400,2.3510936,1.610392439008504,-0.1574573375999927,-0.6488211972482502,-0.4297823011875152,-0.0705609992146492,0.1467927396297454,-0.0864830457864329,-9.74900211315155,-1.058244951769337,50,walking
1783066709197080300,2.3710175,1.9398242998607456,-0.3638070086628198,-0.9403747244745492,-0.5677759051322937,-0.1017500013113021,0.4158788323402405,-0.1411804305325262,-9.737478848618268,-1.15410281535089,50,walking
1783066709217005600,2.3909428,1.3896744892448183,-1.3001912021964788,-1.4492881232082844,-0.626661479473114,-0.055374190211296,0.6243289709091187,-0.2491365272574126,-9.720767952314018,-1.2708243840672075,50,walking
1783066709236929500,2.4108667,-0.1518287205958738,-1.7247031471908092,-1.7895890224687754,-0.5511874556541443,-0.0404208116233348,0.453213632106781,-0.3609792744236066,-9.701474638301134,-1.3861695498637854,50,walking
1783066709256854300,2.4307915,-1.5650712420307098,-1.7608312761485576,-1.7417082041360437,-0.4399534463882446,0.2286001443862915,0.0520462729036808,-0.4084992966199293,-9.685399117290974,-1.4820844773948192,50,walking
1783066709276778500,2.4507157,-1.7822718313232062,-0.8262585159510374,-1.2468090099684894,-0.3642183542251587,0.5005517601966858,-0.2617837786674499,-0.3729583929656073,-9.674260468161105,-1.5620384502060711,50,walking
1783066709296703200,2.4706404,-0.9166679779335856,0.0691600454658269,-1.2985491340778768,-0.2426880598068237,0.6507074236869812,-0.2834861874580383,-0.2982397452582605,-9.666467037805914,-1.625070368180424,50,walking
1783066709316627500,2.4905647,-0.6182401810236274,0.5973299333333969,-1.3933259974896908,-0.1180921271443367,0.751969575881958,-0.2379877418279647,-0.2267632760762236,-9.661927056288718,-1.6631719891682266,50,walking
1783066709336552400,2.5104896,-1.2924931950397789,1.0284177495867013,-0.8096792832024395,0.0107087343931198,0.9879385828971864,-0.2842998206615448,-0.1480680620212573,-9.66101227953136,-1.677297691284865,50,walking
1783066709356476400,2.5304136,-1.3926178492203354,1.478280408936739,-0.5667736131586134,0.1655109375715255,1.1055456399917605,-0.3221156001091003,-0.0522828572505386,-9.664505382344126,-1.662826828992367,50,walking
1783066709376401400,2.5503386,-1.04653610153608,1.5341221231460571,-0.4329300831191242,0.3074381351470947,1.1410998106002808,-0.2546429932117462,0.0415699866515351,-9.67231225670278,-1.61710479612872,50,walking
1783066709396325400,2.5702626,-0.5861041173767298,1.5780694014221428,-0.458369060280174,0.4480106830596924,0.992096483707428,-0.1097358167171478,0.111752812993573,-9.684086865648627,-1.5415375139690934,50,walking
1783066709416250400,2.5901876,-0.3723582351153716,1.2351707407534125,-0.4136030129671096,0.4441433548927307,0.9041638374328612,0.0947138518095016,0.1422156553317792,-9.697775783783197,-1.450282687203586,50,walking
1783066709436174300,2.6101115,-0.4292566918360069,0.807357416126132,-0.2037925339259207,0.3759416043758392,0.807532012462616,0.2714227735996246,0.1298318101800978,-9.709898183253406,-1.3680011482276022,50,walking
1783066709456099300,2.6300365,-0.5496525286182761,0.4499176044076681,-0.1541711555361747,0.2467822432518005,0.7644512057304382,0.3981605172157287,0.0848780582752078,-9.71906933170259,-1.3049449725948274,50,walking
1783066709476023600,2.6499608,-1.0229903177104889,0.0855839415222406,0.0602741436988115,0.0764234513044357,0.7066267132759094,0.3832063376903534,0.02505722500158,-9.723592362084984,-1.2733859051182863,50,walking
1783066709495948300,2.6698855,-1.2643318071775138,0.2394733575075864,0.0837557031817734,-0.0608011521399021,0.6373143792152405,0.2444974035024643,-0.0188105217648902,-9.72380395900905,-1.2718779847733677,50,walking
1783066709515873500,2.6898107,-1.000564770086482,0.5043675719976425,0.0512760137289762,-0.1920750141143798,0.6299145221710205,0.1630842983722686,-0.0404639525052392,-9.720397949957848,-1.2971587026327849,50,walking
1783066709535797200,2.7097344,-0.424551327156648,0.9863310044854878,0.0071809975452721,-0.2850476205348968,0.6794827580451965,0.1955444365739822,-0.0568327619401272,-9.713943074730038,-1.3440432034045455,50,walking
1783066709555722500,2.7296597,0.0872454997926019,1.375335582768917,0.0646422757804393,-0.3253170847892761,0.7587255835533142,0.297589510679245,-0.0835046966959256,-9.70491279605627,-1.4064426686942575,50,walking
1783066709575646500,2.7495837,0.4757995030306279,1.59012282730937,-0.0888081642657518,-0.181709811091423,0.682022213935852,0.3449122607707977,-0.1263956343194935,-9.696590373390912,-1.4596419055707752,50,walking
1783066709595571200,2.7695084,0.4151202856622636,1.526758900901675,0.019691519550234,0.083792008459568,0.7183672189712524,0.3159296214580536,-0.1703131293786689,-9.694128367191553,-1.4714755512274802,50,walking
1783066709615495400,2.7894326,0.7137792609795928,1.3470593363553285,0.3548552020527422,0.3019335269927978,0.7746716737747192,0.3323260247707367,-0.209949503919389,-9.698782914999128,-1.43523870119825,50,walking
1783066709635420400,2.8093576,1.11792419831492,0.8645411925941705,0.3840456407018006,0.4432689845561981,0.7799765467643738,0.3841080367565155,-0.2576575960337184,-9.70767407746315,-1.365668029104918,50,walking
1783066709655344400,2.8292816,1.1228215419024228,0.739517805609107,0.5099176073402166,0.4989891946315765,0.6786810755729675,0.3858218789100647,-0.3137311279712245,-9.718073306402564,-1.2771094556860625,50,walking
1783066709675269400,2.8492066,0.7672032465226948,0.2997708820819854,0.7624416581440716,0.4188012182712555,0.6339110732078552,0.328304260969162,-0.3672217855423689,-9.727238609632847,-1.1901060758199542,50,walking
1783066709695193300,2.8691305,0.492724334346503,0.0386743063092231,0.9795675016999243,0.2175554186105728,0.676224946975708,0.2460531890392303,-0.4074307906055823,-9.73249755307436,-1.1326466972809284,50,walking
1783066709715118300,2.8890555,0.550514442677237,-0.2350292375802993,0.8793674441955983,0.0127533543854951,0.6792020797729492,0.201435774564743,-0.4346948643019422,-9.733230543524028,-1.1160945717349648,50,walking
1783066709735042300,2.9089795,0.8988039660714566,-0.2844114003866911,0.6363105291128158,-0.1699682921171188,0.6743590831756592,0.2649679481983185,-0.4632090476572513,-9.729336458694934,-1.1383444705311208,50,walking
1783066709754967600,2.9289048,1.0155473082281647,-0.21188333979249,0.4640865611441433,-0.2817243635654449,0.6639018654823303,0.2766656577587127,-0.5016917403845116,-9.72120985086262,-1.1902774868641048,50,walking
1783066709774891300,2.9488285,0.8387709376521408,-0.3005044570535421,0.4335198657058179,-0.3109610080718994,0.7052122354507446,0.2479737401008606,-0.5354554417658597,-9.711299866744875,-1.2547313274003564,50,walking
1783066709794816500,2.9687537,0.8712543534319848,-0.7024807451128959,0.1398747730277478,-0.2979067265987396,0.714658260345459,0.2392110973596573,-0.5635994401019067,-9.700775550121069,-1.3220121349908411,50,walking
1783066709814740500,2.9886777,0.8959658931013196,-0.9120639912694692,-0.0526752130024135,-0.2337541133165359,0.8063626289367676,0.2637417316436767,-0.5914532598523423,-9.690657476210594,-1.3826483900003137,50,walking
1783066709834665200,3.0086024,0.8811980206236243,-1.1429618281334637,-0.1406127319134771,-0.1498386114835739,0.8924447298049927,0.2914829850196838,-0.6211279383543878,-9.68197323449552,-1.4296844280719756,50,walking
1783066709854589400,3.0285266,0.7061246545732021,-1.5140221689254043,-0.0615045622766017,-0.0754074677824974,0.9929490685462952,0.3599123656749725,-0.655846492775157,-9.67468073939979,-1.4631528363011777,50,walking
1783066709874514400,3.0484516,0.7610384402826428,-1.9453379487156868,-0.1032766884706914,0.0175607167184352,1.0413122177124023,0.4019964635372162,-0.7014825278557837,-9.668335169765353,-1.4837795908749103,50,walking
1783066709894438400,3.0683756,0.5829626044806092,-2.2098931405097244,-0.3612986791037023,0.1515756696462631,0.9833703637123108,0.245499238371849,-0.7367901342108846,-9.665945644280312,-1.4822361608251928,50,walking
1783066709914363400,3.0883006,0.1123570898965001,-2.4988041904032228,-0.4101471734248101,0.2534509003162384,1.168215036392212,0.0335857421159744,-0.731557421189174,-9.670173491108416,-1.4570307001590728,50,walking
1783066709934287400,3.1082246,0.2028708890363574,-2.5121242752254007,-0.509026357588917,0.3572703301906585,1.2749205827713013,-0.0168506391346454,-0.6942808528486639,-9.678852472126485,-1.4171087318763136,50,walking
1783066709954212000,3.1281492,0.7828411067679524,-2.736704014983773,-1.091809294653684,0.4384562075138092,1.100884199142456,0.1140615493059158,-0.6679195001456886,-9.689503045478462,-1.3556636447019874,50,walking
1783066709974136300,3.1480735,0.1716756864361464,-2.790176661974192,-1.6011464717574415,0.4755861163139343,1.0337384939193726,0.2106549143791198,-0.6753560068219899,-9.699177467274666,-1.2807242851823568,50,walking
1783066709994061300,3.1679985,-1.486548617196828,-1.7333324438482522,-1.330020669401437,0.6162848472595215,1.179280161857605,0.0276808217167854,-0.6751163528472185,-9.710353525805472,-1.1931688243914396,50,walking
1783066710013985300,3.1879225,-1.9472845527388156,-0.3749070793479681,-1.800148556536436,0.8413099646568298,1.225024938583374,-0.35212242603302,-0.6163068018082529,-9.728922617197036,-1.067057276843488,50,walking
1783066710033910300,3.2078475,-1.285969784620404,0.9493874674916268,-1.631426897600293,0.927394449710846,1.314085602760315,-0.4592341482639313,-0.5057906636033207,-9.75151906440854,-0.9068755557809024,50,walking
1783066710053835300,3.2277725,-0.3275813010821118,1.28062491646111,-1.6502555167108772,0.8797059059143066,1.2532528638839722,-0.2960358262062073,-0.4098328102460131,-9.770014506042004,-0.7411028828434646,50,walking
1783066710073759200,3.2476964,-0.1431704170396551,1.7103233241826294,-1.6047937422186136,0.7289197444915771,1.1329309940338137,-0.1856364458799362,-0.3494365380048752,-9.782523859003186,-0.592036101241596,50,walking
1783066710093684200,3.2676214,-0.6508004614319652,1.7164409302800894,-1.1685872677773237,0.5327308773994446,1.0755642652511597,-0.1679682731628418,-0.3034385742766782,-9.790437116345762,-0.4750320988547056,50,walking
1783066710113608400,3.2875456,-0.7104352112486958,1.5396791727513075,-1.18073538621068,0.262746661901474,0.9839614629745485,-0.0885880589485168,-0.2672968551849946,-9.794735690322518,-0.4025803548997267,50,walking
1783066710133533200,3.3074704,-0.6078345223434269,1.339719494986534,-1.3662591268658637,-0.0237400643527507,0.8808990716934204,0.0689767152070999,-0.2578190154068172,-9.79574106797278,-0.3839025424366816,50,walking
1783066710153457200,3.3273944,-0.6681641225565225,1.2567144640415906,-1.6032845066994428,-0.2394781559705734,0.8059911131858826,0.1997624486684799,-0.2785930329641327,-9.793840202787518,-0.4165235765889287,50,walking
1783066710173382400,3.3473196,-0.9419720766685904,1.0910533617198466,-1.9627485177218915,-0.3193402588367462,0.7496906518936157,0.2504250109195709,-0.3167794826911762,-9.7899361810863,-0.4766435526393354,50,walking
1783066710193306000,3.3672432,-1.1662690539628269,0.969582698780298,-2.0872721384912727,-0.3149798512458801,0.8125758171081543,0.2678641974925995,-0.3601840689253062,-9.784882989349962,-0.5447036009740084,50,walking
1783066710213231400,3.3871686,-1.3071321073755622,0.8230085742443799,-2.029279383727908,-0.2272778451442718,0.8696526885032654,0.2397487461566925,-0.4008315384710207,-9.77971698488891,-0.6056894366061315,50,walking
1783066710233155300,3.4070925,-1.21383225771375,0.9729729257404804,-1.9724229395180937,-0.0130680156871676,0.811917781829834,0.1341890841722488,-0.4276922555308788,-9.776602067738771,-0.6368081764366478,50,walking
1783066710253080300,3.4270175,-1.135482139902562,1.1028776550263166,-1.61901165266335,0.1299103498458862,0.7805145382881165,0.0075134900398552,-0.4310738973258063,-9.776919463124871,-0.6295923998389392,50,walking
1783066710273004300,3.4469415,-0.8984848171196878,1.1755407401770352,-0.9900339506566525,0.1263384073972702,0.7820549011230469,-0.0799479484558105,-0.4130887798346578,-9.77895476834476,-0.6097414154106751,50,walking
1783066710292929300,3.4668665,-0.2979191532680764,1.1976122867316006,-0.5175117157310247,0.0243040770292282,0.7327111959457397,-0.0493839085102081,-0.3899649112155661,-9.780525963184235,-0.5996824512762948,50,walking
1783066710312853200,3.4867904,0.1861819853682071,1.170951658821106,-0.2015431475639343,-0.0589899234473705,0.6029430627822876,0.0546023063361644,-0.3823568838972598,-9.78020155353546,-0.6097920861519873,50,walking
1783066710332778200,3.5067154,0.3985173797771334,1.0035662169247863,-0.1811877572774887,-0.1016542911529541,0.3859755396842956,0.1127854958176612,-0.393729012989439,-9.77861516112685,-0.6277529825173318,50,walking
1783066710352702500,3.5266397,-0.0420280006512999,0.6228285317271948,0.2649572697889059,-0.2651587426662445,0.2520732283592224,0.0674329400062561,-0.4086804984057322,-9.775563372340798,-0.6646392363660037,50,walking
1783066710372627200,3.5465644,-0.1021590095523744,0.5605412946403027,0.5083785612046718,-0.3896007537841797,0.1307753771543502,-0.0196414310485124,-0.4102001822536811,-9.770735806053876,-0.7313386638719588,50,walking
1783066710392551200,3.5664884,0.1607909024694934,0.359705418562889,0.2682318344801664,-0.4409959018230438,0.0214770454913377,-0.024093884974718,-0.4035030957678333,-9.764578452467918,-0.8127632206924259,50,walking
1783066710412476400,3.5864136,0.1409906983803957,0.3277420080691576,0.4486041837215423,-0.4585912525653839,-0.0230001360177993,-0.0407429486513137,-0.3983673768471926,-9.757005971387027,-0.901407864959538,50,walking
1783066710432400100,3.6063373,0.2606144913442432,0.5719155060917138,0.397872944393754,-0.4246090650558471,-0.1249269694089889,-0.0904628708958625,-0.3870582299886271,-9.74918974467814,-0.986846698922664,50,walking
1783066710452325400,3.6262626,0.2317519694752991,0.705486941191554,0.4239788610309362,-0.3825070261955261,-0.1800422221422195,-0.1959665715694427,-0.3629841845052317,-9.74195219464004,-1.0644275859270245,50,walking
1783066710472249300,3.6461865,0.3940049438539892,0.9465443530201912,0.4500396233521401,-0.2560622692108154,-0.2285860478878021,-0.2355307638645172,-0.3235257055483758,-9.736408004516363,-1.1261023171387612,50,walking
1783066710492174000,3.6661112,0.8232063618388027,0.868577900764346,0.4825179976306855,-0.1418232917785644,-0.2491732090711593,-0.205499529838562,-0.2861571115428581,-9.73340999174416,-1.1615737357534468,50,walking
1783066710512098300,3.6860355,0.8491435708455741,0.7876449999183416,0.880470144740492,-0.0478266887366771,-0.2678197026252746,-0.1909704208374023,-0.255231830191519,-9.732082542532682,-1.1797451330643147,50,walking
1783066710532023300,3.7059605,1.0946060857653617,0.8154922072649001,0.9120804309476166,0.1549050062894821,-0.3116298019886017,-0.210501492023468,-0.2228173879946582,-9.73419208203256,-1.168858412868902,50,walking
1783066710551947300,3.7258845,1.514948051598668,0.5800637412339449,0.8114106370396912,0.3301665186882019,-0.3219243884086609,-0.1901432424783706,-0.1905056207209825,-9.740727621281149,-1.1190652581088243,50,walking
1783066710571872300,3.7458095,1.7937053717464209,0.1332709908485412,0.821977550696209,0.4772226214408874,-0.2647712826728821,-0.1030959039926529,-0.1681920638377778,-9.74988123407364,-1.0401492500431837,50,walking
1783066710591796200,3.7657334,2.183333781016618,-0.2007201407432556,0.4716186371494084,0.6246341466903687,-0.268865704536438,0.0369747728109359,-0.1654706395172513,-9.760953832229973,-0.931005788430944,50,walking
1783066710611721200,3.7856584,2.3444937725268304,-0.7410445767849684,0.0758826317191123,0.6774240136146545,-0.3246902823448181,0.1832231730222702,-0.1933035078112036,-9.771894912961123,-0.8019242851614952,50,walking
1783066710631645200,3.8055824,1.9202540686026213,-1.382784729731083,-0.0532909337479621,0.6501466631889343,-0.2488784790039062,0.246961161494255,-0.2411705533469095,-9.78078023020625,-0.6697581137496977,50,walking
1783066710651570400,3.8255076,1.4269928509004413,-1.76317637796998,-0.1427022150060161,0.5191696286201477,-0.1394213587045669,0.1590870171785354,-0.283761558175832,-9.78690075891316,-0.5535616283534094,50,walking
1783066710671495200,3.8454324,1.652880312256515,-2.044140852773189,-0.4698649984151125,0.2871164381504059,-0.0487246103584766,0.209139883518219,-0.3167661117529496,-9.790098678171637,-0.473300745017454,50,walking
1783066710691419400,3.8653566,2.085583016360551,-2.4742560246020555,-1.0767495265573264,0.0952076911926269,-0.0636311247944831,0.3519951105117798,-0.3734294810760766,-9.789742704340815,-0.4380318267049267,50,walking
1783066710711344000,3.8852812,1.86110834441185,-2.263026764804125,-1.5016647916555403,0.0633130595088005,0.0195415299385786,0.3816908299922943,-0.4462848373958841,-9.78729063501358,-0.4244704804727807,50,walking
1783066710731268000,3.9052052,1.7533774530112742,-2.037151724538207,-1.8628490505993365,0.0986799895763397,0.1433002203702926,0.4270423054695129,-0.5239548639884218,-9.784067581313847,-0.4096975299611687,50,walking
1783066710751193300,3.9251305,1.5455109476447104,-2.195389983382821,-2.244430200883746,0.1445865631103515,0.19667848944664,0.3907187879085541,-0.6050386445472017,-9.78025708311498,-0.3884435103345662,50,walking
1783066710771117300,3.9450545,1.0066905594903974,-1.9422937587141988,-2.211276119300723,0.1524291634559631,0.3001137375831604,0.2491268366575241,-0.6662649378716945,-9.777322783228756,-0.3611439269334077,50,walking
1783066710791042300,3.9649795,0.3094238226987421,-1.9025415940403936,-1.9620558592826127,0.1297592222690582,0.5610554814338684,0.0897147953510284,-0.6969853625670075,-9.775926360434292,-0.3404180593667552,50,walking
1783066710810966300,3.9849035,-0.5429685938749462,-1.9810230100810529,-2.031716840007901,0.0943578034639358,0.7662748098373413,-0.1847040653228759,-0.6855561329927295,-9.77720061815381,-0.3267212501866742,50,walking
1783066710830891300,4.0048285,-1.547205184341967,-1.4888427194833755,-1.5393004025667905,-0.0075119039975106,1.0608829259872437,-0.5583221912384033,-0.6071272873895243,-9.78230992399156,-0.3289251169065013,50,walking
1783066710850815200,4.0247524,-1.8390479037731884,-0.5769821418315172,-1.1966127543002367,-0.1293895244598388,1.2646743059158323,-0.8232018947601318,-0.4616303270984441,-9.789312496230004,-0.3558776769682765,50,walking
1783066710870740200,4.0446774,-1.6477704218968747,0.1847463265419006,-1.2664403237640858,-0.1012618020176887,1.3741317987442017,-0.8821308016777039,-0.2830035428827628,-9.794772515201569,-0.390795955212228,50,walking
1783066710890664400,4.0646016,-1.8611352324187755,0.8225783661335706,-1.2490619034618138,0.0811541080474853,1.4439235925674438,-0.9126983284950256,-0.0977707479981705,-9.797992646291853,-0.400243509449996,50,walking
1783066710910589200,4.0845264,-2.120823110437393,1.7323562922924756,-1.021965796968341,0.3510123491287231,1.471007227897644,-0.9504095315933228,0.0957773913570214,-9.79961878618896,-0.3587405921187251,50,walking
1783066710930513000,4.1044502,-1.935001555879414,2.061396523478627,-0.8195867831021547,0.5578926205635071,1.309752345085144,-0.9155057668685912,0.2889878779893741,-9.798857738688588,-0.2631906619751826,50,walking
1783066710950438000,4.1243752,-1.673277788119018,2.066366713106632,-0.5702683234065771,0.5915778875350952,1.1502777338027954,-0.7477169036865234,0.4576217855768278,-9.794998725172876,-0.137667006450938,50,walking
1783066710970361900,4.1442991,-1.7173830334357916,1.875948186147213,-0.1013730468064546,0.4044467508792877,1.0638751983642578,-0.5269846320152283,0.5835789097480476,-9.789233585774898,-0.0270160423355991,50,walking
1783066710990286800,4.164224,-1.4559621941447256,2.0490344700336456,0.0747252829441102,0.1594299376010894,0.8517292737960815,-0.3364444971084595,0.6678209351420402,-9.78380337741971,0.0403455685562686,50,walking
1783066711010211000,4.1841482,-1.2159968884017318,1.6984598679095506,-0.0186333887994289,-0.1032891273498535,0.6601151823997498,-0.0829207748174667,0.7088750492598861,-9.78083517526388,0.0560429541361518,50,walking
1783066711030135800,4.204073,-1.192785012705624,1.312434597697854,-0.0930956323266029,-0.3355326056480407,0.4764451682567596,0.1272501349449157,0.7019735993083566,-9.781473473167418,0.0196233474015607,50,walking
1783066711050059800,4.223997,-1.5515727319017052,1.2020739423155784,-0.0645721331536769,-0.5090182423591614,0.339764267206192,0.1682566404342651,0.6711050713792442,-9.783490658208729,-0.0575322382792597,50,walking
1783066711069985000,4.2439222,-1.8455983483299607,1.2017810968488454,0.0981686978071928,-0.6109841465950012,0.2737948596477508,0.1097285747528076,0.6440084632042795,-9.784096222886443,-0.1646076660123653,50,walking
1783066711089908700,4.2638459,-1.651572736789286,1.3467676599323748,0.3361942311266437,-0.6049787402153015,0.2775574922561645,0.0937115103006362,0.6267046425081789,-9.782586987367273,-0.2803796423862688,50,walking
1783066711109834000,4.2837712,-0.7964139973074197,1.592114293387532,0.1240723333379253,-0.5127815008163452,0.1649880707263946,0.1879973411560058,0.6026333735037595,-9.780434777769443,-0.3877339007604867,50,walking
1783066711129758000,4.3036952,-0.0768508922293782,1.5820160932213068,0.1586339801639318,-0.4355502724647522,0.050220213830471,0.3774779140949249,0.5492567707663402,-9.779612939992546,-0.4773619665743783,50,walking
1783066711149683000,4.3236202,-0.0410418756907805,1.129153083011508,0.3738315956035629,-0.4212490320205688,0.0045238300226628,0.5363672375679016,0.4583811160441488,-9.779852593967318,-0.561028347504884,50,walking
1783066711169607000,4.3435442,-0.2671487154185771,0.9937345587402582,0.4402741622716188,-0.3476074635982513,-0.1636023968458175,0.5128647089004517,0.3530407365093007,-9.779556825891136,-0.6371973949499428,50,walking
1783066711189532000,4.3634692,-0.4935064246349036,0.5321230094075202,0.5892722990840673,-0.3298602402210235,-0.0795804634690284,0.4248484969139099,0.2600717262370511,-9.778081492641569,-0.7013507181696593,50,walking
1783066711209455900,4.3833931,-0.6457086181856692,0.1877005001723766,1.1214215389113873,-0.459003746509552,-0.066034622490406,0.3383437991142273,0.185423330754321,-9.77393547887802,-0.7786015695020556,50,walking
1783066711229380900,4.4033181,-0.0991604579240549,-0.0093751465886831,0.9781248286109416,-0.5357531309127808,-0.1354975998401641,0.3379837274551391,0.1195111629022285,-9.766749366766216,-0.8756230700355022,50,walking
1783066711249305900,4.4232431,0.0340494686533231,-0.170025142750144,1.0566529333375394,-0.5986390113830566,-0.1599175781011581,0.3104934096336365,0.0518424839387414,-9.756635384508966,-0.9878197817385196,50,walking
1783066711269229800,4.443167,-0.0145891389269032,0.0925754078447818,1.357837920001149,-0.4848940968513489,-0.0227225050330162,0.2466258555650711,-0.0038163143058336,-9.745248313575985,-1.095672692083567,50,walking
1783066711289155000,4.4630922,0.4216110359210521,-0.0311667071580886,1.2126222243368625,-0.2326259016990661,-0.0479362457990646,0.2274612039327621,-0.0497615723117254,-9.73687620655,-1.1666836261130868,50,walking
1783066711309079000,4.4830162,0.8549521109938621,-0.366589332857728,1.183096270123124,0.1111573129892349,-0.0865648686885833,0.2422398924827575,-0.0967384366752114,-9.734996384152767,-1.1793552569638937,50,walking
1783066711329003800,4.502941,1.0845900109246374,-0.6861626475185155,1.150593418990448,0.4723373055458069,-0.1729576736688614,0.2511076033115387,-0.1477089646515902,-9.741184132876992,-1.1215637969262895,50,walking
1783066711348928000,4.5228652,1.044560929005593,-1.0941589265197516,1.294719638917595,0.7308880686759949,-0.2347472161054611,0.2484161108732223,-0.200305458995141,-9.75321943858564,-1.0024774718400091,50,walking
1783066711368852700,4.5427899,0.8420471097785979,-1.460624340736866,1.1872434529304503,0.9172279238700868,-0.5119400024414062,0.2043441534042358,-0.2523253316276707,-9.767433257377148,-0.839036456720531,50,walking
1783066711388776700,4.5627139,0.2820107689857483,-1.5703806004852057,1.3534557593941687,0.8332854509353638,-0.6634806990623474,0.0899540036916732,-0.2894925943748094,-9.780230195108055,-0.6585389467295258,50,walking
1783066711408702000,4.5826392,0.048697797271423,-1.521181977552175,1.564706646502018,0.4365152716636657,-0.7967093586921692,0.0864210873842239,-0.3132571537839249,-9.78738182042837,-0.5286160972651094,50,walking
1783066711428626000,4.6025632,0.2107599252531304,-1.6271920365095138,1.124206201193854,0.1271403580904007,-0.7871371507644653,0.1509215831756591,-0.3431892411131411,-9.789260473781823,-0.472235380808264,50,walking
1783066711448551000,4.6224882,0.3694119159977883,-1.3432213656276464,0.6199404090702534,0.0125021031126379,-0.7311869263648987,0.2906070947647095,-0.3941021206181496,-9.788170924979449,-0.4547407137151807,50,walking
1783066711468475000,4.6424122,0.5888203175328671,-1.254223816269636,-0.1463876985857263,0.0895142704248428,-0.8185251951217651,0.2834381461143493,-0.4586356753271073,-9.78589012056589,-0.4431847159560769,50,walking
1783066711488400000,4.6623372,0.5847098500067368,-1.061253266739845,-0.8682242650210857,0.4805648922920227,-0.913372039794922,0.175462320446968,-0.511686662839353,-9.785826407679917,-0.3822974453276023,50,walking
1783066711508323800,4.682261,0.3863561096012592,-1.1960241407573222,-1.6878233230829238,0.9177129864692688,-0.9562968611717224,0.0036259586922824,-0.536442589639686,-9.789171041932702,-0.2339723672048188,50,walking
1783066711528248800,4.702186,0.040895452957414,-1.3759744651943444,-1.331124100598693,1.1007574796676636,-0.7931831479072571,-0.083976037800312,-0.5284148756045848,-9.7923788980633,-0.022347840462008,50,walking
1783066711548173000,4.7221102,0.1987714178282767,-1.7156050639778375,-1.006855321598053,0.9391554594039916,-0.7080745100975037,-0.0883490964770317,-0.5104666560577228,-9.791527834191918,0.1892353450568392,50,walking
1783066711568097800,4.742035,-0.1151773714816197,-1.480909588396549,-0.6384907957613468,0.5004599690437317,-0.6113749146461487,-0.1850067675113678,-0.481876667519845,-9.78889690116644,0.3401128658751025,50,walking
1783066711588022000,4.7619592,-0.6675525665294378,-0.7656938648730516,-0.5015092964896932,-0.0388773828744888,-0.4237910807132721,-0.3129957914352417,-0.4285428444782271,-9.789592482215166,0.3880837736440822,50,walking
1783066711607946800,4.781884,-0.6750823044471442,0.0871574744492769,-0.9298761268138884,-0.2562019824981689,-0.1550745517015457,-0.3432954549789428,-0.361008500518091,-9.793550864452124,0.3555671862469985,50,walking
1783066711627870700,4.8018079,-0.1007685415746644,0.9749474406838416,-1.6352058316171167,-0.1578295528888702,-0.0391721241176128,-0.2873338460922241,-0.29801569071142,-9.797131645548344,0.3127092010449618,50,walking
1783066711647796000,4.8217332,0.2033330266553908,1.4304752861887216,-1.7889549623489378,-0.0502901561558246,0.0758822932839393,-0.1712243407964706,-0.2524141424222849,-9.798957107409834,0.2951233302707783,50,walking
1783066711667720000,4.8416572,-0.0884460164224728,1.4153741631686687,-1.67624862062335,-0.1142050251364708,0.1638230085372924,-0.0191927924752235,-0.2343222948873415,-9.799868377035857,0.279381260732375,50,walking
1783066711687645000,4.8615822,-0.512950216501765,1.1205530124485492,-1.873539955961704,-0.1587299704551696,0.3902820348739624,0.0843366310000419,-0.2431685952963307,-9.800431856137514,0.2505701402571052,50,walking
1783066711707569000,4.8815062,-0.6965080273788422,0.743706489470601,-2.020540196955204,-0.1021369397640228,0.6844308972358704,0.0770201981067657,-0.2623696827148087,-9.800670925590396,0.2199514771695248,50,walking
1783066711727494000,4.9014312,-0.4313990010943263,0.1972889972507953,-2.4419278724491598,-0.0332753472030162,0.8050268292427063,0.1258171200752258,-0.283419832066074,-9.800431271615624,0.2039481446127407,50,walking
1783066711747417900,4.9213551,-0.3297474661400541,-0.2070207021921873,-2.340864037722349,-0.043715450912714,0.8785110116004944,0.2141342759132385,-0.3202782480597496,-9.79954513643086,0.1916195915785618,50,walking
1783066711767342800,4.94128,-0.4855130512608215,-0.4026034800469875,-2.4634698421716688,-0.033261951059103,0.9823185801506042,0.1920372545719146,-0.3662242624050006,-9.798193137300014,0.1780550122097134,50,walking
1783066711787267000,4.9612042,-1.0044596586331724,-0.293378550696373,-2.068355256575346,-0.0900875702500343,1.2520650625228882,-0.0410784743726253,-0.3867212165866047,-9.79773370309472,0.1589795604648999,50,walking
1783066711807191800,4.981129,-0.7969391902253031,0.3258317905336618,-1.405371824592352,-0.2049965262413025,1.352901577949524,-0.2186397463083267,-0.3618544132903218,-9.799238262438774,0.1198345953034702,50,walking
1783066711827115800,5.001053,0.1817983269238844,0.841410492375493,-1.1257330454349517,-0.2960035800933838,1.2472058534622192,-0.1705211549997329,-0.3238044494245201,-9.80111165509522,0.0613611854502698,50,walking
1783066711847040800,5.020978,0.7941687756638973,1.321250356838107,-1.0591168392330408,-0.3531074821949005,1.2261523008346558,-0.0542367585003376,-0.3030581601243466,-9.801960965400934,-0.0097444582500436,50,walking
1783066711866964700,5.0409019,0.8047655730020254,1.7166799997329711,-0.8014151665955781,-0.395073652267456,1.295848369598389,0.0391589850187301,-0.3009357976755127,-9.801599730873107,-0.0920712394486181,50,walking
1783066711886890000,5.0608272,0.7886196901693939,2.1090397336632014,-0.8129425227820872,-0.2758294939994812,1.2550556659698486,0.0971841886639595,-0.3114254083121195,-9.800264098355171,-0.1680815161353908,50,walking
1783066711906814000,5.0807512,0.7429888427205383,2.17034497397542,-0.805393422576785,-0.063872642815113,1.1347891092300415,0.0820879265666008,-0.3256496023671701,-9.799019651252031,-0.2087007459673099,50,walking
1783066711926739200,5.1006764,0.5197528091887011,1.8400246398508548,-0.5875742629945278,0.0760569870471954,1.0887718200683594,0.0419056005775928,-0.3336036301115527,-9.79864906437397,-0.2134360856598243,50,walking
1783066711946664400,5.1206016,0.4266289006156846,1.4933008679360151,-0.4070078524857759,0.1404458433389663,1.00545072555542,-0.0323322713375091,-0.329963008586876,-9.799085702225565,-0.1985752559353597,50,walking
1783066711966588200,5.1405254,0.4410477404600009,1.248041328242421,-0.008013795107603,0.1892637908458709,0.9860541820526124,-0.0379690490663051,-0.3181952312406152,-9.799980020716786,-0.1718507690084166,50,walking
1783066711986513200,5.1604504,0.8003055979184805,0.8776187008321285,0.2364987073446623,0.1430222243070602,0.8537588715553284,0.0024945996701717,-0.3114395099027082,-9.800659819674491,-0.1431245686039328,50,walking
1783066712006437400,5.1803746,0.7370579913668334,0.310588628694415,0.4548860404700041,-0.0096494136378169,0.6867334842681885,0.0031647668220102,-0.3122367977602407,-9.80075451222062,-0.1345120312850456,50,walking
1783066712026362000,5.2002992,0.3678022157788276,-0.0301841258615255,0.5777648166418076,-0.1088765487074852,0.6120086312294006,-0.048546016216278,-0.3052537339398637,-9.800707165947555,-0.1527939306325279,50,walking
1783066712046286000,5.2202232,0.3337464726483449,-0.5115256270587444,0.2570645620440133,0.0126562099903821,0.5425450205802917,-0.0302461683750152,-0.2951399891446344,-9.800749251523614,-0.1690774135712534,50,walking
1783066712066211300,5.2401485,0.3910227131728083,-0.9661229137152432,-0.0302133519560098,0.2237397879362106,0.3450162410736084,-0.0573848113417625,-0.2870246150923892,-9.80135014002621,-0.146807641030848,50,walking
1783066712086135000,5.2600722,-0.0636646629199385,-1.1847311778485774,0.3900345058530569,0.2322342544794082,0.2093389630317688,-0.2244314849376678,-0.2595524150706828,-9.802707399854064,-0.0995882000831421,50,walking
1783066712106060300,5.2799975,-0.0804171333435922,-1.2399310870230198,0.7284715109378099,0.0421501658856868,0.09977438300848,-0.2880061566829681,-0.2059891854536719,-9.804221896070242,-0.0720115350399632,50,walking
1783066712125984300,5.2999215,0.1372009141759947,-1.4740993238598108,0.5497060123711824,-0.1269280016422271,0.0296211950480937,-0.2635859847068786,-0.1515661972021684,-9.805135503783822,-0.0822384030871559,50,walking
1783066712145909200,5.3198464,0.080234744247701,-1.4279963288545607,0.3479027525663375,-0.1834687143564224,0.036004327237606,-0.2527271509170532,-0.1014833205142058,-9.805449392038582,-0.1152161143231205,50,walking
1783066712165833200,5.3397704,0.2073488381680101,-1.15369248098433,0.0069955671089235,-0.0855876207351684,-0.0050849900580942,-0.2597224116325378,-0.0505285609291167,-9.805465174129605,-0.1437642730132676,50,walking
1783066712185758200,5.3596954,0.5837022803993895,-1.1812860058307646,-0.2798240543301217,0.1850782334804535,0.0093317022547125,-0.1628224402666092,-0.0081960186650685,-9.805704243582486,-0.1358694372433703,50,walking
1783066712205682200,5.3796194,1.1579060070261358,-1.2112480133742094,-0.4624591060727834,0.5164527297019958,-0.0013374544214457,-0.0055139237083494,0.0094169433287286,-9.806419113853574,-0.066659483654634,50,walking
1783066712225607200,5.3995444,1.0388207779183982,-1.8453215772151943,-0.4747533549785613,0.6626439690589905,0.1284155398607254,0.1615097969770431,-0.0067702453368925,-9.806508545702696,0.0520265992008382,50,walking
1783066712245531400,5.4194686,0.4059300671864301,-2.091127060353756,-0.2966764231979846,0.6116650700569153,0.2255307137966156,0.1584478616714477,-0.0417121990006649,-9.804912800943852,0.179809545993153,50,walking
1783066712265456000,5.4393932,-0.2817625115794129,-2.065266058388352,-0.3590892959585413,0.299968272447586,0.2654573321342468,0.0229370258748531,-0.0616557662163628,-9.802643102446195,0.2734965866079554,50,walking
1783066712285380000,5.4593172,-0.7053253208890556,-1.6740590016245842,-0.2955494649946689,-0.2290539294481277,0.4402911365032196,-0.0133776767179369,-0.0618666781538398,-9.80239701873064,0.2820816422648727,50,walking
1783066712305305300,5.4792425,-1.3118591358974576,-1.6596078669458627,-0.8154185575067997,-0.7033787965774536,0.6578535437583923,-0.0971148312091827,-0.0565767778850626,-9.80472575393915,0.1857433747552335,50,walking
1783066712325229000,5.4991662,-1.843650136871636,-0.5882745202183723,-1.3882383189618586,-0.8985137939453125,0.9973415732383728,-0.3298639059066772,-0.0176919774801819,-9.806602069205043,0.0253387750394525,50,walking
1783066712345154300,5.5190915,-1.9018493739925324,0.5285866519749164,-1.5278946269333362,-0.8893207907676697,1.4189860820770264,-0.5075349807739258,0.0677412327430443,-9.805219674935936,-0.1531340675733983,50,walking
1783066712365078300,5.5390155,-0.9761324126847089,1.7764543772161006,-2.008459883061051,-0.5463796257972717,1.5851545333862305,-0.5307788252830505,0.1787135857162997,-9.800620072185993,-0.2937145229187793,50,walking
1783066712385003300,5.5589405,-0.3193813357526436,2.249972052919865,-2.48338567199707,-0.1186222955584526,1.6733684539794922,-0.4584284424781799,0.286909829606302,-9.796195241481064,-0.350152138928324,50,walking
1783066712404927200,5.5788644,-0.4977379247248172,2.425194764313101,-2.3083675432652235,0.1806541681289672,1.849859595298767,-0.3459199666976928,0.3775789654383436,-9.79379928625524,-0.3306413462398573,50,walking
1783066712424852200,5.5987894,-0.5578054034030064,2.1567104163765904,-2.053312001222372,0.339655727148056,1.9484699964523315,-0.240808293223381,0.4454275629794225,-9.79301485787928,-0.2623300265578553,50,walking
1783066712444776200,5.6187134,-0.4141470932485535,1.6865858902424573,-1.942244074353576,0.3482019603252411,1.944406628608704,-0.1855693757534027,0.4948017616750672,-9.7926056925565,-0.1745291761711239,50,walking
1783066712464701200,5.6386384,-0.5743872299674898,1.4160516240388157,-1.693597230309248,0.2317878007888794,1.9834703207015991,-0.1382282823324203,0.5323390267783775,-9.791716634762286,-0.0963679319955408,50,walking
1783066712484625400,5.6585626,-0.599059350941889,0.9382698611497878,-1.5551374386459589,0.0273515805602073,2.0567522048950195,0.0008150497451424,0.5493795934284106,-9.79112919026315,-0.0485286466830177,50,walking
1783066712504550100,5.6784873,-0.6119135718179867,0.4705880519926548,-1.541121772775054,-0.213329792022705,2.0965590476989746,0.0996965989470481,0.5400874854806811,-9.791663443270323,-0.0448872305738972,50,walking
1783066712524474000,5.6984112,-0.8195081649079918,0.3960281933099031,-1.5096020143955946,-0.3936960101127624,2.1047606468200684,0.1221829503774643,0.5196344800386578,-9.792521521404383,-0.0829909476206638,50,walking
1783066712544399400,5.7183366,-0.840228004592657,0.3375204747617245,-1.5568822364866732,-0.5292098522186279,2.1670639514923096,0.0982565805315971,0.5041419830808416,-9.792522105926274,-0.1507818966903723,50,walking
1783066712564323000,5.7382602,-0.6662906568348408,0.1633826359957456,-1.4293424827665089,-0.6979529857635498,2.2649528980255127,0.1696493625640869,0.4876232483478263,-9.791365337106583,-0.2485441325885243,50,walking
1783066712584248300,5.7581855,-0.5598665737165138,-0.1066618008643388,-1.6405980460494756,-0.7920302152633667,2.40515398979187,0.2566403448581695,0.4600582920087501,-9.78872446720898,-0.373673628562875,50,walking
1783066712604172300,5.7781095,-0.503987888497673,-0.0457096117734909,-1.7384399961203336,-0.7865849733352661,2.483370542526245,0.2734565734863281,0.4291689404873177,-9.784134216809273,-0.5068724674906582,50,walking
1783066712624097000,5.7980342,-0.5134020519224927,0.1232575463563203,-1.5465847143560647,-0.7734123468399048,2.598991870880127,0.3028879165649414,0.4029693542173132,-9.777575881206989,-0.6379745898675173,50,walking
1783066712644021200,5.8179584,-0.4394274823144078,0.1146153902173042,-1.2732634477823972,-0.8147460222244263,2.7514452934265137,0.4141043722629547,0.3716417208764702,-9.769233584797382,-0.7709357841145247,50,walking
1783066712663946200,5.8378834,-0.3719898036617785,-0.0056342064946889,-1.2146937699139118,-0.841076672077179,2.809951066970825,0.5087245106697083,0.3279964577542618,-9.758518129515648,-0.9133023008927702,50,walking
1783066712683870200,5.8578074,-0.8423245384804904,-0.2675695711791515,-1.0212027767065912,-0.8540584444999695,2.9650967121124268,0.5417919754981995,0.2810338867776095,-9.745130240154266,-1.0601065078575165,50,walking
1783066712703795200,5.8777324,-1.240977088944614,-0.2762140654057264,-0.8499619014911353,-0.7995444536209106,3.0828499794006348,0.5068657994270325,0.2481315331996418,-9.728854228135942,-1.2075547848794608,50,walking
1783066712723719200,5.8976564,-1.0325416976489126,-0.060192895156145,-0.9027006812490522,-0.6226444244384766,3.159047842025757,0.5675740838050842,0.2253965908329002,-9.713238725852966,-1.3313887428842484,50,walking
1783066712743644200,5.9175814,-0.8036446792133152,-0.0415554147034883,-0.9636831193476916,-0.4217192530632019,3.217769145965576,0.6594467759132385,0.1943203384372405,-9.70149860369861,-1.4189967375800012,50,walking
1783066712763568000,5.9375052,-0.8799555462818592,-0.1789092909514903,-0.8612339677423239,-0.2377484887838363,3.265897274017334,0.7458115816116333,0.152118168529123,-9.694479080325364,-1.4711673620611427,50,walking
1783066712783493400,5.9574306,-1.1316676231157037,-0.3860124107301235,-1.0150104248724878,-0.0007317245472222,3.1749088764190674,0.7594156265258789,0.1003653310686349,-9.69267758386135,-1.4873795150630176,50,walking
1783066712803418000,5.9773552,-1.6417440012142062,-0.6863683992236852,-1.235561201375723,0.2849539518356323,3.0926177501678467,0.6442899107933044,0.0554358276890125,-9.69803238889277,-1.4544740014135835,50,walking
1783066712823342300,5.9972795,-2.2425310892641543,-1.1898276242047547,-0.976119991594553,0.4026843905448913,3.1500792503356934,0.5065940618515015,0.0317851358839543,-9.708727970430257,-1.382018859925121,50,walking
1783066712843267300,6.0172045,-2.4500172170110046,-1.4216086736440658,-0.6570661707632244,0.2728854417800903,3.1521615982055664,0.3482696712017059,0.0335194283136748,-9.718610482019184,-1.3106678802862763,50,walking
1783066712863191000,6.0371282,-2.388210603047907,-1.0445622441798448,-0.1974380503326654,0.0252620596438646,3.1020233631134038,0.1937040388584137,0.0625431343769887,-9.722761171957847,-1.278437343288958,50,walking
1783066712883116300,6.0570535,-1.819283465117216,-0.51235447909832,-0.204919345998764,-0.2262990027666092,2.9995651245117188,0.1471661478281021,0.109673896960821,-9.720463416409492,-1.2926539385594429,50,walking
1783066712903040300,6.0769775,-1.348878368476033,-0.1591162107229232,-0.1840330637060105,-0.450376957654953,2.9523205757141118,0.2218776494264602,0.1534235520392656,-9.711877374371886,-1.3513983884729444,50,walking
1783066712922965200,6.0969024,-1.0531336731702088,0.3760942433059215,-0.1961100165992975,-0.5532662272453308,2.883721351623535,0.3716744184494018,0.1777537642408162,-9.69851695753932,-1.4413742813438175,50,walking
1783066712942889200,6.1168264,-0.9481025422476232,0.7067717203050852,-0.4773614916503429,-0.4760444462299347,2.677880048751831,0.3931393027305603,0.1828558731527998,-9.684429395475982,-1.5325708020508289,50,walking
1783066712962814200,6.1367514,-1.2198185655817388,0.8995897096216678,-0.8434621642082929,-0.2673916220664978,2.53844952583313,0.221877321600914,0.2028814652292989,-9.673889881283044,-1.5953310634769498,50,walking
1783066712982738200,6.1566754,-1.3069424300223589,1.0523597661882638,-0.7489367913395166,-0.0464421398937702,2.41978120803833,0.1047628745436668,0.2528952770027332,-9.669540453901886,-1.6144398147031664,50,walking
1783066713002663200,6.1766004,-0.9078554336637258,0.9177104727238417,-0.9375836324512958,0.062459859997034,2.2676994800567627,0.0866808965802192,0.3105020098568871,-9.670762104651333,-1.5969785384230315,50,walking
1783066713022587400,6.1965246,-0.8798186950944363,0.7865460987657308,-0.5083844064235687,-0.0502868704497814,2.2541470527648926,0.1175245866179466,0.3622220410263165,-9.672027010020614,-1.5783122702673076,50,walking
1783066713042512100,6.2164493,-0.6458722843147814,0.771685214242339,-0.4529195627026259,-0.205377772450447,2.1210484504699707,0.1297425478696823,0.4074993988623842,-9.668837858590484,-1.586790906407684,50,walking
1783066713062436000,6.2363732,-0.272506662255153,0.6690747345954179,-0.6741577369481325,-0.2616493105888366,2.0511491298675537,0.2131880223751068,0.4415971910363063,-9.662593995764851,-1.615447238180041,50,walking
1783066713082361300,6.2562985,-0.1958815781382843,0.7719774751871824,-0.6511736055932938,-0.2358985096216201,1.9772441387176516,0.3154218792915344,0.4559517700053751,-9.656859251505136,-1.6454641907811165,50,walking
1783066713102285000,6.2762222,-0.0562397370835766,0.8293406998753547,-0.7089053713329136,-0.2579204440116882,1.794628381729126,0.3539570868015289,0.4526296763779595,-9.652124624198674,-1.6739239770680665,50,walking
1783066713122210300,6.2961475,-0.2285162754897028,0.763816965085268,-0.6888198840290307,-0.3747985363006592,1.6315255165100098,0.307971715927124,0.4465384102981537,-9.644509473019838,-1.7188490143351256,50,walking
1783066713142134300,6.3160715,-0.2831258175555616,0.67160746794343,-0.6878330649487674,-0.5329170823097229,1.662515640258789,0.3621151447296142,0.4411429809954017,-9.631607321348786,-1.791063186674565,50,walking
1783066713162059300,6.3359965,-0.223265807615593,0.7672451859682798,-0.5974982756376266,-0.6336773037910461,1.6913344860076904,0.4450849592685699,0.424827550282143,-9.613521045038103,-1.889478406588733,50,walking
1783066713181983200,6.3559204,-0.0065959276663139,1.0077291818231344,-0.6561117926478386,-0.6655447483062744,1.6187888383865356,0.481694221496582,0.400292353560403,-9.592139234313368,-2.000254949295521,50,walking
1783066713201908200,6.3758454,0.0206525831347331,1.0304647452443838,-0.5717020094715058,-0.6761199831962585,1.4982173442840576,0.4483968019485473,0.3739416318492963,-9.56788800563216,-2.118033479718864,50,walking
1783066713221832200,6.3957694,-0.0023575229115784,1.0376040956050157,-0.5572773244082927,-0.6263568997383118,1.4296958446502686,0.4140439331531524,0.3561007451344281,-9.542706218102571,-2.2316681883357465,50,walking
1783066713241757200,6.4156944,0.0552903639368712,0.658753831589222,-0.6188806708842516,-0.5210228562355042,1.4297586679458618,0.4606364965438843,0.339004685437493,-9.519095625412463,-2.3328705547504125,50,walking
1783066713261681400,6.4356186,0.3341591451024636,0.5073778597295284,-0.764018332876265,-0.3546268045902252,1.3579962253570557,0.5243891477584839,0.3116767161920666,-9.50164706248343,-2.4066528531894087,50,walking
1783066713281606100,6.4555433,0.521598217859678,0.3646469666182995,-0.8359408287927508,-0.2291637361049652,1.2861982583999634,0.6463903188705444,0.2666926787467673,-9.490744560196996,-2.45458978562355,50,walking
1783066713301530000,6.4754672,0.3322287250291555,0.0486351438313722,-1.038247069683671,-0.051820408552885,1.1540923118591309,0.736443281173706,0.1940467639265581,-9.487027000978587,-2.47569248714596,50,walking
1783066713321455400,6.4953926,-0.1628565297624096,-0.0529600212931632,-0.9768781164854764,0.0288202315568923,1.1828529834747314,0.7093933820724487,0.1131767996483948,-9.48957960807085,-2.4709219117432832,50,walking
1783066713341379000,6.5153162,-0.5374281300783157,-0.3304553586810827,-0.5124930107861757,-0.0426282882690429,1.2146337032318115,0.6481214761734009,0.0439232306802179,-9.490410213676094,-2.4699343620106577,50,walking
1783066713361304300,6.5352415,-0.4224793431881815,-0.4477689019411802,-0.6961591408759356,-0.1049016565084457,1.086695909500122,0.4929061233997345,-0.0069805698983691,-9.48697088687718,-2.483490301415324,50,walking
1783066713381228300,6.5551655,-0.3169015016356483,-0.2160889747887849,-0.5232727634757757,-0.2079983651638031,1.0667015314102173,0.4447604715824127,-0.0393856329163536,-9.47923064801395,-2.5125749416023493,50,walking
1783066713401153300,6.5750905,-0.0499002957958262,-0.2851233480483293,-0.2150415115624666,-0.2990986406803131,1.1383039951324463,0.6138266324996948,-0.0819304057170636,-9.46541255054176,-2.563130532102287,50,walking
1783066713421077200,6.5950144,0.3679302626052871,-0.2414741759359836,-0.5149687532499432,-0.2994531691074371,0.990038275718689,0.728971004486084,-0.1554448652664199,-9.44800841127634,-2.6232310727998613,50,walking
1783066713441002200,6.6149394,0.2944595508661121,-0.0559270544052124,-0.5796744496554136,-0.2531836926937103,0.8702645897865295,0.6241485476493835,-0.2372980044961906,-9.430648111152648,-2.678983355160057,50,walking
1783066713460926200,6.6348634,-0.1144498061257414,-0.1387520526081323,-0.4594608010396361,-0.1937639117240905,0.8317479491233826,0.4585607945919037,-0.2937616317298263,-9.415610116496682,-2.7258748701944944,50,walking
1783066713480851200,6.6547884,0.026487426768057,-0.3350070306360721,-0.4755512273579835,-0.114110492169857,0.7236431837081909,0.3456967175006866,-0.3263612212352454,-9.404306047672032,-2.760960796622932,50,walking
1783066713500775400,6.6747126,0.1423751384761184,-0.2929430818885564,-0.5153954542294145,-0.121517576277256,0.6264562010765076,0.2565189599990845,-0.3439369542079046,-9.396540089845656,-2.785160879638791,50,walking
1783066713520700200,6.6946374,-0.0647386853596195,-0.4552642261326313,-0.1413566821485757,-0.1820000261068344,0.6951480507850647,0.3183968067169189,-0.3600825082469731,-9.385952060335876,-2.818624465562403,50,walking
1783066713540624100,6.7145613,-0.0282087341353297,-0.3080629096090793,-0.2551055186644196,-0.2013603001832962,0.6366828083992004,0.3488135933876037,-0.3847909791763871,-9.372292368295788,-2.8604987369567154,50,walking
1783066713560549400,6.7344866,-0.1812417890196666,-0.2956166850119829,-0.3871276784956455,-0.1259299665689468,0.6846662163734436,0.3390481472015381,-0.4123706216279417,-9.360048972794411,-2.896520190669596,50,walking
1783066713580473000,6.7544102,-0.3534382844595238,-0.0568634584724903,-0.2190311657205224,-0.0666693821549415,0.7597864270210266,0.2525795102119446,-0.4258743193887174,-9.351749931004642,-2.921263294520974,50,walking
1783066713600398300,6.7743355,0.1056433080041781,0.3087748572707176,-0.2988099280953407,0.1085655838251113,0.6345697045326233,0.221148207783699,-0.4270648808801546,-9.350627064454557,-2.9246833320975303,50,walking
1783066713620322300,6.7942595,0.4150412290766835,0.2985784574270248,-0.4695952415630221,0.2946476638317108,0.4826741516590118,0.2757894992828369,-0.4415270118769258,-9.36048151899278,-2.8908161338090896,50,walking
1783066713640247000,6.8141842,0.1444778829090297,0.1298410163998603,-0.3502899399638176,0.371559590101242,0.456185519695282,0.2453155815601349,-0.4656001805774867,-9.377444928753375,-2.831454721041024,50,walking
1783066713660171300,6.8341085,-0.0618880086362361,0.3408405590951442,-0.0838648626446723,0.3678605258464813,0.5413556098937988,0.1716730594635009,-0.4762088144838809,-9.39660906342864,-2.7653850428059696,50,walking
1783066713680096300,6.8540335,0.0670847004964947,0.1419657539576292,0.1326505208626389,0.2394323050975799,0.5887044072151184,0.1986226737499237,-0.477989523888193,-9.41216435995698,-2.7116543294012545,50,walking
1783066713700020200,6.8739574,0.2546865625999868,-0.0412017789602279,0.4784828968957066,0.0521036088466644,0.6197691559791565,0.2844234406948089,-0.4902161143852397,-9.417540207776426,-2.6907249386191365,50,walking
1783066713719945200,6.8938824,0.4440554709086194,0.067410571449995,0.2300157933324575,-0.0102933971211314,0.5114132165908813,0.2814319133758545,-0.5134873190531507,-9.415122040718794,-2.694846402463317,50,walking
1783066713739869200,6.9138064,0.3028733781419694,0.182000242704153,-0.1088943822219967,0.009404893964529,0.3829496204853058,0.1906754225492477,-0.535410141319409,-9.412694521310923,-2.69905496006906,50,walking
1783066713759794200,6.9337314,-0.0849592702852562,0.113757896605134,0.0179635267138481,0.031410876661539,0.4899305701255798,0.1077209860086441,-0.5397777619443833,-9.411640043821931,-2.7018632954880597,50,walking
1783066713779718100,6.9536553,0.230528199834004,0.2280611521333456,-0.1065685696229338,0.0936891660094261,0.4237025380134582,0.0854534953832626,-0.5302522836321965,-9.414163424819709,-2.694946355706453,50,walking
1783066713799643400,6.9735806,0.4907544955782592,0.1736515165537595,-0.1397992235735058,0.1583113521337509,0.3859103322029114,0.1365827023983001,-0.5305582077762112,-9.419909859517215,-2.6747347578048704,50,walking
1783066713819567000,6.9935042,0.4572388506738469,0.3607423603951931,-0.0863651550278067,0.1778760105371475,0.3081203103065491,0.1195108667016029,-0.537444533223845,-9.42758346288502,-2.6461668349683283,50,walking
1783066713839492400,7.0134296,0.3532338479286059,0.424206824567914,0.017991583764553,0.1174857169389724,0.3182520568370819,0.08429466933012,-0.5395326646095141,-9.4346351349622,-2.620488788354397,50,walking
1783066713859416300,7.0333535,0.3574188054630532,0.272553789332509,0.2516372580319643,0.0309487860649824,0.3221314251422882,0.0798074081540107,-0.5374328427860513,-9.437557744410633,-2.610374513836205,50,walking
1783066713879341000,7.0532782,0.4534154199281707,0.1435211667060852,-0.1169815348267555,-0.0067804539576172,0.1324582248926162,0.0424194261431694,-0.537511753241159,-9.437363098621368,-2.611061911578476,50,walking
1783066713899265300,7.0732025,0.2320847816262394,-0.0993587843745946,-0.314451149341464,0.0119180688634514,0.0675742328166961,-0.0037217731587588,-0.5367469794137403,-9.436896065631508,-2.612909000749886,50,walking
1783066713919190300,7.0931275,-0.0428134884731844,-0.246475345224142,-0.4604357835516333,0.0984267815947532,0.0431935228407382,-0.060859739780426,-0.5273057453189045,-9.440015074434877,-2.6035437910333274,50,walking
1783066713939115000,7.1130522,-0.0329404022997245,-0.3709393447607755,-0.5073012873619794,0.1746390610933303,0.0324091203510761,-0.1340396106243133,-0.5069521085981279,-9.448280213955044,-2.5774782064065334,50,walking
1783066713959040000,7.1329772,0.2136837037453428,-0.2302297283440828,-0.4482189837962388,0.2234210520982742,0.0007045221864245,-0.1319438964128494,-0.4803379136452451,-9.46000221593082,-2.539295775267482,50,walking
1783066713978964000,7.1529012,0.2475279960822314,-0.1215793840110301,-0.4761281504631042,0.2115058749914169,-0.0452931337058544,-0.1641837060451507,-0.4540278527380898,-9.472585218650105,-2.4968717610359192,50,walking
1783066713998889000,7.1728262,0.0656941229209303,-0.0100257194519042,-0.1601058062821626,0.1547046899795532,-0.0030479389242827,-0.1913341581821441,-0.4206344825064763,-9.483133500671386,-2.4624428372114897,50,walking
1783066714018813000,7.1927502,0.2133047143651172,0.0502566075533628,-0.299141352006793,0.1871165931224823,-0.0827018171548843,-0.1990746408700943,-0.3847894082738086,-9.492688680002091,-2.4312958576671777,50,walking
1783066714038738000,7.2126752,0.3498973604496568,0.0948170492917299,-0.1779232025235891,0.2379973530769348,-0.0793377161026001,-0.1804551482200622,-0.3528901125248521,-9.504179211309552,-2.3909053950898347,50,walking
1783066714058662000,7.2325992,0.5019629950739443,0.294799523410201,-0.1825818419843912,0.251445472240448,-0.1407775729894638,-0.1561228930950164,-0.3253906591700389,-9.517413955935837,-2.3416544574476776,50,walking
1783066714078587100,7.2525243,0.4252027037374675,0.1358528240352869,-0.1665615582928061,0.1855084300041198,-0.180656149983406,-0.1446240991353988,-0.3053430561911314,-9.528756018683314,-2.2978207225486638,50,walking
1783066714098511000,7.2724482,0.1034652698453515,0.0149421330660581,-0.0754664521336555,0.1033268868923187,-0.1628534495830536,-0.1699364185333252,-0.2845267703946679,-9.535933947488664,-2.270552045742422,50,walking
1783066714118436000,7.2923732,0.1439992508129216,0.0681628511220216,-0.1946077953428029,0.0602538622915744,-0.2569054961204529,-0.2620550394058227,-0.2523369124676101,-9.540821719530223,-2.253762677374482,50,walking
1783066714138360000,7.3122972,0.2606314972779713,0.0848936211705207,-0.1617062272161245,0.0022527249529957,-0.2037925571203231,-0.2442426532506942,-0.2130467575486749,-9.543336917221543,-2.2471599181085824,50,walking
1783066714158284800,7.332222,0.3797346456348895,0.1435831260263919,-0.299808145352453,-0.0356101766228675,-0.1610510796308517,-0.1815792471170425,-0.1805669950306415,-9.5433678968817,-2.2498669851101933,50,walking
1783066714178209000,7.3521462,0.1580577511785552,0.3046908028274774,-0.3059707596354186,-0.0627013072371482,-0.0701484829187393,-0.1831969916820526,-0.15267077004374,-9.54166986079216,-2.2591166056230665,50,walking
1783066714198134000,7.3720712,0.0124597964647226,0.5786836850523949,-0.2522843237638473,-0.0729125067591667,-0.0423920825123786,-0.2370465695858001,-0.1140637202844489,-9.53898339818716,-2.2727008943393825,50,walking
1783066714218058000,7.3919952,0.1167464474292472,0.4836562078803777,-0.2536018361032009,0.0011191894300282,-0.0533688329160213,-0.2792317271232605,-0.0682638775108149,-9.537629060968756,-2.2802118544913825,50,walking
1783066714237983000,7.4119202,0.0568737150050234,0.5219055667757988,-0.3553863863199949,0.0652478709816932,-0.0296514518558979,-0.3348594605922699,-0.0112342390084289,-9.539516482150557,-2.27329754505828,50,walking
1783066714257907000,7.4318442,0.062050158661697,0.3381301310926675,-0.2058595494583249,0.1063738465309143,0.0851590856909751,-0.2987107634544372,0.0519737136695534,-9.54338543253839,-2.2564269281476736,50,walking
1783066714277832000,7.4517692,0.0875305729448329,0.1362824476242065,-0.2475986501656472,0.114820048213005,0.1112594604492187,-0.2756017446517944,0.1101407016218174,-9.547888589176535,-2.235188179155439,50,walking
1783066714297756000,7.4716932,0.0217587177457287,0.3142559190303087,5.64063623547e-05,0.1220056042075157,0.1135793477296829,-0.2847235202789306,0.1687299518404528,-9.552433831390738,-2.2119999035306277,50,walking
1783066714317681200,7.4916184,0.1305972598609514,0.2635778711944818,0.1045290266193449,0.1184344068169593,0.1523885279893875,-0.2076007276773452,0.2217992787269875,-9.556820668172836,-2.188232805104553,50,walking
1783066714337605000,7.5115422,0.0650734520056284,0.15460896243155,0.2059032424695789,0.0506515689194202,0.2216048836708068,-0.104423850774765,0.2591912170754745,-9.560229599833487,-2.169148896058649,50,walking
1783066714357530000,7.5314672,-0.1420340699534863,0.134390350267291,0.385694430822134,-0.0416359044611454,0.2487117946147918,-0.0791583508253097,0.2861350823741406,-9.559614098283648,-2.1684766958855093,50,walking
1783066714377454000,7.5513912,-0.1449625246208161,0.198395497187972,0.256740426389873,-0.0715484246611595,0.148299291729927,-0.1087464019656181,0.3131551912467926,-9.556582767763734,-2.1780872586652635,50,walking
1783066714397378800,7.571316,-0.1492081263013184,0.0155249013900756,0.4381237062394619,-0.0959677919745445,0.2054550051689148,-0.0532465763390064,0.3373025942273437,-9.552228664207458,-2.1935221436843277,50,walking
1783066714417303000,7.5912402,0.206520168791525,0.0244271697700023,0.2768139309950173,-0.0491508916020393,0.173939898610115,0.0392877012491226,0.3472885661907494,-9.549009702160951,-2.205942064796388,50,walking
1783066714437228000,7.6111652,0.0354079979896545,-0.2422960137128829,0.2740612712860107,-0.0516739971935749,0.2285899519920349,0.1143317595124244,0.3401823874473572,-9.547444937062265,-2.2138135288238523,50,walking
1783066714457152300,7.6310895,-0.1249168578706681,-0.2771984002679586,0.2265941483207046,-0.0354713276028633,0.2186343222856521,0.1297514140605926,0.3276757744325325,-9.546360064435005,-2.220365726946294,50,walking
1783066714477077000,7.6510142,-0.1390821613453328,-0.5649848300457,0.2194821243584156,-0.1061048209667205,0.2628935873508453,0.1761974096298217,0.308771204008907,-9.544531679964065,-2.2309106479667125,50,walking
1783066714497001000,7.6709382,-0.2019175155679695,-0.3662853814750909,0.3345978653132915,-0.2427738457918167,0.3980352282524109,0.1984429657459259,0.2875102249185554,-9.537928336176275,-2.261780856396258,50,walking
1783066714516926000,7.6908632,-0.1474066481036134,0.0411222839832305,0.4941238258808851,-0.2965035140514374,0.5728853344917297,0.2063658386468887,0.27145620335415,-9.525752160692214,-2.3144652756184336,50,walking
1783066714536850000,7.7107872,0.3203493040019646,0.3275070302695035,0.0654132601529359,-0.0923547744750976,0.5488724708557129,0.1973217278718948,0.2599453233784064,-9.51720118996799,-2.350678598641604,50,walking
1783066714556775200,7.7307124,0.5808642804944888,0.2865273696273565,0.1539668651357293,0.1144062802195549,0.629646360874176,0.2563349902629852,0.2445367601106874,-9.519168690648677,-2.344361962840706,50,walking
1783066714576699100,7.7506363,0.6313163740873337,0.2854927658826112,0.2531847797349095,0.2705911099910736,0.626168966293335,0.2469782829284668,0.2250596139634959,-9.529504206702113,-2.3039678470015525,50,walking
1783066714596624000,7.7705612,0.5089607450067997,0.0893856718927621,0.6136844174154102,0.3035425543785095,0.7203575372695923,0.2289441227912902,0.2100479410588741,-9.543937805724145,-2.24488422826156,50,walking
1783066714616548000,7.7904852,0.6253623610537499,0.1493552796870469,0.7263491119563579,0.2756902873516083,0.7174577713012695,0.2299426048994064,0.1989911980587989,-9.55781961608231,-2.186064375024289,50,walking
1783066714636472800,7.81041,0.8604536310195923,0.3363280501067638,0.7514433673329651,0.2229447364807129,0.675879716873169,0.2911848127841949,0.17997659138944,-9.569566167977452,-2.1357408397145567,50,walking
1783066714656397000,7.8303342,0.8300851615671068,0.4466635710477828,0.6631507513739169,0.1684873104095459,0.6570702195167542,0.3373503386974334,0.1480958633436355,-9.57874666877687,-2.096678849261999,50,walking
1783066714676322000,7.8502592,0.5437445832161233,0.5241191511720419,0.6324518078580499,0.1345556378364563,0.6666541695594788,0.3355986177921295,0.110171772613516,-9.586021628215908,-2.0655308468043803,50,walking
1783066714696246000,7.8701832,0.4657540559649467,0.5743336731493472,0.6779442697495222,0.0747518688440322,0.6751322150230408,0.3314657211303711,0.0745873175118351,-9.591046762901543,-2.043686679264903,50,walking
1783066714716171000,7.8901082,0.7117487050000578,0.6551806492775678,0.5947837559819221,0.0395142473280429,0.6557570099830627,0.3274757266044616,0.0389831804621499,-9.593633272263409,-2.0325017067752777,50,walking
1783066714736095000,7.9100322,0.8143405530117451,0.6788800892949104,0.6699944797888397,-0.0017868385184556,0.7139919400215149,0.3432358801364898,0.0017828818107394,-9.594738603156804,-2.027657043223083,50,walking
1783066714756019200,7.9299564,0.6923308878246694,0.6491372774600982,0.7104793426513671,-0.0278434120118618,0.7623116374015808,0.2920581996440887,-0.0297355601101182,-9.593725042200088,-2.032228150530905,50,walking
1783066714775944000,7.9498812,0.5748433397045358,0.3631874154597521,0.3379128350801765,-0.0588981732726097,0.6205490827560425,0.2417225241661071,-0.0524584512794623,-9.591936405217648,-2.0401899231903253,50,walking
1783066714795868000,7.9698052,0.4319630647178739,0.090536595493555,0.2857426489904522,-0.1221395879983902,0.5366004705429077,0.1980300843715667,-0.0707379349075723,-9.58803647516966,-2.057901228708774,50,walking
1783066714815793200,7.9897304,0.6763380035966634,0.0483031353980302,0.4092763819396495,-0.1658134907484054,0.480474978685379,0.2610447108745575,-0.0915542846361175,-9.581565233328938,-2.0870129030331968,50,walking
1783066714835716900,8.0096541,0.7857828593082725,-0.1975625534951686,0.1003638697639107,-0.1443630754947662,0.3018178939819336,0.2588769197463989,-0.127227746895235,-9.574370353388783,-2.1179276812568304,50,walking
1783066714855642000,8.0295792,0.3285525937996804,-0.1849222676306962,0.332411168923974,-0.1269481480121612,0.2494259774684906,0.1549842208623886,-0.1560204183983616,-9.568157470223309,-2.143923853909224,50,walking
1783066714875566000,8.0495032,0.4490742123860866,-0.1939478701293468,0.481774778047949,-0.152474507689476,0.2338594794273376,0.1404294818639755,-0.172244608897902,-9.561525484862925,-2.1720808578573165,50,walking
